PacketCounter,SampleTimeFine,Euler_X,Euler_Y,Euler_Z,Acc_X,Acc_Y,Acc_Z,Gyr_X,Gyr_Y,Gyr_Z,
0,139814263,7.731301308,-41.70751953,8.842172623,0,0,0,0,0,0, 
1,139830930,7.905438423,-42.06833267,8.63588047,7.319022179,1.130301118,7.031509399,-1.755610585,-9.94722271,-6.800457001, 
2,139847597,8.297776222,-43.03272629,8.325612068,7.667987823,1.092728972,7.227200031,-2.599434853,-11.3259449,-9.733282089, 
3,139864264,8.677166939,-44.06901932,8.112856865,6.898537159,1.007461548,7.068817139,-1.660165787,-13.44916725,-13.13277245, 
4,139880931,8.927317619,-44.69150162,7.861552715,6.548112869,1.595969915,7.354882717,-7.320268154,-17.58492851,-18.27669144, 
5,139897598,9.475895882,-44.89081192,7.20453167,7.549902916,1.91413033,7.403430939,-12.26037884,-19.9248085,-26.7030201, 
6,139914265,10.29440022,-45.07336044,6.273655891,7.876600266,1.352058411,7.249742985,-11.58012867,-18.99827576,-32.97811127, 
7,139930932,11.00485706,-45.32852936,5.331645966,7.697850227,1.152292967,7.008390427,-13.9311142,-19.40124512,-37.92664337, 
8,139947599,11.65364075,-45.61925888,4.343581676,7.917617321,1.027060866,6.920092583,-15.23304462,-20.68867493,-43.1228714, 
9,139964266,12.17485046,-46.00079727,3.345330238,8.552565575,1.40171206,7.037512779,-19.64640045,-24.68589401,-44.62917709, 
10,139980933,12.5131321,-46.43084717,2.383216619,8.930094719,1.399527311,7.196267605,-28.05257034,-25.01408958,-41.92084885, 
11,139997600,12.9546175,-47.01482391,1.340034842,6.197492123,0.072097138,2.833072186,-24.61606026,-33.62213898,-42.63882828, 
12,140014267,13.70739651,-48.43166351,-0.071465269,5.705192089,-0.40928179,-1.945193768,-15.87262249,-78.93206787,-41.68289948, 
13,140030934,14.89976597,-50.30189133,-1.905081749,7.96987009,2.916577816,2.191250086,-11.50598335,-95.41663361,-50.14632416, 
14,140047601,17.42374802,-52.25808716,-4.857606888,7.128335953,2.65122366,2.549865246,8.295746803,-110.0334625,-77.09657288, 
15,140064268,21.05242538,-54.12353516,-8.765517235,6.171092987,4.077107906,2.616411924,22.35808754,-120.3226471,-96.0329361, 
16,140080935,24.90489578,-55.9117775,-13.19371796,7.344593525,3.647767544,3.930761576,2.7940557,-130.5322418,-93.58773804, 
17,140097602,28.60407829,-57.20805359,-18.01194763,6.612629414,7.12567997,7.700639248,-30.26192093,-118.1496506,-100.251091, 
18,140114269,32.74317551,-58.13100815,-23.47024727,7.018890381,4.925716877,5.001597404,-39.95248795,-124.5366592,-108.5511017, 
19,140130936,37.60864639,-58.73327637,-29.4561367,8.288661957,0.199822828,1.649991393,-24.67517281,-129.7478638,-117.5259705, 
20,140147603,42.35195541,-59.41986084,-35.317173,10.55437946,3.478105307,0.625421345,-25.19078636,-138.277298,-102.258728, 
21,140164270,46.37913132,-60.02934647,-41.14736176,9.751664162,5.433137417,5.432750702,-68.75569153,-137.3486176,-92.52178192, 
22,140180937,50.64730453,-60.58072662,-47.36659241,10.51177597,0.656141818,2.666172504,-74.96739197,-151.8891296,-89.03087616, 
23,140197604,55.14602661,-60.94446564,-53.43929672,11.60696125,1.16583395,2.294233322,-53.12234116,-146.899826,-85.71966553, 
24,140214271,59.57983017,-61.06255341,-59.24252701,11.1657629,1.881298542,2.442850828,-42.54811096,-137.6981506,-84.497612, 
25,140230938,64.15036011,-60.96685791,-64.88409424,10.3340826,1.331108928,1.72782135,-25.16701698,-134.196701,-84.25205994, 
26,140247605,68.68808746,-60.62738419,-70.34488678,10.87343311,3.470178127,2.391929626,-16.60123062,-131.0063019,-86.66482544, 
27,140264272,72.9525528,-59.97565842,-75.54903412,11.017519,3.679090977,3.341669798,-17.91981316,-126.8605194,-92.50444794, 
28,140280939,77.16815948,-59.37517166,-80.62413788,10.49567413,1.887401938,2.094367743,-11.81749344,-134.4128113,-79.86682892, 
29,140297606,80.95210266,-58.94269562,-85.47458649,9.980032921,2.463782072,2.074898005,-24.37712479,-137.554184,-60.7256546, 
30,140314273,84.09896088,-58.62309647,-89.97401428,9.815664291,3.001842499,2.665379286,-43.2997818,-133.1026306,-45.0141983, 
31,140330940,86.95357513,-58.49100876,-94.21013641,10.08677673,2.032708883,2.428782225,-46.35049057,-129.568222,-26.51452827, 
32,140347607,89.88026428,-58.5619545,-98.37822723,10.30527306,1.234973431,1.704504967,-38.13051605,-129.5999756,-8.543347359, 
33,140364274,92.836586,-58.81293488,-102.351532,9.68625927,1.380882502,1.648059249,-26.63580704,-123.1127014,7.647311211, 
34,140380941,95.80027771,-59.19756317,-106.2122421,8.640686989,1.795762539,1.653188586,-21.0362606,-117.4822769,20.91718674, 
35,140397608,98.63075256,-59.73006058,-109.9397278,8.487128258,2.020393848,1.9420017,-23.03915024,-109.6500168,34.70399857, 
36,140414275,101.2007599,-60.42555618,-113.5290451,8.769264221,1.84593749,2.659997463,-32.57275009,-100.2964706,48.33707809, 
37,140430942,103.5585556,-61.33531189,-116.9684525,9.621953964,0.981173754,3.514183998,-38.70996094,-88.97012329,63.51541901, 
38,140447609,105.9376526,-62.44986725,-120.3021011,10.56814003,0.216139346,3.628327131,-33.30377197,-77.84612274,76.91603851, 
39,140464276,108.4761429,-63.7613945,-123.469101,10.95116615,-4.35E-04,3.055523634,-16.59676361,-63.73935318,88.20799255, 
40,140480943,111.1671906,-65.21759033,-126.4760361,10.71168423,0.454748064,2.100448132,-0.778747499,-49.35593033,95.6036911, 
41,140497610,113.859169,-66.8013916,-129.334198,10.31889343,1.971628308,1.215484381,5.333964348,-34.57327652,101.3508759, 
42,140514277,116.3026581,-68.53816223,-131.9824219,10.32350636,3.67509079,1.796017528,0.020625483,-17.39834213,107.2442093, 
43,140530944,118.5058975,-70.39842987,-134.6093292,10.43992043,4.554016113,2.592276096,-14.97042084,-5.026669502,112.7026215, 
44,140547611,120.4853821,-72.31130981,-137.2743378,10.01255322,4.822387695,2.553637505,-32.16955185,4.147369385,114.3175659, 
45,140564278,122.3806381,-74.19621277,-140.09021,9.646499634,4.625286579,1.952975035,-47.40704727,9.167838097,112.2614517, 
46,140580945,124.3484192,-76.01268768,-143.1465454,9.453484535,4.396783352,1.111028433,-58.47930145,12.13361359,108.3716812, 
47,140597612,126.0898666,-77.73986053,-146.0351715,9.663328171,4.421253204,0.752201617,-63.67741013,19.27166176,99.74052429, 
48,140614279,127.3976593,-79.39516449,-148.4936523,9.56460762,3.811070442,0.638428569,-65.53102112,27.83069038,90.39402008, 
49,140630946,128.236496,-80.94048309,-150.5338745,9.17632103,3.485176325,0.548703313,-69.74456787,32.39445114,80.13957977, 
50,140647613,128.3717194,-82.37398529,-151.895874,9.086564064,2.98870182,0.941041768,-72.24053955,36.32777786,69.61064148, 
51,140664280,127.5315018,-83.69006348,-152.2560272,9.266027451,2.68318367,0.874143243,-71.38375854,38.98961639,59.20170975, 
52,140680947,125.3900452,-84.87994385,-151.2748718,9.231762886,2.666552544,0.470101774,-69.45890045,39.83553696,49.74814606, 
53,140697614,121.3216476,-85.91304016,-148.3337555,8.964866638,2.90374279,0.083544657,-67.77316284,38.86309814,40.24933624, 
54,140714281,113.5826111,-86.77706146,-141.6945496,8.735682487,3.080180168,0.466090053,-66.38253021,39.69035721,31.0114975, 
55,140730948,100.1393433,-87.40150452,-129.3460541,8.257081032,2.754615545,0.94860363,-66.21949005,40.32076263,22.06072807, 
56,140747615,81.19421387,-87.6931076,-111.5279312,7.883030891,2.32345891,1.357216239,-68.18403625,39.52773666,14.50488186, 
57,140764282,61.68854141,-87.60853577,-93.1330719,7.677660942,1.834419966,1.5546,-67.16844177,38.17739868,7.661990166, 
58,140780949,46.5805397,-87.19942474,-79.10730743,7.963305473,1.343318582,1.793014526,-65.37348175,39.03229904,0.881254792, 
59,140797616,37.1131897,-86.62879181,-70.64293671,7.85372448,0.840314448,1.13681531,-60.48547363,37.66627884,-3.947307348, 
60,140814283,32.14757919,-86.03508759,-66.52960205,7.711200237,0.919225872,0.296454728,-51.20631027,32.44527054,-8.686110497, 
61,140830950,29.50739098,-85.4056015,-64.58969879,7.638358593,1.449651122,0.895020187,-41.88595581,31.33612251,-13.23056793, 
62,140847617,28.22176552,-84.76007843,-63.99129105,7.554247379,1.933280587,1.788701773,-40.9016304,30.05215263,-17.16269302, 
63,140864284,27.98907471,-84.14261627,-64.51473999,7.506207466,2.003706932,1.692267418,-44.742836,25.95464706,-21.06030846, 
64,140880951,27.61420631,-83.59663391,-65.02027893,8.48352623,0.411952406,1.495768547,-52.1635437,22.26001167,-18.86612892, 
65,140897618,26.71169281,-83.1055069,-65.18749237,13.62761307,2.34112072,2.390851259,-63.6039505,20.59850121,-15.2451992, 
66,140914285,27.43912315,-82.73104858,-66.82711792,18.7557106,0.669838369,-0.068018943,-53.47037125,9.468815804,-21.60434341, 
67,140930952,31.04227829,-82.00527191,-70.71578217,20.34636688,7.965196133,0.291652024,-14.53388309,18.28885078,-48.93639374, 
68,140947619,34.87417603,-81.08782959,-74.89031982,10.87322807,3.027166367,3.257071495,-17.37952614,22.02755547,-60.6317482, 
69,140964286,37.18024445,-80.28204346,-77.52008057,3.58169055,0.038595386,1.454665661,-16.84018517,19.88598251,-48.64477921, 
70,140980953,37.60514069,-79.8682251,-78.42116547,2.001904011,-0.006386324,0.703670442,-27.221035,9.907493591,-22.11020279, 
71,140997620,37.23809433,-79.66217804,-78.64564514,7.656161308,2.194890976,2.104618311,-34.72016907,4.282956123,-9.098812103, 
72,141014287,37.35938644,-79.31402588,-79.22528076,12.9206562,3.385732889,2.971582651,-26.37061501,8.708317757,-17.2665863, 
73,141030954,38.1063385,-78.8396759,-80.24704742,13.98637104,1.272081733,1.09880352,-14.84404564,11.3529911,-25.97927094, 
74,141047621,38.33076096,-78.39822388,-80.60462952,10.02510548,1.084758639,-0.066939376,-7.028664589,14.37033558,-19.14865685, 
75,141064288,38.02553177,-77.99143982,-80.4793396,7.248066425,2.56216836,2.046195269,-10.43720913,16.6074028,-13.357728, 
76,141080955,37.62578583,-77.58700562,-80.33917236,8.011185646,2.154935598,3.638869047,-15.25978851,16.73637009,-12.79484081, 
77,141097622,37.52584457,-77.19200897,-80.47140503,10.1596489,1.37664783,2.756049156,-13.2279892,14.07488251,-15.05016994, 
78,141114289,37.61333466,-76.80078888,-80.67793274,10.64385414,1.464354515,2.613742113,-6.298723698,13.25602245,-15.7678318, 
79,141130956,37.75417328,-76.45386505,-80.8657074,9.359850883,2.29823041,3.02753377,-1.976624131,11.2579031,-14.04772472, 
80,141147623,37.84921646,-76.18575287,-81.00203705,8.556519508,2.694539547,3.385099411,-1.708188653,7.874174118,-10.56176186, 
81,141164290,37.9851532,-76.01348877,-81.14167023,8.792172432,2.606105089,3.653607368,0.553163946,3.19776535,-6.983726501, 
82,141180957,38.23470306,-75.92974854,-81.34731293,9.180659294,2.250895739,3.512085676,3.532766581,-1.693370938,-4.38796854, 
83,141197624,38.62122345,-75.93782806,-81.66320801,9.558321953,2.122181177,2.800070047,5.338065147,-7.107281685,-2.167769432, 
84,141214291,39.08340454,-75.98892975,-82.03282928,9.664872169,1.746220469,2.410187483,6.7469697,-9.614920616,-1.080280066, 
85,141230958,39.76176071,-76.03474426,-82.53527069,9.288088799,1.321772456,2.123701096,11.97707939,-10.56184196,-2.685647726, 
86,141247625,40.79433441,-76.08946991,-83.31619263,9.39150238,1.378773332,1.878145099,17.0139637,-13.55691624,-5.305679798, 
87,141264292,42.0439682,-76.15649414,-84.32556915,9.801325798,1.664609671,2.177112579,16.72253036,-16.3030014,-7.069029331, 
88,141280959,43.3818779,-76.23138428,-85.51641083,9.522362709,1.755892634,2.60142827,11.43567467,-18.50089455,-8.309414864, 
89,141297626,44.86104584,-76.31980896,-86.92932129,8.861539841,1.558077455,2.413256407,6.958440781,-21.43951416,-9.571256638, 
90,141314293,46.53926086,-76.42696381,-88.56626129,9.028869629,1.400412679,2.160155773,5.819764614,-24.68242073,-10.38709164, 
91,141330960,48.43404388,-76.50431824,-90.33647919,9.506332397,1.561263561,2.033887386,11.0197897,-25.07023621,-12.22821999, 
92,141347627,50.63122559,-76.5778656,-92.3748703,9.847617149,1.444043875,1.80930686,13.50168037,-28.10460854,-13.98241425, 
93,141364294,52.84064102,-76.61460114,-94.41533661,10.0045414,1.650292873,1.635679603,14.10183907,-27.18965721,-14.74365139, 
94,141380961,55.15313721,-76.62819672,-96.62662506,9.390809059,2.038887262,1.999048352,10.31913662,-28.80700684,-16.30433083, 
95,141397628,57.54002762,-76.64069366,-98.98249054,9.195684433,2.184802532,1.388486147,6.353610039,-31.09847641,-16.38741112, 
96,141414295,60.08083725,-76.66407776,-101.5866241,9.718170166,2.145591259,0.765568078,1.093072534,-35.01939011,-16.37377357, 
97,141430962,62.52298737,-76.64134216,-104.1028519,10.09927464,2.136014462,0.864106178,0.308807403,-33.26510239,-16.82390976, 
98,141447629,64.84877777,-76.57795715,-106.5066452,10.04695225,2.264918089,0.551928997,-0.077478766,-31.52922249,-17.11653328, 
99,141464296,66.8850708,-76.41558075,-108.6269989,9.819096565,2.622910976,-0.783790827,-0.845478475,-26.31184769,-19.95212555, 
100,141480963,69.12941742,-76.24466705,-111.0419235,10.31312084,2.621249914,-1.731045723,-5.471719742,-30.9155674,-21.2259655, 
101,141497630,71.2118454,-76.01642609,-113.2929535,11.57252312,4.176183224,-1.591587186,-5.554588795,-28.56966972,-22.76990128, 
102,141514297,73.12238312,-75.66387177,-115.5372009,12.29654408,5.440886497,-1.735862374,-15.34735489,-27.40357018,-29.04903984, 
103,141530964,74.62315369,-75.24056244,-117.5205612,12.75977707,5.468379021,-2.638624668,-24.60196304,-23.94457054,-31.37259865, 
104,141547631,75.3953476,-74.83502197,-119.0268021,13.43906307,4.458473682,-2.130935669,-40.50314331,-18.23672676,-28.08945274, 
105,141564298,75.47927094,-74.43674469,-119.8728943,13.49143982,2.967928648,-1.444209814,-43.49373627,-8.76571846,-25.02873802, 
106,141580965,75.34030914,-73.96290588,-120.3503418,12.49249935,1.902607918,-1.6807127,-35.51906204,-1.968619347,-28.08158684, 
107,141597632,74.58135223,-73.35967255,-119.9684525,10.73024082,2.113146544,-1.561567545,-23.20756721,14.21801186,-32.02478409, 
108,141614299,73.43855286,-72.76952362,-119.2664261,8.456447601,2.437599421,-0.174280435,-27.97782326,20.31777382,-29.49502754, 
109,141630966,71.53016663,-72.38129425,-118.331337,8.28556633,1.867070079,1.409221172,-60.69704437,21.86068535,-16.01815033, 
110,141647633,69.10166931,-72.05719757,-117.2375107,7.868388176,2.795866966,1.995734096,-82.92841339,24.19131088,-10.47964001, 
111,141664300,66.79991913,-71.57097626,-116.5405426,6.636700153,4.149129391,1.552797437,-98.07623291,21.72919655,-21.04472923, 
112,141680967,65.28218842,-71.34759521,-116.9659119,5.099339485,0.082352974,-1.364227295,-114.9653244,-3.350760221,-14.3252697, 
113,141697634,65.31465149,-71.48108673,-118.6888657,4.861797333,-1.639154196,-5.099395275,-95.76740265,-34.53842926,-5.409152031, 
114,141714301,66.49716187,-71.8335495,-121.0367432,4.822184563,-2.346964359,-2.422599792,-62.57305145,-49.98744202,2.040974855, 
115,141730968,69.0967865,-72.21438599,-124.4883652,5.678704739,-2.742490768,-3.092139244,-40.84451294,-68.50177002,-2.447206974, 
116,141747635,73.11701965,-72.63187408,-128.9051666,6.519853115,-1.305054426,-2.674954176,-11.3013792,-84.28160858,-1.988249302, 
117,141764302,78.30987549,-73.12824249,-134.4517975,7.245862961,-0.237297624,-1.127500176,-6.420100212,-102.5228043,4.669465065, 
118,141780969,84.87005615,-73.64105225,-141.3783264,7.647912979,0.219727129,-0.715416014,-4.618061543,-122.173027,12.85640812, 
119,141797636,92.8321991,-74.06528473,-149.5981445,8.309161186,0.522620022,-0.478652507,3.952265501,-137.670517,22.35137177, 
120,141814303,101.8166122,-74.3020401,-158.7635345,8.995102882,0.391571611,-0.652585387,9.87008667,-146.8395538,32.73594666, 
121,141830970,111.0779648,-74.25808716,-168.1507568,9.842406273,-0.021841865,-0.221943319,13.38739586,-147.0823669,40.11031342, 
122,141847637,119.9603195,-73.83599854,-177.0925751,11.03684711,-0.247353822,0.700780034,16.94236374,-144.0264435,39.99743271, 
123,141864304,127.9235992,-73.10559082,174.9758606,12.68565273,-0.397917181,1.661175966,21.40161896,-137.0241241,38.41995239, 
124,141880971,134.7371368,-72.41497803,168.4598083,14.27734089,-0.758693516,2.300652027,35.25646591,-114.9438782,44.38156509, 
125,141897638,140.5171204,-72.037323,163.4737396,13.36937428,-0.383835077,2.81791091,61.77148819,-79.29824829,50.95340347, 
126,141914305,145.5860443,-71.93948364,159.463028,10.57203865,0.854764521,3.006848574,75.15455627,-50.88139343,54.55810547, 
127,141930972,150.2029724,-71.9017868,155.7977905,8.924175262,2.529628992,2.648346901,67.85585022,-40.05231476,55.2351532, 
128,141947639,154.4441376,-71.84091187,152.3246002,9.170996666,3.168268919,2.54052639,56.3717041,-35.54675293,54.49592209, 
129,141964306,158.3186035,-71.84299469,149.1129456,9.823094368,3.211846113,2.505160093,49.37663651,-26.46358109,54.03189468, 
130,141980973,161.7959747,-71.97743988,146.220871,9.696228027,4.041316509,2.263978004,43.76072693,-13.6366415,52.5627861, 
131,141997640,164.6575165,-72.23388672,143.8886566,9.218254089,5.856902122,2.521526337,38.67101669,-0.81805414,45.02809143, 
132,142014307,166.7136078,-72.53573608,142.0210876,9.423843384,6.928343773,2.827476501,16.81619072,5.745545864,37.13663483, 
133,142030974,168.7970276,-73.11878204,139.3217773,10.40464497,3.678632021,3.916798353,-29.36817741,20.32983971,54.37013626, 
134,142047641,168.5136566,-73.54320526,138.2195587,6.34791708,10.07908726,-1.22924304,-79.93405914,17.13982201,24.02128601, 
135,142064308,165.8512421,-74.0334549,139.3086243,9.298618317,10.07189178,-2.752396107,-96.40116119,28.66914177,-10.31929302, 
136,142080975,164.4448242,-73.37342072,139.1152344,7.684577465,0.094555497,-6.138721466,-94.75289917,-43.09848022,-5.560050964, 
137,142097642,164.9815369,-71.25444794,136.3777466,8.102856636,-1.299752474,-24.79790306,-123.5432053,-139.5059357,15.91226673, 
138,142114309,165.5105591,-70.0326767,136.486496,13.63520336,5.326660633,-18.84065437,38.50723648,-72.71522522,-19.75933838, 
139,142130976,164.9841156,-71.34233093,137.4900665,22.0442009,6.105747223,17.35107231,25.84854507,79.5837326,1.909185767, 
140,142147643,165.5647278,-71.17099762,136.9568176,7.668329239,4.558407784,7.209924221,5.352017403,-15.47268867,8.895103455, 
141,142164310,166.2652893,-70.57987213,135.5141449,7.963527203,5.943690777,-12.02090549,-38.8225441,-44.75210571,20.71086121, 
142,142180977,167.4573517,-70.94242096,134.6587982,8.733926773,0.885100245,-4.409144402,24.03473854,14.49633598,23.48439789, 
143,142197644,167.8778229,-70.99815369,133.3819733,8.432379723,-3.167823792,-0.845155239,-46.25685501,-4.811433792,27.17283821, 
144,142214311,167.9607239,-70.90885162,132.7194061,9.682361603,-3.355206966,-4.74981308,-31.75666428,-10.83778191,13.37865734, 
145,142230978,168.2916412,-71.09645844,132.5065155,8.983459473,-0.072922386,-3.786241293,8.524328232,7.353352547,7.937322617, 
146,142247645,168.8897552,-71.1759491,131.9870453,9.483896255,3.637322187,-0.259567618,7.102925301,-0.060215503,12.32624245, 
147,142264312,169.3946838,-70.94487,131.0070801,9.734500885,2.813788652,-2.831204414,-24.55137062,-20.08745575,17.8158226, 
148,142280979,169.9097443,-70.87394714,130.0672455,10.03317451,1.011524677,-3.4884727,-21.579319,-10.37928581,19.16827965, 
149,142297646,170.3175201,-70.78060913,129.3581238,10.05414295,-0.238251656,-4.054175377,-14.92619038,-10.77378559,14.59855747, 
150,142314313,170.5838318,-70.87757874,129.019577,9.81299305,-0.363643497,-4.54820013,-2.449906826,1.820506454,9.272870064, 
151,142330980,170.6665497,-71.05567169,128.9130859,9.564425468,0.195724115,-4.319259644,-0.350369006,7.473769188,5.456050396, 
152,142347647,170.5901184,-71.34093475,128.9593506,9.635637283,0.421007454,-4.278059959,-1.255381823,14.3792305,3.530104876, 
153,142364314,170.4604645,-71.71605682,129.1315155,9.525781631,0.575405777,-3.281750679,2.696220875,20.16705132,2.085894823, 
154,142380981,170.309967,-72.08315277,129.3755341,9.25014019,0.626524329,-3.350210428,5.551297188,19.93091583,0.801659465, 
155,142397648,170.1715546,-72.49261475,129.6459503,9.092761993,0.897365689,-3.043728828,7.805940628,22.54443741,0.908682704, 
156,142414315,170.0316772,-72.87355804,129.8526917,8.913038254,1.063857436,-2.707325935,4.095394135,20.67736244,1.918951511, 
157,142430982,169.9075775,-73.2095108,129.9705963,9.053969383,1.025240421,-2.49801755,-0.037765969,17.7566452,3.135785818, 
158,142447649,169.8249512,-73.51109314,129.993103,9.168497086,0.915132582,-2.80709815,-3.027795315,15.43585873,4.483654022, 
159,142464316,169.7693176,-73.81164551,129.9827728,9.340102196,0.940064073,-2.639898539,-3.303131819,15.29802227,5.064050674, 
160,142480983,169.7978821,-74.10751343,129.9206085,9.247919083,1.079136252,-2.484741926,-1.244432449,14.8789854,5.876934052, 
161,142497650,169.9202881,-74.39922333,129.7687531,9.306675911,1.186258554,-2.266591787,-0.80053848,14.39472771,7.256666183, 
162,142514317,170.0559082,-74.6421814,129.5446777,9.348542213,0.987484455,-2.66745019,-4.197566032,11.33702755,7.843683243, 
163,142530984,170.164978,-74.93682098,129.3625183,9.6515522,0.889538467,-2.628247261,-3.383710384,14.54952049,7.65511322, 
164,142547651,170.1971741,-75.21398163,129.2353363,9.670290947,0.684312284,-2.959668636,-4.832980156,13.69986916,6.583821297, 
165,142564318,170.1343536,-75.53833771,129.2033844,9.543429375,0.576155245,-2.792489052,-5.021542072,16.77608681,5.611217976, 
166,142580985,169.9358978,-75.85610199,129.2859039,9.525029182,0.527826548,-2.727390289,-6.518067837,16.70578003,3.90073514, 
167,142597652,169.6685333,-76.17636108,129.4182434,9.434467316,0.56502682,-2.587372541,-7.756290436,16.9977417,3.312219381, 
168,142614319,169.3532257,-76.50099182,129.6259918,9.411064148,0.370256394,-2.488401651,-6.232767582,17.46084404,2.446406126, 
169,142630986,169.0199127,-76.82704926,129.9545898,9.327576637,0.463726431,-2.268038988,-0.255064338,17.86762428,0.98457253, 
170,142647653,168.7567139,-77.10160828,130.2869568,9.335629463,0.605463386,-2.045567513,4.185522556,14.85012245,0.537310064, 
171,142664320,168.5470734,-77.35886383,130.6051636,9.314133644,0.872794807,-1.596453786,6.581629276,13.79628468,0.681791365, 
172,142680987,168.4240875,-77.52554321,130.8296356,9.390637398,0.872001469,-1.658517838,6.313846111,8.202157021,0.926315606, 
173,142697654,168.3987579,-77.66618347,130.9956512,9.375767708,0.833316565,-1.756652117,8.751537323,6.510834217,1.420385003, 
174,142714321,168.4492035,-77.75090027,131.147644,9.326316833,0.939202785,-1.463937402,12.4783144,3.192387581,0.958805442, 
175,142730988,168.5892944,-77.77503967,131.201004,9.494236946,1.117099404,-1.431592941,12.08349419,-0.63743639,1.487925768, 
176,142747655,168.7979431,-77.75417328,131.1256256,9.349777222,0.923411012,-1.990769267,8.648573875,-3.613006115,2.596174717, 
177,142764322,169.0288544,-77.70940399,131.0366821,9.316459656,0.593996644,-2.021350861,9.197236061,-5.036355019,2.516531706, 
178,142780989,169.2597198,-77.62340546,130.9970245,9.477469444,0.632999599,-1.792509675,12.09072208,-7.330091476,1.4478935, 
179,142797656,169.4455719,-77.53507996,130.9841156,9.514138222,0.893039286,-2.134874105,10.95405388,-7.398656368,1.112481952, 
180,142814323,169.6198273,-77.45964813,130.9048309,9.443759918,0.997543275,-2.670599937,6.374662399,-6.775303364,2.136054754, 
181,142830990,169.822403,-77.40305328,130.7429352,9.565915108,1.011630416,-2.873715878,3.247915506,-5.807835102,3.436219931, 
182,142847657,170.0574036,-77.42224121,130.5477448,9.565633774,1.183942199,-1.813331962,3.241447449,-1.339979649,4.69513464, 
183,142864324,170.2929077,-77.4099884,130.267807,9.603388786,0.816739619,-3.06788063,-1.678067327,-3.37960887,5.494084835, 
184,142880991,170.4813538,-77.53224945,130.0549774,9.721251488,0.512379587,-3.018805981,-0.577092648,4.80316925,5.975168228, 
185,142897658,170.6031799,-77.69282532,129.9500732,9.654018402,0.532453656,-2.581533194,1.740415454,7.369576931,4.922909737, 
186,142914325,170.6717224,-77.90263367,129.9268646,9.628988266,0.559329271,-2.347735405,3.319414139,10.50167847,4.343935013, 
187,142930992,170.6651764,-78.0928421,129.9682159,9.558467865,0.534109771,-2.438983202,2.602782249,9.495379448,3.344680548, 
188,142947659,170.5658875,-78.28616333,130.0417175,9.618778229,0.601316154,-2.654265881,-1.077629209,9.774085999,3.000663519, 
189,142964326,170.4102173,-78.49873352,130.1977844,9.731440544,0.576625824,-2.397110224,0.393686622,11.11706352,2.247521639, 
190,142980993,170.2321472,-78.70877075,130.3772278,9.466966629,0.719544113,-1.657519341,0.420669556,11.04186344,2.019543171, 
191,142997660,170.084137,-78.86558533,130.4953156,9.465794563,0.809023201,-2.10621357,-1.377976537,7.763269901,2.259597778, 
192,143014327,169.9160919,-79.03586578,130.6009369,9.566646576,0.592976928,-2.08046174,-3.307983398,8.550730705,2.597621202, 
193,143030994,169.7074585,-79.21497345,130.7960052,9.569730759,0.493457615,-1.987455368,-0.469340026,9.262495995,1.747023582, 
194,143047661,169.4945679,-79.41571045,131.0292816,9.350856781,0.392462432,-1.929888844,1.523450255,10.631073,1.639194131, 
195,143064328,169.3253174,-79.61683655,131.2494812,8.907366753,0.412671804,-1.605657697,3.381242752,10.63166332,1.862076044, 
196,143080995,169.2531128,-79.70671082,131.3418884,9.021121025,0.7339077,-1.473109961,1.653165579,3.827082157,2.029646635, 
197,143097662,169.1950378,-79.7594986,131.4267273,9.625364304,0.97055459,-1.148730874,2.064582109,1.618601084,1.715033054, 
198,143114329,169.2211761,-79.74801636,131.4008484,9.44298172,0.92776072,-1.227313399,0.581401825,-2.406594515,2.181260586, 
199,143130996,169.3259277,-79.70590973,131.3085175,9.49297142,0.962267339,-1.576620817,1.385218143,-4.363111019,2.560559511, 
200,143147663,169.4555511,-79.61369324,131.1561279,9.51773262,0.670472801,-1.691260576,-0.666685939,-7.429157734,2.675215244, 
201,143164330,169.4782562,-79.50623322,131.1042633,9.864044189,0.425310224,-2.244738579,-1.133439183,-8.130254745,1.459866762, 
202,143180997,169.3321533,-79.45401001,131.2551727,9.797888756,0.292603403,-2.419456959,0.695544958,-4.429127693,-0.126590773, 
203,143197664,169.0690765,-79.44078064,131.5460358,9.617036819,0.515641689,-2.366046667,1.929398298,-1.796795011,-1.231663585, 
204,143214331,168.7520599,-79.4623642,131.8756104,9.592664719,0.649815202,-2.304761171,0.982022941,0.382352799,-1.2565974, 
205,143230998,168.3693085,-79.51829529,132.2642975,9.536000252,0.659274697,-2.128339052,0.523222566,2.588963509,-1.45457077, 
206,143247665,167.9477081,-79.56826782,132.6856842,9.522137642,0.588154495,-1.997801781,0.121513039,2.363955975,-1.823611259, 
207,143264332,167.4516602,-79.63663483,133.1942291,9.594474792,0.606348634,-2.014924526,0.809790254,3.678591728,-2.460765839, 
208,143280999,166.9223785,-79.69126129,133.715271,9.370182037,0.696811914,-1.929322362,-0.439923823,2.957569361,-2.698016644, 
209,143297666,166.3933258,-79.72580719,134.2108917,9.468205452,0.722315609,-1.962890744,-1.920760155,1.779038787,-2.644882679, 
210,143314333,165.8917084,-79.74167633,134.6817474,9.433342934,0.825004935,-1.547078848,-1.741074562,0.690383911,-2.609447241, 
211,143331000,165.4321594,-79.72344971,135.1031647,9.509132385,0.947643399,-1.773990631,-2.123932838,-1.391538024,-2.581158161, 
212,143347667,165.0107269,-79.68574524,135.4726715,9.451771736,0.83062911,-1.854361653,-2.907669306,-2.605541945,-2.336083412, 
213,143364334,164.5690155,-79.65457153,135.8794098,9.636541367,0.681831241,-2.215294123,-1.923168302,-2.073630095,-2.636200428, 
214,143381001,164.0641022,-79.64858246,136.3624725,9.631855965,0.828103125,-2.276323557,-1.211711168,-0.328803033,-3.038665295, 
215,143397668,163.5156097,-79.6763916,136.8787689,9.684374809,0.867770195,-2.234152079,-1.858201623,1.792857289,-2.799929619, 
216,143414335,162.9242249,-79.72612762,137.4226837,9.623984337,0.797031701,-2.199492455,-2.797098875,3.212031126,-2.64951849, 
217,143431002,162.2801514,-79.8084259,138.0595093,9.582673073,0.858311117,-2.080149174,-0.464409441,5.438709736,-2.926698923, 
218,143447669,161.60289,-79.8762207,138.6796722,9.551789284,0.879435539,-2.0223279,-3.433050156,4.624059677,-2.901637554, 
219,143464336,160.8828888,-79.9580307,139.3358002,9.544995308,0.7349751,-2.054487705,-3.866481781,5.612185478,-2.866779089, 
220,143481003,160.097229,-80.05353546,140.0948639,9.515152931,0.668683589,-1.847302318,-1.713886857,6.807672024,-3.461775064, 
221,143497670,159.3108826,-80.12753296,140.8781281,9.456707954,0.926792443,-1.7445122,-0.315202773,5.748868465,-3.979343891, 
222,143514337,158.5502167,-80.18582916,141.6005554,9.530380249,1.062427044,-1.707325339,-2.361299038,4.719108582,-3.586418867, 
223,143531004,157.8100281,-80.23972321,142.3058624,9.59648037,1.009503841,-1.812990189,-2.136688471,4.477119446,-3.396653891, 
224,143547671,157.0988464,-80.29427338,142.990387,9.568929672,1.035894036,-1.801663637,-1.61845386,4.501348972,-3.072192192, 
225,143564338,156.3819427,-80.35334015,143.6784821,9.631383896,1.069112897,-1.874880075,-1.74056232,4.827513695,-2.885462761, 
226,143581005,155.6430206,-80.43257141,144.3885956,9.551419258,0.99286747,-1.98698771,-1.754623771,6.087235928,-2.465107203, 
227,143597672,154.8532715,-80.5302887,145.1416626,9.580951691,0.943287015,-1.870425463,-2.246477604,7.326891899,-2.233286858, 
228,143614339,154.0485535,-80.62869263,145.9212646,9.512672424,0.982649982,-1.811311007,-1.561875463,7.520831585,-2.265623093, 
229,143631006,153.2528839,-80.72144318,146.6876678,9.580365181,1.00699079,-1.847990036,-1.792722702,7.210456848,-2.107490063, 
230,143647673,152.4178314,-80.8225174,147.4911346,9.630783081,1.078264236,-1.766453147,-1.956478,7.863901615,-2.007780313, 
231,143664340,151.5628204,-80.91598511,148.3237457,9.66721344,1.041615605,-1.723274112,-1.40460062,7.622180462,-2.2659688, 
232,143681007,150.6723022,-81.01574707,149.1968689,9.632480621,1.035548568,-1.791807413,-1.123014808,8.180064201,-2.208967686, 
233,143697674,149.7293549,-81.13541412,150.139328,9.522983551,1.115839958,-1.684563518,-0.145160034,9.576252937,-1.942621708, 
234,143714341,148.8308716,-81.24021149,151.0370178,9.609115601,1.091110229,-1.611045957,-0.119867444,8.626480103,-1.77503705, 
235,143731008,147.8681793,-81.35727692,152.0095978,9.658581734,1.059830546,-1.647726536,0.486622274,9.632101059,-1.721186996, 
236,143747675,146.8728638,-81.47691345,153.0269928,9.531808853,1.035722733,-1.539843202,1.208183408,9.991267204,-1.69629097, 
237,143764342,145.8802338,-81.59047699,154.0484009,9.540589333,1.067540169,-1.538040161,1.617653847,9.724896431,-1.630722761, 
238,143781009,144.8898926,-81.70464325,155.0664825,9.450101852,1.197563052,-1.517008781,1.577211261,9.744654655,-1.305402875, 
239,143797676,143.8872833,-81.81681824,156.0739288,9.565453529,1.134746075,-1.479285479,0.222465575,9.597971916,-1.011983633, 
240,143814343,142.8931427,-81.915802,157.0680084,9.604320526,1.089627028,-1.518932462,-0.043720894,8.896067619,-1.120760798, 
241,143831010,141.783493,-82.02246094,158.2013397,9.763314247,1.1207757,-1.386853576,1.311018467,9.980650902,-1.50108397, 
242,143847677,140.7428741,-82.1050415,159.2555695,9.637949944,1.116255403,-1.488053083,0.763495505,8.458128929,-1.598335266, 
243,143864344,139.5548553,-82.20069122,160.4476013,9.664251328,1.134564161,-1.532332659,0.12301144,9.806894302,-1.708700538, 
244,143881011,138.3221588,-82.29984283,161.6904755,9.598727226,1.105262637,-1.403465629,0.478259712,10.25571823,-1.563297272, 
245,143897678,137.0420074,-82.40606689,163.0015106,9.534967422,1.182145953,-1.304544568,1.705569506,10.93763161,-1.343604326, 
246,143914345,135.7923431,-82.50595093,164.2820892,9.52910614,1.203835607,-1.227076173,1.735229135,10.48902607,-1.065667987, 
247,143931012,134.6032715,-82.5967865,165.5118866,9.629602432,1.232086301,-1.232690334,2.36633873,9.810301781,-0.837650776, 
248,143947679,133.4274139,-82.68278503,166.7368011,9.6369524,1.260026217,-1.099421501,2.884612083,9.573549271,-0.71856451, 
249,143964346,132.331131,-82.76410675,167.8885498,9.540714264,1.253523231,-1.057581782,3.315468788,8.95893383,-0.266064793, 
250,143981013,131.3327026,-82.83242798,168.9450989,9.558959007,1.249940634,-1.064049244,3.530206203,7.889040947,-0.127051845, 
251,143997680,130.4621735,-82.89041138,169.860321,9.583554268,1.26959908,-1.030682325,2.799167395,6.679529667,0.284858048, 
252,144014347,129.6464691,-82.94554138,170.7171631,9.550544739,1.322113991,-1.030031323,2.620569944,6.232396126,0.579570651, 
253,144031014,128.9747772,-82.991539,171.4094238,9.55624485,1.330337763,-1.054919124,1.474196792,4.937315941,1.038319826, 
254,144047681,128.3588409,-83.03572845,172.0420837,9.619092941,1.278238654,-1.049793124,1.266182899,4.531187057,1.320328116, 
255,144064348,127.7677307,-83.08080292,172.6582794,9.635159492,1.280619621,-1.026039124,1.783213854,4.46478653,1.510963678, 
256,144081015,127.1855927,-83.12225342,173.2725372,9.682106018,1.284991026,-1.072450876,2.200534344,4.321919441,1.427696943, 
257,144097682,126.5968475,-83.16020203,173.8861084,9.682670593,1.221591115,-1.152913451,1.784430742,4.180025101,1.317114115, 
258,144114349,125.8757324,-83.20569611,174.6295929,9.656535149,1.10558486,-1.202797771,1.570513248,5.204609871,1.215969443, 
259,144131016,125.0934372,-83.25009155,175.4397583,9.562460899,1.138698339,-1.030101538,1.885254979,5.545963287,0.973852575, 
260,144147683,124.3259583,-83.28968811,176.2330475,9.585896492,1.258436561,-0.971035838,1.766885757,5.284111977,0.909257293, 
261,144164350,123.5730972,-83.32356262,177.0028839,9.522738457,1.286759377,-0.805988789,1.255899787,4.95040369,0.805564284, 
262,144181017,123.0235672,-83.3337326,177.5540466,9.579344749,1.276893854,-0.837571681,0.419017345,2.907918692,0.541855872, 
263,144197684,122.52948,-83.33638,178.0281677,9.502707481,1.193578243,-0.894061089,-0.831554711,2.220627546,0.477939397, 
264,144214351,122.2094727,-83.31434631,178.3068085,9.818463326,1.192175031,-0.990636289,-2.046723604,0.303311974,-0.019004621, 
265,144231018,121.4945068,-83.3088913,179.0188141,9.732649803,1.131639123,-0.868845403,0.080455899,3.432479858,-0.770955086, 
266,144247685,121.1667786,-83.26490021,179.3574066,9.61593914,1.257042766,-0.960142732,1.06758225,0.039206643,-1.36328733, 
267,144264352,120.475853,-83.25006104,-179.9509125,9.633665085,1.37964499,-1.215246439,0.309535831,3.122988462,-1.134680986, 
268,144281019,119.8592377,-83.24047852,-179.372879,9.479810715,1.324906945,-1.166879058,-2.003028393,2.6509974,-0.419241458, 
269,144297686,119.0896072,-83.24176025,-178.6670532,9.69131279,1.253874898,-1.043608189,-3.570026875,3.811343431,-0.251004487, 
270,144314353,118.3294907,-83.22937775,-177.9770355,9.751934052,1.220453262,-0.92339164,-3.938145399,3.365681887,-0.865504384, 
271,144331020,117.5463409,-83.21103668,-177.2653503,9.479710579,1.21901536,-0.7618137,-4.030478954,3.388823271,-1.210725307, 
272,144347687,117.0136719,-83.1709137,-176.8032379,9.51190567,1.198407054,-0.542145729,-3.875586033,1.273085833,-1.52191937, 
273,144364354,116.7056427,-83.10918427,-176.5269012,9.554468155,1.189654112,-0.402663171,-1.467927575,-0.458813012,-2.080532312, 
274,144381021,116.7203827,-83.02307129,-176.5334778,9.547276497,1.382776737,-0.668309748,1.040291905,-2.924125433,-2.470626831, 
275,144397688,116.8662567,-82.93453217,-176.7020721,9.61703968,1.599164248,-0.964854062,-0.729859591,-4.058960438,-2.064729691, 
276,144414355,116.9141693,-82.8666687,-176.8179932,9.735993385,1.441965103,-1.237669587,-3.465898514,-3.1587255,-1.116201639, 
277,144431022,116.6590424,-82.82252502,-176.6196289,9.716518402,1.241232514,-1.257419944,-2.941221952,-0.395370483,-0.896086037, 
278,144447689,116.1296082,-82.79990387,-176.1100464,9.64908123,1.23605144,-1.066329241,-0.874135792,2.318096399,-0.788371742, 
279,144464356,115.6732025,-82.7721405,-175.6753845,9.576431274,1.402980328,-0.924308717,-0.948335946,1.71934855,-0.820464492, 
280,144481023,115.2937469,-82.74158478,-175.3346405,9.5792799,1.509974718,-0.815109432,-1.925473213,1.053264737,-0.643237412, 
281,144497690,115.1116104,-82.70518494,-175.2045135,9.577235222,1.55376029,-0.842945457,-2.615633249,-0.516761899,-0.276501924, 
282,144514357,114.9690094,-82.67116547,-175.1170349,9.668696404,1.428627372,-0.84540391,-2.777620316,-0.729961932,-8.07E-04, 
283,144531024,114.8423386,-82.63601685,-175.0458069,9.6278162,1.363840103,-0.862918019,-2.796343088,-0.862277091,-0.013216153, 
284,144547691,114.7519608,-82.59708405,-174.9970093,9.581798553,1.319794536,-0.891343653,-1.950650454,-1.100910664,-0.148348764, 
285,144564358,114.6746674,-82.55589294,-174.9481506,9.592041016,1.308131218,-0.814913929,-1.161830544,-1.147884488,-0.282175124, 
286,144581025,114.6343155,-82.50786591,-174.9129028,9.594545364,1.201815486,-0.691718459,0.248603284,-1.406572819,-0.61873883, 
287,144597692,114.7313309,-82.44363403,-174.9774475,9.542458534,1.2449224,-0.766706169,2.538660049,-2.525219917,-1.1789397, 
288,144614359,114.8340073,-82.37908173,-175.0255585,9.57707119,1.358084321,-0.935844421,3.859200478,-2.419939518,-1.251526356, 
289,144631026,114.8491135,-82.32100677,-174.9805145,9.627498627,1.428805232,-0.943205297,4.139416218,-1.582352877,-1.215963006, 
290,144647693,114.8443298,-82.26584625,-174.9080353,9.654270172,1.409870744,-0.956918478,4.540343761,-1.304685116,-1.156746387, 
291,144664360,114.7177429,-82.22592926,-174.6988831,9.595137596,1.389643908,-0.97387886,5.366969109,0.107272409,-0.787590623, 
292,144681027,114.622406,-82.18676758,-174.5026855,9.565747261,1.52477479,-0.867398977,6.485412121,0.049208406,-0.718077719, 
293,144697694,114.6553574,-82.15010071,-174.4287109,9.703278542,1.67941761,-0.986856282,6.897175312,-0.778331697,-0.158427402, 
294,144714361,114.6687241,-82.11992645,-174.3534393,9.751971245,1.706180811,-1.032197118,5.848423481,-0.590769827,0.188413441, 
295,144731028,114.7070847,-82.09267426,-174.3397064,9.669389725,1.551294208,-1.107023954,3.698224306,-0.962730229,0.566636205, 
296,144747695,114.6677551,-82.06764221,-174.2690125,9.654842377,1.46048522,-1.079348922,2.392501593,-0.473207474,0.486250728, 
297,144764362,114.5896454,-82.04266357,-174.1693573,9.762876511,1.400253415,-1.204211116,1.653831244,-0.255461097,0.392777145, 
298,144781029,114.2444229,-82.03224945,-173.7887573,9.674490929,1.431941509,-1.086367488,2.383921146,2.261953354,0.211490452, 
299,144797696,113.8585739,-82.02152252,-173.3630066,9.556441307,1.432597756,-1.017717004,2.71303153,2.639382124,0.055035286, 
300,144814363,113.3924026,-82.01512146,-172.8718262,9.589521408,1.496873975,-1.169555306,1.724496722,3.261053801,0.092199318, 
301,144831030,112.7638397,-82.02220917,-172.211792,9.590672493,1.408977032,-1.098040581,1.789168835,4.875204563,0.324801087, 
302,144847697,112.0559464,-82.02610016,-171.4903717,9.635277748,1.432819843,-1.149335265,1.020288467,5.350910187,-4.74E-04, 
303,144864364,111.2200851,-82.03370667,-170.6371613,9.632165909,1.515630364,-0.835640669,1.47725749,6.529235363,-0.137745127, 
304,144881031,110.5568619,-82.02427673,-169.9851227,9.651116371,1.571902633,-0.920708895,-0.592088819,4.572782993,-0.383537441, 
305,144897698,109.7001953,-82.02684021,-169.1312256,9.714253426,1.531369925,-1.000071526,-0.10871312,6.451014042,-0.227402404, 
306,144914365,108.9925232,-82.01908112,-168.4624023,9.690834045,1.656219602,-0.882532597,-2.099434853,4.841395855,-0.219014227, 
307,144931032,108.0270538,-82.0268631,-167.5223083,9.640433311,1.494709849,-0.91181469,-1.460974336,7.318120003,0.031945452, 
308,144947699,107.2088089,-82.02376556,-166.7172546,9.558179855,1.471820235,-0.717711449,-0.639997303,6.086685181,-0.136400431, 
309,144964366,106.3109818,-82.02159882,-165.8303528,9.589544296,1.468833208,-0.776171386,-0.453511328,6.807965755,-0.185653687, 
310,144981033,105.5457687,-82.00976563,-165.0922241,9.579352379,1.481625319,-0.748211265,-1.577127814,5.463233948,-0.301743239, 
311,144997700,104.7255859,-82.00141907,-164.276474,9.543157578,1.553045273,-0.617573321,-0.11441195,6.208986759,-0.197922155, 
312,145014367,104.0853195,-81.98725128,-163.6234894,9.508682251,1.580005646,-0.544132113,1.014538288,4.844968796,-0.115154706, 
313,145031034,103.5502014,-81.9708252,-163.0743103,9.535612106,1.592271805,-0.564977169,1.121522307,3.991758108,0.00552594, 
314,145047701,103.1565704,-81.94975281,-162.6597748,9.610927582,1.562107205,-0.620525062,1.54776895,2.849662542,0.037157625, 
315,145064368,102.8998032,-81.92615509,-162.3724518,9.571321487,1.614688039,-0.528640151,2.048587084,1.771086335,0.14003104, 
316,145081035,102.7778854,-81.89918518,-162.2224884,9.587554932,1.584490895,-0.601154566,2.155635357,0.636136234,0.208890766, 
317,145097702,102.7638245,-81.86899567,-162.1688995,9.611038208,1.543184638,-0.54032141,2.916063309,-0.19335027,0.193625584, 
318,145114369,102.8493881,-81.83542633,-162.1941223,9.602176666,1.563117862,-0.600999653,4.075844765,-0.913143873,0.139467523, 
319,145131036,102.9850922,-81.80195618,-162.2613983,9.568091393,1.583178043,-0.712444842,4.709656715,-1.24403429,0.230687186, 
320,145147703,103.1525879,-81.77132416,-162.3612671,9.456484795,1.60432148,-0.620454192,4.727265358,-1.471628785,0.459818363, 
321,145164370,103.4648743,-81.7386322,-162.620285,9.38045311,1.627820373,-0.503632665,3.996086836,-2.837887287,0.655473828, 
322,145181037,103.9498138,-81.70378876,-163.0859985,9.481390953,1.727706432,-0.597496688,2.03196454,-4.626895905,0.981139302, 
323,145197704,104.5343552,-81.67298889,-163.6884155,9.614304543,1.833494782,-0.673276782,-0.098672934,-5.744699001,1.545195341, 
324,145214371,105.1307755,-81.65136719,-164.3082123,9.699775696,1.753365159,-0.72213167,-0.195937142,-5.732992649,2.189892054, 
325,145231038,105.7087479,-81.63710022,-164.8982849,9.656210899,1.633372426,-0.855519891,0.476223409,-5.369370461,2.607200146, 
326,145247705,106.2007523,-81.62682343,-165.3893127,9.654240608,1.558108687,-0.97255677,0.900049567,-4.515737534,2.647104979, 
327,145264372,106.6051331,-81.61742401,-165.7867432,9.775348663,1.486179829,-0.980886936,1.395591497,-3.672836065,2.50250864, 
328,145281039,106.88237,-81.60491943,-166.0542145,9.798409462,1.477548718,-0.924166203,2.080462217,-2.541868687,1.997861266, 
329,145297706,107.1002426,-81.58535004,-166.2407074,9.627509117,1.419659972,-0.792443275,2.518131495,-2.107015848,1.401443601, 
330,145314373,107.3008499,-81.55882263,-166.395752,9.532209396,1.553931594,-0.826328337,2.997179031,-2.021546364,0.931566, 
331,145331040,107.5183487,-81.53295135,-166.5850983,9.512804031,1.617555857,-0.802369595,2.01660943,-2.294001341,1.066698551, 
332,145347707,107.7420731,-81.50891113,-166.8025665,9.565097809,1.643449426,-0.829425395,1.224895239,-2.427098036,1.246000171, 
333,145364374,107.9404297,-81.48694611,-167.0205994,9.530631065,1.699577451,-0.787621439,0.037285693,-2.344624996,1.364100456, 
334,145381041,108.1670074,-81.46613312,-167.2724304,9.509947777,1.621887684,-0.799841464,-1.07716763,-2.736114979,1.551892638, 
335,145397708,108.4921646,-81.43769073,-167.6687317,9.575184822,1.625242352,-0.797472715,-3.041405678,-4.001652241,1.525025249, 
336,145414375,108.7865524,-81.40929413,-168.0404358,9.683978081,1.541515708,-0.886918902,-3.363114595,-3.800579071,1.473248959, 
337,145431042,109.0286942,-81.38671112,-168.3278809,9.654977798,1.607875705,-0.924525976,-1.992911577,-3.04757905,1.60071063, 
338,145447709,109.2509155,-81.36437225,-168.5931091,9.693814278,1.634849429,-0.900383413,-1.576295137,-2.818113804,1.545425415, 
339,145464376,109.334938,-81.3584137,-168.6593018,9.617650032,1.564070821,-0.944295883,1.613350272,-0.852262437,1.896575332, 
340,145481043,109.5470047,-81.34279633,-168.8881989,9.484841347,1.557595611,-0.832986832,0.541638196,-2.290658951,1.811221242, 
341,145497710,109.6920624,-81.33184052,-169.0373993,9.561689377,1.564847112,-0.953656137,0.720696509,-1.600294352,1.854596376, 
342,145514377,109.8931427,-81.3229599,-169.2519226,9.582274437,1.631199718,-0.882053375,0.37331152,-2.084822655,2.170068026, 
343,145531044,110.1129303,-81.31400299,-169.4769745,9.602651596,1.612569571,-0.803875327,0.823224068,-2.182855129,2.205515862, 
344,145547711,110.3761368,-81.30511475,-169.7293396,9.644453049,1.694583654,-0.87409085,0.810174584,-2.561398268,2.340123892, 
345,145564378,110.639473,-81.30421448,-169.9654083,9.643328667,1.713919163,-0.946009874,0.866893828,-2.391368151,2.776960611, 
346,145581045,110.8913345,-81.3074646,-170.225708,9.594329834,1.652785182,-0.963821948,0.324365675,-2.262254477,3.049454689, 
347,145597712,111.1059189,-81.31330109,-170.4620514,9.578207016,1.599334478,-0.976686954,-0.535894573,-2.004962444,3.122015476, 
348,145614379,111.277565,-81.31848145,-170.6623535,9.593325615,1.509294391,-1.050730705,-0.870613992,-1.689247131,2.966904402, 
349,145631046,111.415741,-81.32373047,-170.8387146,9.601000786,1.503290296,-1.054231405,-1.284809947,-1.450921059,2.888798952, 
350,145647713,111.4950104,-81.32842255,-170.9602203,9.635680199,1.477283716,-1.036297441,-1.063311219,-0.919739187,2.655697823, 
351,145664380,111.5224304,-81.32959747,-170.9997253,9.662982941,1.507975459,-0.986386955,-0.07080631,-0.412454128,2.212661982, 
352,145681047,111.5143356,-81.3288269,-170.9913635,9.638183594,1.539626718,-1.000395656,0.904954314,-0.008093613,1.935032964, 
353,145697714,111.4727631,-81.33054352,-170.9285583,9.548025131,1.527375102,-0.886505246,0.978411615,0.338222116,1.925185084, 
354,145714381,111.4511185,-81.32740021,-170.9646149,9.565106392,1.554497242,-0.921302199,0.611291826,0.032086309,1.826294184, 
355,145731048,111.4417877,-81.31877136,-171.0218811,9.557844162,1.540518284,-1.018374205,-0.770289063,-0.39563933,1.612837911, 
356,145747715,111.5030746,-81.30651855,-171.1239471,9.658607483,1.59632659,-0.946801484,-0.544116139,-1.045190096,1.61395216, 
357,145764382,111.545105,-81.29615784,-171.1521454,9.663010597,1.647705317,-0.797220886,0.08816532,-0.75602293,1.573061705, 
358,145781049,111.5778961,-81.28760529,-171.209137,9.574713707,1.531039953,-0.984401822,0.46480003,-0.577233374,1.669839025, 
359,145797716,111.5836716,-81.28323364,-171.2265167,9.619337082,1.493050218,-1.016557693,0.221914828,-0.288795978,1.807648182, 
360,145814383,111.426178,-81.29283905,-171.0957489,9.435128212,1.646915674,-0.910165131,0.450213641,1.45382154,2.035780668, 
361,145831050,111.422554,-81.30150604,-171.0361938,9.576963425,1.70595932,-0.768796504,0.731786847,0.140837833,2.402695417, 
362,145847717,111.6996384,-81.29717255,-171.3886566,9.786486626,1.417882323,-1.058766127,-3.870450974,-3.184734821,2.945710659, 
363,145864384,111.4294052,-81.32746887,-171.0799866,9.630267143,1.911524057,-0.778791785,1.93322742,3.076847315,2.687982559, 
364,145881051,111.6856079,-81.33453369,-171.2844543,9.468940735,1.538384914,-0.689828515,4.314760208,-1.583056927,3.053859949, 
365,145897718,111.7628555,-81.35807037,-171.351532,9.522849083,1.46378994,-0.895543158,1.962746263,-0.022193408,3.514812231, 
366,145914385,112.111763,-81.33870697,-171.7028961,9.535915375,1.423008204,-0.797851026,-0.787449598,-3.677509546,2.161590099, 
367,145931052,112.3191986,-81.31843567,-171.8960876,9.610713959,1.148833156,-1.059066296,0.608103156,-2.306833744,1.566325545, 
368,145947719,112.5340576,-81.2884903,-172.0548553,9.564537048,1.573983788,-0.826284289,3.206435204,-2.227024555,0.902175486, 
369,145964386,112.8516617,-81.25320435,-172.3509827,9.629558563,1.735782146,-0.878758192,2.826380968,-3.28374052,1.036424279, 
370,145981053,113.14608,-81.22846222,-172.6080322,9.607310295,1.75711441,-0.873950601,3.081432104,-2.81910038,1.528789997, 
371,145997720,113.5314941,-81.20127869,-172.9788971,9.556884766,1.615638375,-0.887424707,2.194746256,-3.785544872,1.811362386, 
372,146014387,113.9669189,-81.16967773,-173.4206696,9.577615738,1.430517316,-1.213456988,1.214214921,-4.468225479,1.851791978, 
373,146031054,114.2665558,-81.14060211,-173.7268982,9.578456879,1.464629173,-1.085759163,0.514347911,-3.354648829,1.53740871, 
374,146047721,114.6439896,-81.09996033,-174.1779327,9.673545837,1.574595332,-0.99789691,0.056776956,-4.372113228,1.317126751, 
375,146064388,115.0139008,-81.06242371,-174.5262146,9.601924896,1.650937676,-0.892902851,0.150468215,-4.25056839,1.387062192, 
376,146081055,115.3792877,-81.03130341,-174.8975067,9.597194672,1.644102693,-1.114308715,0.3859514,-4.024652004,1.770650864, 
377,146097722,115.6928177,-81.00700378,-175.2377472,9.598128319,1.619910717,-1.093687892,0.167065248,-3.44195056,1.987744331, 
378,146114389,115.9383087,-80.99320221,-175.4996643,9.655465126,1.593469858,-1.209894538,0.122537568,-2.594758511,2.285491943, 
379,146131056,116.0491943,-80.99353027,-175.6255493,9.616019249,1.555721283,-1.176056027,-0.123568475,-1.106519818,2.503481388, 
380,146147723,116.0878601,-80.99798584,-175.6789856,9.67274189,1.50401175,-1.179049969,-0.344490826,-0.402990252,2.443778038, 
381,146164390,116.0570221,-81.00457764,-175.7225494,9.615153313,1.524330139,-1.226865888,-0.018530788,0.298906624,2.300513506, 
382,146181057,115.9402237,-81.02165222,-175.618927,9.669195175,1.545158505,-1.025039911,0.438713521,1.373103261,2.427591085, 
383,146197724,115.8481216,-81.03430939,-175.5243378,9.594874382,1.550682664,-1.05297029,0.427623212,1.041521072,2.276667833, 
384,146214391,115.7271881,-81.04957581,-175.3659668,9.569643021,1.519258499,-1.018497825,0.920117021,1.423060894,2.239388704, 
385,146231058,115.6202011,-81.06229401,-175.2333069,9.595164299,1.534349203,-1.063703775,1.339909077,1.299082518,2.151511431, 
386,146247725,115.504921,-81.07491302,-175.1395874,9.595961571,1.550168753,-1.0739398,1.034477711,1.327154279,2.175024271, 
387,146264392,115.3271332,-81.0893631,-174.9809113,9.591048241,1.500727057,-0.990557134,0.69701761,1.855070233,2.039776325, 
388,146281059,115.2399063,-81.09408569,-174.912674,9.61907959,1.609618425,-1.076494932,0.036939915,0.741698921,1.915055037, 
389,146297726,115.0991135,-81.11128235,-174.7857971,9.639811516,1.598354697,-0.993163705,-0.39011988,1.454692602,2.395908117, 
390,146314393,114.9567261,-81.12051392,-174.6746216,9.607862473,1.473827958,-1.104559422,-0.767996848,1.210334539,1.995081902, 
391,146331060,114.7898788,-81.1362381,-174.4969025,9.645524979,1.636542559,-0.964764893,-0.183963224,1.663756251,2.183425188, 
392,146347727,114.5967407,-81.15971375,-174.2924805,9.637056351,1.591192961,-1.171253681,-0.256844163,2.06999898,2.519553185, 
393,146364394,114.2484207,-81.19766235,-173.9322205,9.611449242,1.595548868,-1.088658929,-0.170900747,3.752805233,2.72294426, 
394,146381061,113.9457245,-81.2286911,-173.6615295,9.580727577,1.464803219,-1.014156938,-0.681400239,3.110771179,2.601296186, 
395,146397728,113.5385513,-81.26589966,-173.2471161,9.652524948,1.485242009,-1.034712672,-1.048046112,4.082927227,2.565681934, 
396,146414395,113.1450272,-81.29938507,-172.8674469,9.558732033,1.484456897,-1.015616894,-0.887877226,3.883097172,2.443957806, 
397,146431062,112.8115692,-81.33164215,-172.5550537,9.574046135,1.551789045,-1.01190722,-0.224892303,3.430660725,2.600092649, 
398,146447729,112.5749969,-81.35803223,-172.3666077,9.633075714,1.586666465,-0.798875213,-0.521794736,2.422916412,2.665174246, 
399,146464396,112.4070206,-81.38198853,-172.2382965,9.590965271,1.535165191,-0.774847448,-0.538340509,1.781164646,2.785336018, 
400,146481063,112.2991409,-81.40659332,-172.1295013,9.570299149,1.556234837,-0.904756248,0.108348116,1.373474598,2.970259905, 
401,146497730,112.1677017,-81.4330368,-171.9858093,9.586863518,1.534788847,-0.922160685,-0.127871394,1.573637962,2.99529624, 
402,146514397,112.0291977,-81.46029663,-171.8647156,9.618452072,1.475457549,-0.887998879,-0.236059457,1.63026762,3.045241356, 
403,146531064,111.8447113,-81.48912811,-171.661377,9.591150284,1.490751147,-0.948386908,0.157690987,2.096969604,2.93400526, 
404,146547731,111.6133423,-81.52503967,-171.3931885,9.59529686,1.568990707,-0.926644146,-0.010270692,2.612796307,3.171690702, 
405,146564398,111.3588867,-81.56481171,-171.1464996,9.613215446,1.595746517,-0.888291538,-0.624988258,2.793212414,3.39274168, 
406,146581065,111.1032333,-81.61110687,-170.9251404,9.65923214,1.523568511,-0.927502394,-0.683103502,2.922466755,3.803837776, 
407,146597732,110.8185196,-81.66009521,-170.6355896,9.626936913,1.527106047,-0.773957253,-0.389133781,3.23937273,3.830360413, 
408,146614399,110.5769501,-81.70687103,-170.3953857,9.598618507,1.491968989,-0.8611691,-0.190379232,2.843528509,3.857945204, 
409,146631066,110.3201675,-81.75740814,-170.1482697,9.602118492,1.516468644,-0.843435884,-0.406870544,2.9980371,4.050117493, 
410,146647733,110.1028442,-81.8112793,-169.8615265,9.618114471,1.525505781,-0.817274511,-0.747314632,2.685395956,4.324929237, 
411,146664400,109.8597031,-81.87140656,-169.6490936,9.597168922,1.557720542,-0.795896351,-0.980505466,2.962205172,4.707121849, 
412,146681067,109.6480637,-81.9331131,-169.4729309,9.577422142,1.504824877,-0.705584347,-1.465827823,2.65171504,4.924855232, 
413,146697734,109.4118271,-82.00179291,-169.2730408,9.606264114,1.457627892,-0.744777799,-1.156157374,3.004440308,5.256487846, 
414,146714401,109.1253967,-82.07841492,-168.9825592,9.629658699,1.459848404,-0.789337575,-0.292894065,3.641672134,5.522566319, 
415,146731068,108.711792,-82.16907501,-168.5653839,9.645093918,1.508399487,-0.838278115,0.429966867,4.961584091,5.983287334, 
416,146747735,108.1218109,-82.27503967,-167.9851685,9.633945465,1.475001216,-0.785864353,0.620973647,6.572072506,6.462194443, 
417,146764402,107.4246063,-82.38923645,-167.2758636,9.615501404,1.437648296,-0.914461613,0.531406045,7.422722816,6.758188248, 
418,146781069,106.5740738,-82.51646423,-166.3998871,9.59348011,1.424056172,-0.856667042,0.937687755,8.718970299,7.246367931, 
419,146797736,105.5480347,-82.66270447,-165.3479767,9.601072311,1.492875338,-0.662509143,2.028815508,10.28299999,8.123335838, 
420,146814403,104.5795135,-82.81613159,-164.3862152,9.549899101,1.632724881,-0.459223002,0.42501089,9.498942375,8.923589706, 
421,146831070,103.5773773,-82.98060608,-163.4045563,9.536234856,1.643338799,-0.398118436,-1.971551657,9.333267212,9.772397041, 
422,146847737,102.8610077,-83.14717102,-162.7536011,9.453669548,1.500201344,-0.628839135,-3.468473673,6.864815235,10.61240292, 
423,146864404,102.2626572,-83.31774902,-162.2223206,9.517181396,1.521357298,-0.490129143,-4.146968365,5.808573723,11.15230846, 
424,146881071,101.9658051,-83.49190521,-162.0497894,9.353334427,1.5022012,-0.275017828,-6.272439003,3.393499374,11.92572212, 
425,146897738,101.9887466,-83.67631531,-162.1937103,9.297652245,1.772627831,0.078918137,-6.598143578,1.315181017,13.00778484, 
426,146914405,102.7037582,-83.86710358,-163.0612335,9.272837639,1.868121982,0.173855692,-9.415866852,-3.245849848,14.39587212, 
427,146931072,103.8820114,-84.05463409,-164.4662323,9.334467888,1.693289399,-0.181086436,-12.90465736,-6.153639317,14.9933567, 
428,146947739,105.2361832,-84.22881317,-166.1588287,9.438640594,0.999571323,-0.308110893,-18.89482498,-7.457064152,14.73880386, 
429,146964406,106.9123611,-84.37510681,-168.1989136,9.280384064,0.264289379,-1.015516758,-20.96699142,-9.369354248,13.82050037, 
430,146981073,108.417717,-84.52603912,-170.0132141,9.477109909,0.653230667,-0.557382882,-17.427145,-7.365752697,13.82841778, 
431,146997740,110.4274063,-84.6545639,-172.3061523,9.845739365,1.048440933,-0.566213667,-15.9058609,-9.764360428,13.58713531, 
432,147014407,112.7853851,-84.73690796,-174.9285889,10.65166473,0.770620406,-1.224071622,-14.68235207,-11.80163574,11.94992733, 
433,147031074,113.8335419,-84.80710602,-176.0952301,10.919981,-0.188136712,-1.81354785,-6.360225677,-4.288105965,8.382661819, 
434,147047741,113.4637833,-84.85041046,-175.6581421,10.21588421,-0.286253244,-1.150935173,4.403086662,3.13725543,3.406099558, 
435,147064408,113.0062332,-84.815979,-175.0734711,10.09352016,0.118099019,-1.221764803,7.964726448,2.021348715,-1.212697744, 
436,147081075,111.9844055,-84.7534256,-173.8870697,10.11294842,0.691224217,-1.207468987,10.03223705,4.488006592,-4.021528721, 
437,147097742,110.3325119,-84.69208527,-172.1008453,9.815119743,1.072163105,-0.866580129,8.069496155,7.822167397,-5.079360008, 
438,147114409,109.0330734,-84.60544586,-170.7446899,9.675107956,0.800848246,-0.971566498,3.497907877,5.353522301,-5.545483112, 
439,147131076,107.0850983,-84.52153015,-168.7011414,9.708642006,0.62966156,-0.938389242,5.634534359,9.451070786,-6.484638691, 
440,147147743,105.1709518,-84.41903687,-166.6864777,9.474317551,0.780434132,-0.513650358,5.909423351,9.458756447,-7.238921642, 
441,147164410,103.4284439,-84.29618073,-164.8233032,9.593923569,0.945474625,-0.462556154,7.104973793,8.798807144,-7.97271347, 
442,147181077,101.8041,-84.16320038,-163.0821075,9.663778305,1.114369631,-0.575473964,6.920958519,8.478006363,-8.199308395, 
443,147197744,100.2472534,-84.02709198,-161.437912,9.514193535,1.255731583,-0.858722746,5.060770988,8.362288475,-8.075854301, 
444,147214411,98.8656311,-83.89331055,-160.0071411,9.722311974,1.473078489,-0.25688374,2.809054613,7.542859554,-7.538575649, 
445,147231078,97.80658722,-83.74950409,-158.953949,9.675254822,1.406757116,-0.219168872,-0.188893721,5.465515137,-7.630883694, 
446,147247745,96.67216492,-83.60303497,-157.8333893,9.680418015,1.258761406,-0.626762211,-0.55820334,6.238148212,-7.752249241, 
447,147264412,95.40681458,-83.45935059,-156.6255188,9.781725883,1.358295321,-0.639099777,-1.834446311,7.365414619,-7.55400753, 
448,147281079,93.77348328,-83.3070755,-155.04039,9.947380066,1.247042537,-1.093931437,-3.887985229,10.08211994,-8.079212189, 
449,147297746,91.47128296,-83.14597321,-152.755722,9.903585434,1.095558286,-0.928110957,-2.900077343,15.54146004,-8.505292892, 
450,147314413,88.96581268,-82.95310974,-150.2888641,9.858934402,1.120346904,-1.045358658,-3.288969994,17.82654762,-9.755097389, 
451,147331080,85.93399048,-82.71810913,-147.2902527,10.01455879,0.936525166,-0.802562892,-2.94624877,23.05368233,-11.19985962, 
452,147347747,82.8624115,-82.43091583,-144.2146301,9.916470528,1.053447485,-0.721644998,-1.990342975,25.29255676,-12.96553135, 
453,147364414,79.52277374,-82.09664917,-140.8398895,9.711400986,1.455385566,-0.558442652,-0.309274554,29.89845276,-13.80268669, 
454,147381081,76.37536621,-81.73157501,-137.72966,9.752485275,1.622695804,-0.305776566,-3.552533627,30.29099464,-14.06357765, 
455,147397748,73.24585724,-81.32723999,-134.6636658,9.784771919,1.445301414,-0.270305872,-5.11010313,32.58276367,-14.41974735, 
456,147414415,70.09547424,-80.87355042,-131.5626068,9.819405556,1.3739537,-0.238193676,-5.255550385,35.85630417,-14.94193077, 
457,147431082,67.33911133,-80.38458252,-128.866684,9.731039047,1.589806199,-0.100872271,-5.639843941,35.195858,-15.9227953, 
458,147447749,64.65340424,-79.84423828,-126.2478485,10.07364273,1.570296764,-0.530958295,-6.069927692,37.86186218,-16.77826691, 
459,147464416,61.75027084,-79.21421814,-123.3928604,10.10430908,1.636630893,-0.520447731,-5.434828758,44.87815857,-17.84487343, 
460,147481083,58.76428986,-78.50085449,-120.491478,10.13026237,1.624123693,-0.468855649,-7.871145725,50.53765106,-18.59597206, 
461,147497750,55.76845932,-77.66912079,-117.5652466,10.39066315,1.431687593,-0.60218513,-7.628818512,57.56143951,-20.51651955, 
462,147514417,52.84258652,-76.68898773,-114.7005692,10.38573742,1.498415232,-1.076214194,-7.6682024,65.38819885,-23.65936852, 
463,147531084,50.07803726,-75.59425354,-111.9879761,11.20895672,1.059930921,-1.475310326,-7.565429211,71.55255127,-25.25323105, 
464,147547751,47.11323166,-74.27497864,-109.0541077,11.93566608,0.799546421,-0.462602258,-7.636343479,86.84080505,-27.29673004, 
465,147564418,44.66407776,-72.8041687,-106.5103531,11.09095287,1.88373661,0.784687698,-0.319964647,92.68410492,-31.48154068, 
466,147581085,43.01002502,-71.42627716,-104.7655716,12.04241657,1.85429275,-1.028962374,0.619287312,82.13148499,-32.31444168, 
467,147597752,41.42250824,-69.89772034,-103.2293243,14.81422901,4.870635033,-2.05356741,-8.062131882,88.71894073,-37.28964233, 
468,147614419,39.1857338,-68.0537796,-101.2203293,14.42326927,6.524465084,-0.111799926,-21.50341034,112.709198,-36.83002472, 
469,147631086,37.42458344,-66.26596069,-100.0065002,14.59217739,6.485095501,-1.68704617,-38.40483093,102.1318588,-42.51353836, 
470,147647753,35.42082977,-64.16612244,-98.70718384,14.01093102,4.20638895,-3.216307402,-49.34519577,121.3020706,-46.66527557, 
471,147664420,33.51520538,-62.10165024,-97.37252808,14.46455002,0.779694796,-4.558507919,-42.85809708,123.2360687,-38.42485428, 
472,147681087,31.01940727,-60.04428864,-95.20818329,14.36120415,-1.427598,-3.960232496,-36.07806778,138.6734314,-11.00402927, 
473,147697754,28.28894043,-57.87080765,-92.67221069,13.74053097,-1.27349174,-1.253498435,-33.46025467,153.0387726,5.352230072, 
474,147714421,26.27462769,-55.90474701,-90.48694611,12.75764847,0.221859604,2.054058075,-11.04645252,138.6697235,11.17478657, 
475,147731088,23.82930946,-54.37490463,-88.57469177,11.07758427,-0.757701397,2.801811457,-52.57520294,111.9892044,22.0615406, 
476,147747755,22.22336197,-52.71684647,-87.14927673,8.380640984,0.661389232,2.338809729,-27.54789925,112.5407486,9.319335938, 
477,147764422,20.97270393,-50.67669296,-86.19569397,7.07210207,8.567211151,10.0758152,-30.11634636,128.0044556,-10.64836311, 
478,147781089,19.03742027,-49.97996902,-86.04921722,5.488145351,0.446791917,0.156170577,-109.3656311,42.27076721,-7.472560883, 
479,147797756,16.05830002,-49.50515747,-85.38938141,4.872746468,-0.866317093,-0.364922285,-148.5449066,35.98400497,17.4021244, 
480,147814423,12.73271656,-49.82115555,-84.71378326,2.904868603,-0.153615624,-0.999998629,-168.6289063,-10.69910431,31.77194977, 
481,147831090,10.22827339,-50.49504089,-84.32949066,4.290602684,-3.772492409,-2.163860559,-132.5436096,-35.51758957,24.22865295, 
482,147847757,8.94101429,-51.20733261,-84.16013336,4.743490219,-5.230587006,0.317104518,-69.29840088,-39.85549164,15.13004875, 
483,147864424,8.626540184,-52.22512054,-84.29451752,5.494939327,-3.909543276,0.54230684,-25.09700394,-59.87384796,6.013676643, 
484,147881091,9.210603714,-53.29523087,-84.74858093,6.541307449,-1.461150289,1.230843186,13.48391724,-64.72054291,-4.770336628, 
485,147897758,10.15704155,-54.54706955,-85.4629364,6.833059311,0.961088777,1.75131762,22.27495384,-76.99202728,-10.72823143, 
486,147914425,10.85371017,-56.16382217,-86.26931,6.654370785,3.080161572,2.304474831,2.115868092,-99.07574463,-7.838667393, 
487,147931092,10.93745232,-58.23898315,-87.0786972,6.667749882,4.197561741,2.754172802,-35.6999321,-125.9075699,-0.733617544, 
488,147947759,10.38569736,-60.70190811,-87.82720947,6.926598549,4.259121418,3.079254866,-71.70463562,-148.1140137,6.572711945, 
489,147964426,9.403759956,-63.50736618,-88.61307526,7.20958519,2.85834527,2.20374012,-100.5066757,-168.2886505,8.955394745, 
490,147981093,8.565577507,-66.56221008,-89.60552979,7.709568977,1.300662875,2.118664265,-104.1889038,-183.6380463,5.659920216, 
491,147997760,8.198465347,-69.85412598,-91.05718994,9.308169365,-0.355385602,0.945082664,-102.8173981,-198.7899323,-1.264209747, 
492,148014427,8.646194458,-73.14697266,-93.00909424,10.34372902,-1.027308583,0.498375595,-84.10826111,-199.5275421,-5.844362736, 
493,148031094,10.34619617,-76.39298248,-95.7461853,10.18312645,-0.605943799,0.594923437,-56.37561798,-197.8116608,-8.425505638, 
494,148047761,14.11975193,-79.67640686,-100.2075424,9.782208443,-0.077943832,0.85187459,-35.41075134,-202.7869873,-10.50430393, 
495,148064428,22.68097878,-82.91822815,-109.0486374,9.298731804,0.462360054,0.894968033,-10.7514782,-207.9795837,-12.85738277, 
496,148081095,45.89461136,-85.73584747,-132.1452484,8.446200371,1.845942616,0.77715826,13.4057169,-212.1875305,-17.08657646, 
497,148097762,100.9282608,-86.44454956,173.0618134,7.472250462,3.457187176,0.420893341,21.13837242,-216.2410431,-23.37862396, 
498,148114429,138.2127686,-84.03395844,135.9364624,7.422837257,4.369258881,0.254113287,16.46766281,-224.3895416,-27.50396538, 
499,148131096,151.3397217,-80.47131348,122.8021698,8.212360382,4.416955948,0.387925386,6.569633484,-233.343689,-33.7326355, 
500,148147763,156.5719452,-76.64620209,117.4256897,11.3430233,4.686860561,1.780222535,-2.138748407,-232.8122711,-40.98075485, 
501,148164430,158.9717255,-73.08081055,114.972702,12.25978947,2.640327215,2.614490986,2.190751076,-211.3383942,-43.08880997, 
502,148181097,160.5922241,-69.59261322,113.851738,10.87810612,1.638194203,1.298354626,33.85571289,-202.7386017,-49.88068771, 
503,148197764,161.9261475,-66.20704651,113.5227661,10.52949142,2.143779039,1.325211763,62.1300087,-193.7331696,-56.00716019, 
504,148214431,163.0574341,-63.00912476,113.5270309,11.97566605,2.995102882,1.731009007,68.54151917,-182.0112,-55.63647461, 
505,148231098,163.880188,-59.93745804,113.3549271,12.33695316,4.153689861,2.876719952,40.76292038,-177.2359314,-45.52872467, 
506,148247765,164.2972412,-57.22653198,113.0904999,14.01029968,2.931157351,2.272554874,12.02356625,-157.9657593,-34.45127106, 
507,148264432,164.4859924,-55.204319,112.9984589,14.65888882,2.30966258,3.065865993,7.332273006,-117.0963974,-27.51223755, 
508,148281099,164.2887573,-53.88956833,113.0954742,14.12779808,1.686771989,2.666296959,-6.450517654,-74.63818359,-22.32215309, 
509,148297766,163.629364,-53.3045578,113.280159,14.32642841,0.047787722,3.711353064,-29.97258759,-31.64675903,-13.87478447, 
510,148314433,162.863739,-53.51481628,113.5725174,14.74639988,-2.471445084,3.121810913,-31.16518974,15.18763447,-4.263700485, 
511,148331100,162.3659515,-54.7717514,114.1789932,14.09420204,-2.970468283,2.812676191,0.299540579,78.26138306,4.242969513, 
512,148347767,161.9885712,-56.65416336,115.0146255,13.40887928,-1.721627712,3.229400158,19.43161964,115.9343109,9.667877197, 
513,148364434,161.4472809,-58.89013672,116.0269928,12.63461971,-1.035791397,2.030002594,19.54517746,137.1655579,13.27049446, 
514,148381101,161.9810181,-59.96764755,116.0485382,3.771457434,0.48439911,-20.85478592,33.75881958,61.09561157,21.57205391, 
515,148397768,171.6619873,-59.53897095,116.3400345,-3.259176493,-6.868901253,-36.26134109,596.4984741,-23.29652786,-12.57217884, 
516,148414435,172.4696045,-53.66570282,115.4555359,19.77717972,11.81756306,-4.782332897,4.489224434,-352.7982483,-17.96179008, 
517,148431102,165.9147491,-58.24828339,114.774025,23.52895355,14.05250072,4.637343407,-426.441803,266.0761719,75.97154236, 
518,148447769,165.763504,-60.81661224,113.8471756,7.461537361,0.863951027,3.674477339,-56.37539673,142.3741455,67.08876038, 
519,148464436,167.3024139,-60.52752686,112.6612015,12.78362274,-2.474572897,-4.150787354,30.93754959,-25.22644615,31.90530968, 
520,148481103,168.7416077,-62.0214653,112.1989746,11.83941269,-2.703121662,-7.865704536,62.63577271,84.63935089,33.64070892, 
521,148497770,169.0616455,-63.90779114,112.1001205,6.705058575,0.087352604,-3.425038099,14.48603916,110.2767258,26.37938499, 
522,148514437,169.066864,-64.88189697,111.724617,7.347775936,-0.344840497,-2.170511246,-19.4552536,55.27270126,22.5931778, 
523,148531104,169.3765259,-65.71730042,111.192543,10.51074791,-0.759623945,-2.95278883,-9.883001328,46.45569229,24.40913773, 
524,148547771,169.5864716,-66.79917908,110.7996216,11.35253811,-0.864293277,-3.391488552,-8.456752777,61.77259445,23.09311867, 
525,148564438,169.4294739,-67.85320282,110.8690948,10.08038616,0.340015233,-1.814174175,-5.061064243,62.13656235,11.82645416, 
526,148581105,169.4729767,-68.77066803,111.0120926,9.942015648,0.091093659,-2.444443941,11.08489418,54.32906723,8.848586082, 
527,148597772,169.6341095,-69.68600464,111.2304688,9.916949272,1.003354907,-3.624725819,22.41353416,54.46527481,7.268224716, 
528,148614439,169.6422119,-70.67943573,111.4071121,8.956105232,1.313299775,-3.794597626,10.95339298,58.88949585,9.067018509, 
529,148631106,169.4712219,-71.64671326,111.6376495,8.941500664,0.337170482,-3.766919613,3.32011795,57.50722885,8.018310547, 
530,148647773,169.1240845,-72.66464233,112.0581741,9.130318642,-0.249604732,-3.950522423,3.669753075,61.07865906,5.630329132, 
531,148664440,168.7689362,-73.74456024,112.5748215,8.953105927,0.387823552,-3.496201992,8.83577919,64.95379639,5.505411625, 
532,148681107,168.3478546,-74.85391235,113.1794205,8.970002174,0.751502216,-2.973996162,10.11978626,66.8372879,5.45212841, 
533,148697774,167.8792419,-75.97157288,113.7715988,8.989501953,1.01918602,-2.306160688,6.719773293,67.12741089,6.929007053, 
534,148714441,167.2684631,-77.01879883,114.401886,9.311882973,0.928754747,-2.158862352,0.5730986,62.9222374,6.774187088, 
535,148731108,166.5122528,-78.09034729,115.1522522,9.479192734,0.792762399,-1.985093355,-0.965830803,64.4788208,7.016261578, 
536,148747775,165.7441254,-79.1427536,115.8950195,9.323689461,0.817535043,-1.862312675,-1.957081437,63.0676918,8.484282494, 
537,148764442,164.7944641,-80.18950653,116.8257599,9.677305222,0.914639115,-1.640336871,-1.604479074,62.94207764,8.168959618, 
538,148781109,163.6437683,-81.18018341,117.9572067,9.439876556,0.572457075,-1.810773253,-1.621855497,59.84510803,7.484376907, 
539,148797776,161.9855957,-82.11912537,119.5468369,10.12351513,0.237494305,-1.644569039,-4.696426392,57.56843567,5.303153038, 
540,148814443,159.3784332,-83.14202118,122.1463089,9.899345398,0.202327177,-1.410481691,-1.330547929,64.1844635,3.308575153, 
541,148831110,155.8131561,-84.10302734,125.8109131,9.465417862,0.405217111,-0.928248763,5.020126343,62.24909592,1.269875884, 
542,148847777,151.1689911,-84.95150757,130.5639648,9.745804787,0.575395763,-1.066540718,5.628731728,57.33354568,0.259965509, 
543,148864444,143.9508057,-85.80969238,137.9152985,9.809394836,0.357012421,-1.66691637,6.974044323,62.07461929,-0.517844677, 
544,148881111,132.3706512,-86.59274292,149.6071472,9.895561218,0.064819016,-1.683875918,5.589320183,65.44606781,-1.522646904, 
545,148897778,113.739006,-87.18534088,168.4055328,10.13931274,-0.03901723,-1.581357598,8.754374504,69.91129303,-1.969599962, 
546,148914445,87.52477264,-87.3409729,-165.1414795,10.45819855,-0.341525614,-2.143042803,12.95367718,75.22521973,-3.082295895, 
547,148931112,60.87682724,-86.85501862,-138.1690521,10.86731529,-0.113361552,-2.648489952,17.81705284,85.58004761,-3.318739653, 
548,148947779,41.89532852,-85.67274475,-118.8844681,11.00770473,0.5255723,-2.324099541,16.17597198,102.0592728,-5.98032999, 
549,148964446,30.9646225,-83.97634125,-107.6250687,11.08490086,1.191902995,-1.22465384,17.39056587,117.4365387,-9.36938858, 
550,148981113,24.57254791,-82.02262878,-100.9466248,11.17019367,1.252335429,-0.620545506,14.58590031,126.1235428,-9.505927086, 
551,148997780,21.27831459,-80.17224884,-97.31638336,12.01972961,0.870993555,-1.308787107,17.87976456,115.1850357,-10.35858345, 
552,149014447,19.03050804,-78.1036377,-94.764534,14.08905792,2.509359598,-1.403025866,15.82565308,126.3215103,-13.85081673, 
553,149031114,16.86466026,-75.52651215,-92.08209229,12.83910942,2.846281528,-0.513162971,27.07337189,158.3144531,-10.88481712, 
554,149047781,15.563694,-73.05859375,-90.06432343,13.0163269,3.075828791,-0.507978439,38.77220917,151.2999573,-8.032373428, 
555,149064448,14.94053555,-70.76051331,-88.71639252,14.47442341,2.905306578,-1.213733792,39.73886108,139.6627808,-10.19811249, 
556,149081115,14.74459934,-68.71582794,-87.84089661,16.32550812,1.215532899,-4.918739319,37.73973465,123.3495407,-11.9992733, 
557,149097782,14.29170513,-66.43556976,-86.49647522,17.36989784,1.002343535,-8.559854507,47.59098053,140.3808746,-2.697021008, 
558,149114449,13.91463661,-63.77529526,-84.88617706,19.03570366,1.406049728,-10.85779476,65.19604492,165.1079407,2.321517467, 
559,149131116,12.91789532,-60.44797516,-83.12537384,19.83248711,3.051194429,-7.419289589,33.7420311,206.2518463,3.464234591, 
560,149147783,11.7985363,-57.16099548,-81.47969055,17.51270294,1.729936838,-4.471122742,17.43770027,204.386261,9.427109718, 
561,149164450,11.02197552,-54.34818268,-80.6158371,15.79515743,0.733624816,-2.469897509,-3.649179697,172.1516571,-3.163908958, 
562,149181117,11.0085144,-51.55670547,-80.40620422,8.340845108,-1.984249234,-3.068784952,9.304971695,166.9234161,-22.97447968, 
563,149197784,11.14972401,-49.13487625,-80.42765808,2.599617481,-1.34807682,-1.015403986,7.549124718,143.5888519,-27.201931, 
564,149214451,10.79332638,-47.33561325,-80.22723389,3.200408697,1.140166044,6.210021973,-12.3349371,108.666626,-11.17957497, 
565,149231118,10.61155128,-46.25748062,-80.17744446,2.963150501,-0.062717713,8.841639519,-8.650938034,65.05983734,-8.493738174, 
566,149247785,10.86054993,-46.77223587,-80.61367035,0.482470125,-2.22396493,0.254775971,-3.963390112,-32.64930344,-10.43195629, 
567,149264452,10.94298077,-48.12179947,-81.0507431,0.719289839,0.904712081,-2.852817059,-14.26882076,-81.82791138,-0.600811601, 
568,149281119,10.61383533,-49.70244598,-81.26870728,-1.953888178,3.273824215,-2.867194891,-29.51150894,-93.71170044,10.81354904, 
569,149297786,9.987956047,-51.72052383,-81.69179535,-3.905963659,1.830110073,0.639341414,-57.13084412,-120.9446869,7.415275097, 
570,149314453,9.196113586,-54.59566116,-82.30401611,-1.653337359,-1.506057143,1.760487914,-76.835289,-172.7481842,8.674264908, 
571,149331120,8.975254059,-57.94466019,-83.12387085,-0.671260655,-2.515536785,0.502871275,-54.08004761,-201.7510071,6.43230629, 
572,149347787,9.803411484,-61.90398407,-84.52801514,1.312395334,-1.565186262,-0.732482851,-23.1459713,-240.2920074,-1.226229429, 
573,149364454,12.15716743,-66.13124847,-86.97805023,2.921162605,0.002170864,-1.752020478,9.099188805,-260.2521057,-13.24652576, 
574,149381121,16.4426651,-70.61421204,-91.14339447,3.467059612,0.464261025,-1.930261374,24.71394348,-282.250946,-21.17873573, 
575,149397788,24.38778114,-75.56018066,-98.97962952,5.364308834,0.633485377,-2.094545364,26.48179436,-324.1753845,-23.15743637, 
576,149414455,41.90242386,-80.5344696,-116.2302628,9.030275345,0.885796666,-3.549574852,37.08810043,-362.8843384,-15.82016277, 
577,149431122,84.78466797,-83.39253998,-158.1840363,11.85648727,2.771136761,-4.192627907,77.63679504,-378.4856567,-9.605248451, 
578,149447789,131.9882965,-80.99798584,155.7840881,14.49166489,4.179359913,-4.623618126,92.72957611,-387.2282104,-8.61769104, 
579,149464456,153.6134186,-75.55193329,134.8932495,18.34588623,4.471253395,-3.807327747,68.32752991,-408.1135864,9.298330307, 
580,149481123,162.5639954,-69.83800507,126.1785431,26.9315567,2.058599234,-3.044359922,37.22672653,-374.0610046,18.40599251, 
581,149497790,167.4297333,-65.6572876,121.3925171,26.85059357,2.22715354,1.370175004,26.13191223,-269.1920776,41.89779282, 
582,149514457,170.2839508,-62.34416962,118.5169373,23.08550262,2.067907333,10.29544163,16.33535767,-208.7132263,37.54385376, 
583,149531124,171.9558716,-59.25284195,117.7538681,19.21685219,1.093996167,10.11927891,60.61003494,-186.0606995,-4.825828552, 
584,149547791,172.0062256,-57.35439682,118.0778809,18.92300797,1.552390695,9.611881256,19.88609886,-110.9526901,-24.28263092, 
585,149564458,171.6976166,-56.98857117,118.2552872,17.10161781,-0.623348653,10.46874332,-9.223650932,-20.71454239,-7.095871449, 
586,149581125,172.2019196,-58.16429901,118.3524551,15.21388435,0.83064723,9.408761978,35.55430222,70.26977539,8.486884117, 
587,149597792,172.8370056,-59.98551559,118.2736435,14.83792973,1.703205347,8.598596573,34.44079971,107.8330231,18.33534622, 
588,149614459,173.0185242,-61.90865707,118.3640137,10.35512638,0.708311498,-0.456939816,16.04908943,114.4842682,13.2995224, 
589,149631126,174.2910309,-62.08250046,117.923233,5.53164196,2.043010235,-11.22908211,53.41508102,8.602678299,15.20179653, 
590,149647793,176.4169159,-62.50767899,118.3723679,9.392497063,10.81665039,-11.24028397,151.8187866,26.12953568,-8.709010124, 
591,149664460,174.91362,-63.27334976,117.8802795,19.81988144,13.14332199,1.234017849,-116.0324707,44.53752899,18.68406296, 
592,149681127,173.6346741,-65.82823181,116.53228,16.78730202,1.158601284,2.985111952,-149.2699127,148.7020416,51.77655792, 
593,149697794,175.2321014,-66.64975739,114.8044739,12.84226036,-4.31413269,0.835734665,1.439154506,44.5458374,48.24468994, 
594,149714461,176.8709412,-67.9453125,113.6369934,10.21979904,-4.30264616,-5.778973579,34.16518402,75.17711639,34.16581345, 
595,149731128,176.5331726,-69.44815063,113.4849854,6.825746536,-1.184999943,-2.235977411,-28.32731247,89.34249878,10.29020405, 
596,149747795,176.425766,-70.27310181,113.0892258,8.344777107,-2.277835608,-2.584645033,-28.31938362,48.41466904,12.97713947, 
597,149764462,176.9748688,-71.22588348,112.748558,9.717606544,1.300762534,-2.278362274,14.05735207,56.19717789,11.76759911, 
598,149781129,177.4555969,-72.16456604,112.3391266,10.15093994,1.438955665,-2.489445448,5.927045345,55.39233398,12.19432735, 
599,149797796,177.8961029,-73.13665009,111.9215088,9.862689972,-0.493028909,-2.618055582,2.914587975,57.48702621,11.58674431, 
600,149814463,178.2145538,-73.98151398,111.5815353,9.813765526,-0.512750387,-3.085310459,-0.061381396,49.98458099,9.233929634, 
601,149831130,178.4251709,-74.82544708,111.2855759,9.461236954,0.031377245,-4.70445776,-4.074108601,49.9994812,7.98916626, 
602,149847797,178.4998627,-75.90075684,111.0911484,9.472596169,-0.419811487,-5.232460976,-6.417408466,63.96014023,6.402367592, 
603,149864464,178.5166779,-77.17500305,110.9670486,9.532166481,-0.167182639,-3.080257654,-5.849804878,75.95430756,5.438091278, 
604,149881131,178.5542603,-78.41040802,110.8789902,9.240972519,-0.055914521,-1.721212864,-2.529802084,73.64932251,4.718122482, 
605,149897798,178.6812134,-79.57473755,110.7669296,9.700633049,-0.226276845,-2.161135435,1.385856271,69.39234161,4.671535015, 
606,149914465,178.6669006,-80.79562378,110.809288,10.11650181,-0.16133666,-2.290971994,2.013829947,72.83232117,2.956663847, 
607,149931132,178.7397919,-82.17870331,110.795105,9.728444099,0.370414108,-1.670413256,3.903898716,82.55261993,3.692819118, 
608,149947799,179.0545349,-83.49711609,110.547081,9.086512566,1.196235776,-0.721503139,4.47940731,78.65319061,5.064734936, 
609,149964466,179.4807739,-84.72370148,110.2404404,9.145514488,1.186847687,-0.276301414,7.642584801,73.15910339,4.518083572, 
610,149981133,-179.6185608,-85.81539917,109.3913651,9.456485748,0.247338519,-0.44786787,3.618187666,65.10140228,5.974656105, 
611,149997800,-178.1117401,-86.89650726,107.964592,9.399368286,-0.054950818,-0.407364458,5.330382347,64.55264282,5.845128536, 
612,150014467,-175.6444702,-87.92340088,105.6072693,9.514535904,0.261102408,0.608531773,7.106550694,61.44861603,4.713242054, 
613,150031134,-170.861084,-88.81568146,101.0005875,9.764397621,0.262111843,-0.094020441,11.09463692,53.60565567,3.215317965, 
614,150047801,-132.4594879,-89.69739532,62.71366882,10.16526508,0.342153072,-0.812961757,7.308831215,57.38705826,3.876649857, 
615,150064468,-16.17162132,-89.10125732,-53.3944664,10.33809662,0.366982371,-1.170314908,11.11346912,63.88452148,3.209414721, 
616,150081135,-7.663631916,-87.90351868,-61.76819992,10.82484913,0.169877797,-1.508988142,8.630520821,72.39783478,3.615908623, 
617,150097802,-4.456888199,-86.53350067,-64.82454681,10.89069176,0.003345761,-1.713407278,9.574879646,82.27239227,1.495337605, 
618,150114469,-2.130201578,-85.04971313,-66.95339966,11.35516644,-0.330390066,-1.554987073,12.5554285,89.04088593,-2.579246759, 
619,150131136,-0.53888911,-83.55883789,-68.31852722,12.29792023,-0.218558297,-1.737103462,14.32591057,89.26034546,-4.381396294, 
620,150147803,0.661705911,-81.74478912,-69.31256104,11.92923069,0.811380506,-1.207714677,13.22266197,108.4996796,-6.089792252, 
621,150164470,1.87127614,-79.75389099,-70.22853088,11.69053555,1.387136936,-0.165185049,18.65929413,118.9109726,-9.819838524, 
622,150181137,2.906342268,-77.66899872,-70.91571045,11.94997978,0.743300974,-0.271328509,22.00143433,124.3370895,-11.62154961, 
623,150197804,4.105765343,-75.47252655,-71.50145721,12.90486526,-0.006399766,-0.958214462,38.11118317,130.743454,-14.55179024, 
624,150214471,5.41092205,-73.16468811,-71.72628021,13.41893959,-0.101476207,-2.232342005,65.64463806,137.4123077,-13.47131348, 
625,150231138,6.35513401,-70.88613129,-71.59628296,14.3328228,1.621875286,-3.205593109,64.39485168,135.9889374,-9.979341507, 
626,150247805,7.722256184,-68.28453064,-71.30381012,16.4217968,4.01596117,-5.372344017,98.78782654,155.4469452,-11.4166441, 
627,150264472,9.004685402,-65.28246307,-70.93515778,17.21559525,6.498811245,-6.129904747,97.57582855,179.2961731,-15.93367004, 
628,150281139,9.69702816,-62.03944778,-70.30169678,18.15858841,6.644032955,-5.75178194,75.8959198,194.5944672,-13.32942104, 
629,150297806,9.562019348,-58.87607574,-69.48694611,16.85682106,3.744983435,-2.566712856,34.71688461,191.0641937,-6.335067749, 
630,150314473,9.018416405,-56.10865021,-69.00354767,17.27049065,1.587488413,-2.643959999,-7.874731064,166.3209686,-9.778222084, 
631,150331140,8.246242523,-53.69413757,-68.83521271,14.58433151,-2.392569065,-3.502829552,-37.78746033,144.0707092,-14.36353111, 
632,150347807,7.961896896,-51.15628815,-69.15848541,7.42023468,-1.96117413,-3.553693533,-32.15340805,149.0797729,-31.55290222, 
633,150364474,7.818217278,-49.32335281,-69.71981049,2.969026804,-1.838236094,1.905511379,-34.23094177,105.9854202,-34.82184601, 
634,150381141,7.693901539,-47.90982819,-69.94197845,2.765852451,-3.869392157,4.668250084,-17.16789246,82.83887482,-18.56570435, 
635,150397808,8.05893898,-46.95162964,-69.96904755,3.023374796,-2.940894127,8.124664307,21.0082283,56.7696228,-7.369061947, 
636,150414475,8.982012749,-46.86149979,-70.30797577,1.469370127,-2.527134895,2.295286894,40.84922028,3.2301085,-12.95236206, 
637,150431142,10.04989529,-47.43682861,-70.68412018,1.35900104,-0.694593072,-1.014265537,47.85360718,-36.65453339,-7.847334385, 
638,150447809,10.62609863,-48.49230194,-70.88290405,-0.770760417,1.575790524,-1.868211269,26.04126358,-63.81221771,5.085071564, 
639,150464476,11.06405735,-49.96603775,-71.16165924,-2.790555954,2.418342829,-1.222426534,13.93151093,-88.98478699,7.49093771, 
640,150481143,11.54229355,-52.02064133,-71.61225128,-1.566481471,2.439056635,2.007094622,8.00450325,-124.3184586,9.069077492, 
641,150497810,12.09897137,-54.78891754,-72.2791748,1.008739233,1.057070494,2.240097523,1.577367783,-167.5774841,12.27031231, 
642,150514477,13.12663937,-58.0461235,-73.33416748,2.019233704,0.510470867,0.66507715,9.214371681,-198.4853058,10.10365295, 
643,150531144,14.77633286,-61.76004028,-74.9615097,2.223123789,0.405063182,-0.78151381,14.77036095,-228.182251,7.800731182, 
644,150547811,17.38657379,-65.89602661,-77.42056274,2.933405399,0.394803673,-1.661442518,24.41306686,-256.5612793,7.792178631, 
645,150564478,21.53992653,-70.38852692,-81.2026825,4.505783081,-0.197780326,-1.175953865,38.70776749,-282.3062134,11.71046829, 
646,150581145,29.41559219,-75.37941742,-88.37667847,7.124789715,-1.220548391,-1.778179407,61.00781631,-324.4303589,15.8453064, 
647,150597812,46.48033142,-80.23942566,-104.4473343,10.40638828,-0.535162807,-3.174849749,80.5352478,-352.7090149,19.06974792, 
648,150614479,85.36466217,-83.13264465,-141.9082947,12.55135822,1.321362257,-4.8372159,106.9661636,-358.8372192,21.42572784, 
649,150631146,131.4748383,-81.42845154,173.1274414,17.20095062,1.672053099,-4.563201904,90.77864838,-365.2125549,23.56190872, 
650,150647813,153.0082092,-77.46842194,152.5453033,25.44540977,3.119290352,-0.999276638,77.06697845,-322.7533264,36.30703735, 
651,150664480,164.7717743,-73.81574249,142.0539551,24.8045311,2.430376768,2.64692688,95.87054443,-259.8989563,68.43190765, 
652,150681147,171.9516907,-70.22080994,135.7336884,22.61001778,0.374340326,6.305748463,70.17790985,-234.72789,72.76959991, 
653,150697814,176.5131836,-67.13568878,132.4358673,19.04229927,0.92307353,10.07059193,89.60525513,-191.5420227,54.57012939, 
654,150714481,179.1404114,-64.87569427,131.916687,17.71092415,1.095102668,9.531658173,129.5061188,-136.2552795,9.094086647, 
655,150731148,-179.391861,-63.84265137,132.470871,16.34481239,2.715877056,8.655747414,118.3870544,-62.27030182,-12.93900013, 
656,150747815,-178.3429108,-64.06686401,132.7887726,14.44483471,7.836335182,10.65116692,80.43089294,12.91837025,-7.045476437, 
657,150764482,-177.4192657,-64.61745453,132.47612,14.04645443,7.108634949,10.04571533,38.87571716,32.9021759,8.515388489, 
658,150781149,-177.458725,-66.32607269,131.9986877,14.46016979,7.569573402,8.656373024,-28.06182098,102.4938354,8.942217827, 
659,150797816,-177.542099,-67.27061462,131.9986115,7.99481678,3.99680686,-2.846621037,-4.634681702,56.13062668,-0.806014955, 
660,150814483,-177.5198212,-67.80132294,131.2818298,6.225467682,1.773486614,-13.65287495,-38.03936005,32.03910828,16.72003937, 
661,150831150,-175.2603302,-67.08641815,131.0295715,14.79755688,-0.030347571,-11.78042221,121.9546967,-42.89280701,10.17239857, 
662,150847817,-178.2222748,-70.62994385,130.3744202,28.04450989,11.40234375,12.64136982,-213.963974,212.6745758,3.747796535, 
663,150864484,-179.5393982,-72.18147278,129.9413452,6.748332024,-2.905102968,-5.0157547,-103.2901535,92.75015259,8.167468071, 
664,150881151,-177.4013062,-73.11779785,129.1433258,8.975627899,-1.339154363,-2.726504087,82.93283081,56.06097031,14.46321106, 
665,150897818,-176.5585785,-74.90148926,128.3833771,6.303151131,-0.934659898,-0.072314575,7.077032566,107.0640869,8.587257385, 
666,150914485,-176.3427277,-75.75962067,127.8736038,7.859668255,-0.412542373,-0.508978903,-16.28686142,51.39184189,6.219769478, 
667,150931152,-175.5751038,-76.37950134,127.2566986,10.18987083,-1.726059556,-0.275859356,10.48243332,37.26574326,7.941305637, 
668,150947819,-174.8695068,-76.76147461,126.9548569,9.996818542,0.518307805,-0.445027769,25.07048225,22.71993256,3.948066235, 
669,150964486,-174.3881531,-77.02077484,126.5847015,9.602954865,0.926768005,-2.131811142,7.601376534,15.49550152,5.223594189, 
670,150981153,-173.7918396,-77.3501358,125.9337616,9.570775032,0.059174024,-1.681960702,-1.957850695,20.0871315,8.249051094, 
671,150997820,-173.320694,-77.51319885,125.4000854,9.213672638,0.313348681,-0.987872124,-2.634279966,10.04339123,7.491455555, 
672,151014487,-172.8700714,-77.47914886,125.008049,9.422621727,0.003041309,-1.655651569,4.421079159,-1.871430635,6.964932919, 
673,151031154,-172.397171,-77.48351288,124.6370773,9.564094543,-0.081561737,-2.126142979,6.990059376,0.425228566,6.414452553, 
674,151047821,-172.0729523,-77.53536224,124.4151382,9.383047104,-0.636101425,-2.130167246,6.795607567,3.021613836,4.095413685, 
675,151064488,-171.8621216,-77.60710144,124.3619003,9.065199852,-1.095818639,-2.105187654,9.877625465,3.91693306,1.738776684, 
676,151081155,-171.8600159,-77.63056183,124.6170883,9.239535332,-1.271139264,-2.560548544,15.43050575,0.489222169,-1.794747472, 
677,151097822,-172.0213013,-77.76129913,125.0934982,9.688930511,-0.942245007,-3.150071383,18.59628677,6.480335236,-5.479549885, 
678,151114489,-172.2149506,-78.06504822,125.6275635,9.693557739,-0.832867444,-3.359858274,20.06256294,16.70556068,-7.497983456, 
679,151131156,-172.7015991,-78.53930664,126.4593964,10.03916645,-1.252671361,-3.441519022,20.02539825,26.45597839,-12.12118721, 
680,151147823,-173.2487793,-79.22106934,127.3802872,10.13434219,-0.164959684,-2.271597147,21.73254776,38.88232803,-13.93739796, 
681,151164490,-173.6262207,-79.8970108,128.0868073,9.805858612,0.461375445,-1.768732309,19.3931942,39.00229645,-10.62823009, 
682,151181157,-173.7086945,-80.54418945,128.5996552,9.768548965,0.269914269,-2.47248888,25.72752762,37.60513306,-7.836877823, 
683,151197824,-173.7980042,-81.31479645,129.0595703,10.13376427,0.002170543,-3.736161232,22.23688698,45.08417892,-7.713348866, 
684,151214491,-173.9432678,-82.22014618,129.5428925,10.47740364,-0.41340661,-4.392416954,20.33478355,53.17056656,-8.287611961, 
685,151231158,-173.8278046,-83.53543091,129.8439178,10.8255043,0.248461962,-1.712664366,25.19128609,77.85301971,-8.994306564, 
686,151247825,-174.155014,-84.5949173,130.5753021,10.22999954,-0.341022164,-1.558145285,24.37276459,62.34430695,-9.527181625, 
687,151264492,-174.2127991,-85.79271698,131.1316223,10.59002686,-0.457836747,-3.066781759,30.14402199,70.8300705,-8.428138733, 
688,151281159,-172.561554,-87.22618103,130.1494446,10.32973671,-0.202067092,-2.346504688,40.58969879,85.47775269,-4.705022812, 
689,151297826,-167.2519989,-88.58583832,125.3552246,10.35801697,0.505080223,-1.415803075,31.45537376,81.6853714,-2.296970606, 
690,151314493,-68.46074677,-89.28018188,27.85681915,12.34580898,1.224134922,-4.660653114,78.35827637,97.68061829,22.41087341, 
691,151331160,-22.17016411,-87.27100372,-17.29816055,12.55831146,3.436514854,-3.876074076,69.21846008,134.3956451,24.82880592, 
692,151347827,-15.78382587,-84.85951233,-22.50557518,14.33137703,1.407121778,-4.09158659,71.72816467,143.3127441,28.37269402, 
693,151364494,-13.55302429,-82.72360229,-23.52672768,16.82831192,3.17789197,-8.229002953,73.25324249,125.3173218,27.68219566, 
694,151381161,-10.26360321,-79.68557739,-25.6678791,20.00374222,5.23491621,-3.619317293,70.66654968,182.0830078,20.03192139, 
695,151397828,-9.709623337,-76.94574738,-25.10418892,13.57054996,-2.358251572,-4.213016033,66.66426849,160.4247437,36.90841293, 
696,151414495,-9.197022438,-74.22281647,-23.40494156,11.8683567,-6.225832462,-4.342199802,129.8110046,156.7158813,53.51689911, 
697,151431162,-8.16085434,-71.76816559,-21.32697296,8.359132767,-7.864531994,-1.824360132,181.7148743,139.8345947,59.89682007, 
698,151447829,-5.577159882,-69.94116211,-19.22899055,3.415214539,-7.812721729,-4.486352921,274.2624207,103.6606522,55.71251678, 
699,151464496,-1.767661929,-69.33950043,-17.18264771,3.255242825,-1.65934515,-9.403728485,344.0215149,33.06785965,46.5340271, 
700,151481163,3.030822515,-69.27494812,-16.29437637,1.212537646,8.218929291,-11.06477261,338.1175232,3.869832516,20.35902977, 
701,151497830,7.915744305,-69.34252167,-15.78325939,-0.676321626,16.71448135,-7.215087891,322.1150818,-3.198392391,12.74222851, 
702,151514497,10.35698605,-70.84596252,-14.55734253,-0.22977671,18.41977692,-2.058466673,215.9198151,-85.28005981,40.63928604, 
703,151531164,11.154706,-73.21807861,-13.44690418,2.104005575,15.21603584,-3.482885361,111.5038452,-136.1729736,48.37437439, 
704,151547831,11.21641636,-76.32665253,-12.91669655,1.802936673,12.13838291,-2.260686874,34.64450836,-181.5252075,46.02997208, 
705,151564498,12.1501255,-80.31288147,-14.28277588,3.767664433,7.630273342,-2.871128321,-24.05016518,-237.7349243,33.85949707, 
706,151581165,18.1136055,-84.44374084,-20.83802795,6.594044685,3.575786114,-3.561565876,-32.04757309,-252.6519318,15.95802212, 
707,151597832,64.32884979,-87.92472839,-67.21562958,8.969765663,2.158641815,-3.068510294,-5.133017063,-263.3338928,-7.351209641, 
708,151614499,146.6288452,-85.64837646,-149.3151855,11.30074501,2.643814087,-2.422272921,16.95228386,-271.6952515,-29.93859863, 
709,151631166,160.3024445,-81.128479,-162.6489563,13.62385559,2.025730133,-1.932515144,25.28100967,-282.2196045,-36.3318634, 
710,151647833,164.9463806,-76.55069733,-166.4193573,17.65081596,-1.322342277,-3.091870785,56.74259567,-275.2419434,-38.43677902, 
711,151664500,166.8326111,-72.72002411,-166.5686798,19.30088615,-0.684282362,-1.585643291,104.7512817,-223.665329,-51.98646164, 
712,151681167,168.5193939,-69.38829803,-165.8535614,15.97003365,1.710229516,0.364203632,142.043396,-192.5184021,-54.54757309, 
713,151697834,169.9131622,-66.10033417,-164.9667206,13.41833687,1.14051652,0.359149635,133.1480713,-190.2244415,-54.98495483, 
714,151714501,170.7342987,-63.14300919,-163.8381195,13.72990322,1.810155749,0.066360325,110.7471542,-170.2485352,-56.71593475, 
715,151731168,171.6319885,-60.6509552,-162.8458252,13.26031303,2.99448061,0.48807475,106.687233,-143.6853485,-48.91801834, 
716,151747835,172.4354095,-58.844841,-162.2004242,13.29827118,4.276949883,1.397939324,81.97930145,-104.865799,-32.62730789, 
717,151764502,172.5104675,-57.94433212,-161.6869202,12.83865166,5.096194744,4.180756092,31.08434486,-51.71839523,-21.37044334, 
718,151781169,171.9528961,-57.75352478,-161.3342133,12.38045311,4.250799656,5.469653606,-15.18303967,-10.11758327,-10.9888258, 
719,151797836,170.9565125,-58.24950027,-160.9032288,13.03483391,1.970091224,4.416341782,-37.48213196,31.1368103,-7.41465807, 
720,151814503,169.5743256,-59.45422745,-160.1459198,13.03794479,0.795940876,4.655691147,-43.65924072,74.85861969,-9.233650208, 
721,151831170,168.3578339,-60.96604919,-159.3337708,13.17291069,-0.980739355,3.071696281,-30.30431938,93.2821579,-4.704149246, 
722,151847837,169.509201,-62.46793365,-159.5262756,7.299053669,-11.2286377,-10.19046783,59.30032349,86.98165131,24.35388184, 
723,151864504,173.1738434,-62.34660339,-159.9904022,5.686820984,-8.081323624,-14.49550915,195.5765686,-9.522417068,13.31225872, 
724,151881171,174.9702454,-62.71071243,-159.3149109,14.31469822,8.304748535,-2.188165903,144.105957,23.3070507,-14.70562267, 
725,151897838,173.7821045,-64.07951355,-159.5926361,12.17408085,4.882756233,-0.74415946,-85.80740356,80.63415527,17.1298542, 
726,151914505,174.1148224,-65.07525635,-160.2573547,12.24036217,4.11298418,0.357416302,-15.67753124,57.22544098,24.98563576, 
727,151931172,174.6194916,-65.58631897,-160.9330444,11.27421761,3.328648567,-1.99440825,-6.175289154,28.45922661,21.51735878, 
728,151947839,175.4626007,-66.51535034,-161.5532074,12.19654274,-1.360371232,-5.774705887,16.96669197,53.82558823,21.54039764, 
729,151964506,176.4316101,-67.82391357,-161.953537,9.527480125,-2.330626965,-2.91108346,36.38136673,77.25666046,16.51486206, 
730,151981173,177.6323242,-68.84519958,-162.8738861,9.433062553,-2.081513405,-2.216386795,21.10414124,59.73934174,25.1913147, 
731,151997840,178.055542,-69.68257141,-163.3382721,8.428841591,-0.003817556,-3.41460681,-0.283733726,49.43066025,13.40167522, 
732,152014507,178.3009644,-70.41468048,-163.7099152,9.198523521,-0.64911449,-3.423909426,-5.852901936,43.25970459,10.65127754, 
733,152031174,178.7070313,-71.22486115,-163.7514496,10.30610085,-0.493187338,-4.171406746,22.392416,48.17489243,3.7354002, 
734,152047841,179.1092834,-72.28183746,-163.7495728,10.27617645,1.345406651,-2.999808073,24.61996651,63.00970459,2.819856167, 
735,152064508,179.5016022,-73.40039063,-163.9334869,9.919922829,0.549957156,-2.68662715,13.37250137,66.67251587,5.720235825, 
736,152081175,179.8370361,-74.40130615,-164.0792389,9.360044479,0.061439298,-3.276388645,12.10152435,59.6464119,4.422314644, 
737,152097842,-179.8907471,-75.35694885,-164.1039276,9.349341393,-0.437389046,-3.640314102,15.27901363,56.93878174,2.065593481, 
738,152114509,-179.6919861,-76.38915253,-164.0898438,9.349241257,-0.482730478,-3.500290394,13.11939716,61.54400635,1.217868805, 
739,152131176,-179.4720306,-77.47161865,-164.1241455,9.277704239,-0.186059341,-2.776078224,11.56449509,64.56546021,1.64046061, 
740,152147843,-179.3151855,-78.49643707,-164.1140594,9.222050667,-0.14073585,-2.470579624,10.36769962,61.09534454,0.872649252, 
741,152164510,-179.1425934,-79.48974609,-164.0846863,9.611552238,-0.119832501,-2.282691002,12.45568657,59.2119751,0.509526372, 
742,152181177,-178.9987488,-80.50006866,-164.0895386,9.603431702,0.161462247,-2.008502483,8.710181236,60.22914886,0.714533269, 
743,152197844,-178.9975891,-81.50502777,-163.9499054,9.713407516,0.179573908,-2.101265907,8.710057259,59.88397217,-0.716876686, 
744,152214511,-179.1161652,-82.56951904,-163.6360626,9.675089836,0.444997668,-1.764955759,11.90032864,63.44990921,-2.011484861, 
745,152231178,-179.3757477,-83.62976074,-163.3078308,9.239202499,0.797211885,-1.457867146,4.34001112,63.20180893,-1.554008484, 
746,152247845,-179.8830261,-84.51791382,-162.9664612,9.817955971,0.51192385,-1.400435448,-9.702606201,52.89595413,-0.808377087, 
747,152264512,-179.7458038,-85.57446289,-162.9301758,10.15696335,-0.164425328,-1.279443026,10.76021576,63.02806473,1.258536458, 
748,152281179,-179.7120972,-86.54911804,-162.7255249,9.977663994,0.120474577,-1.204517007,14.62453175,58.08062363,0.531822443, 
749,152297846,-179.6307983,-87.58938599,-162.5266724,9.94498539,0.444845498,-1.288384795,17.15712738,62.06545258,0.68359381, 
750,152314513,-179.8261719,-88.6620636,-162.0769043,10.04290104,0.394596845,-1.490043759,15.58809566,63.94807053,0.46535787, 
751,152331180,177.6166534,-89.87646484,-159.2371216,9.994423866,0.215385407,-1.485135913,17.11618614,71.86188507,0.856255293, 
752,152347847,-0.178011611,-88.8868866,18.76094437,9.726827621,0.27810818,-1.124732256,12.79006863,74.63339233,2.305221558, 
753,152364514,-0.270140678,-87.60102081,19.00988579,10.28444672,0.029276436,-1.351232409,9.733050346,76.75424957,2.413195848, 
754,152381181,0.408107638,-86.19553375,18.59275436,10.89090061,-0.269508451,-1.629138231,16.04440689,83.97770691,0.197639063, 
755,152397848,1.161589742,-84.64733887,18.21130371,11.42381096,-0.307941526,-1.917185664,22.72450066,92.50626373,-1.447855353, 
756,152414515,2.006757021,-82.93242645,17.86678886,11.53510761,0.67702198,-2.142490864,30.49201775,102.4707031,-3.430306673, 
757,152431182,2.349560022,-81.1520462,17.89373016,11.55674553,2.176676035,-1.905966282,22.497118,106.4304657,-2.185238838, 
758,152447849,2.521988153,-79.15823364,17.97208214,11.95007706,2.674577236,-1.268297434,15.29761219,119.2449112,-2.625691891, 
759,152464516,2.546434641,-77.08335114,18.14584923,12.1835041,1.438779235,-1.083351731,11.98337841,124.1712952,-1.698221564, 
760,152481183,2.553259373,-74.89845276,18.53695297,13.06887436,0.251808375,-2.325502872,23.48411942,130.9299622,1.507068157, 
761,152497850,2.880017757,-72.47647095,19.00330544,13.54022217,0.475792527,-2.415443897,46.74961853,145.2600861,2.62191844, 
762,152514517,3.65708065,-70.03871918,19.3382206,15.44637489,0.635298193,-3.383089781,65.93305969,146.1510315,-0.238328561, 
763,152531184,5.495736599,-67.62503815,19.13496208,17.57873917,1.803467751,-6.435332775,99.19865417,143.7912292,-14.29978275, 
764,152547851,7.47470808,-64.8319397,19.18434525,18.16949463,3.68351531,-11.19260216,121.6786194,166.4820557,-16.10442162, 
765,152564518,8.146280289,-61.53930283,19.76496506,19.76411247,6.021925926,-6.267144203,71.58998108,197.7396545,-9.653467178, 
766,152581185,7.526035309,-58.23135757,20.48064613,19.04191399,3.250127554,-3.840577602,0.128952429,199.4854584,-4.09427166, 
767,152597852,6.610906601,-55.15361786,20.97974586,17.73654747,-1.372246861,-6.004635811,-29.69739723,185.2507782,-4.790547371, 
768,152614519,6.541527748,-52.05800629,20.71118546,14.10762882,-4.270312786,-7.58608675,-16.99407768,183.4383545,-29.19120026, 
769,152631186,7.152861118,-49.18189621,20.01455688,5.87547636,-1.115488172,-2.911926746,4.498276234,168.2342072,-45.35514069, 
770,152647853,6.760822296,-46.78598785,19.68436623,2.229534626,-3.083517551,3.152825117,-38.10813141,141.1697388,-29.04350853, 
771,152664520,5.408871651,-45.26276398,19.90921021,3.398310661,-1.668829441,9.821237564,-71.25225067,91.94896698,1.155559421, 
772,152681187,5.336025715,-45.11968994,19.57971954,0.903358698,-3.097061157,-1.412487149,-18.23026466,7.298122883,-13.13978195, 
773,152697854,6.421875954,-45.90815735,18.72834396,0.968850255,-2.634374857,-5.077781677,28.87604904,-50.66360092,-29.23609924, 
774,152714521,7.68605566,-46.78925705,17.68561935,-0.465052068,1.972758174,-4.023183823,30.74977112,-57.69678116,-34.84823227, 
775,152731188,8.449792862,-48.03431702,16.657547,-4.773871899,4.014293671,0.633622289,0.562776566,-79.74475098,-29.3206501, 
776,152747855,8.959084511,-50.5860672,15.28581715,-3.350371599,2.13754487,2.6299963,-31.71642113,-159.3982544,-28.32330894, 
777,152764522,9.812916756,-53.81021118,13.61678982,0.541360974,0.81421715,0.511434019,-27.78297043,-200.8164673,-27.44218063, 
778,152781189,11.22362137,-57.47893143,11.46741772,2.168392181,0.528287411,-0.581844509,-21.7342701,-229.6438904,-29.78591156, 
779,152797856,13.44654083,-61.58711243,8.49946785,3.668984175,0.41160956,-1.408487797,-20.08552551,-259.9822083,-33.96361542, 
780,152814523,17.10077286,-66.03738403,4.209937096,4.516579628,-0.10380847,-2.195086241,-11.76963043,-287.2970886,-37.64805222, 
781,152831190,23.38326836,-70.84337616,-2.31298089,6.392809391,-0.613535464,-2.81925106,12.6932621,-319.8274536,-33.6448822, 
782,152847857,34.58437729,-75.70503235,-13.47314072,8.997107506,-0.619942307,-2.827475548,30.13082314,-347.1935425,-26.01532745, 
783,152864524,56.95913696,-79.67690277,-35.29637909,10.9610281,0.231997311,-3.923101425,61.78773499,-362.0951233,-24.22365189, 
784,152881191,94.91433716,-80.9083252,-72.42478943,13.8461647,1.830112219,-4.512303352,79.26737213,-375.1434021,-20.06754112, 
785,152897858,128.1390228,-78.27436066,-105.1666107,17.3762455,2.076248407,-4.031295776,59.1643219,-381.4093323,-10.86321259, 
786,152914525,146.4421387,-73.64048004,-123.0144272,23.23286057,2.748131514,-2.11841321,58.04437637,-377.3728333,5.637403965, 
787,152931192,156.6114044,-68.991539,-132.4591064,25.57045555,1.764541984,-1.71813643,72.84762573,-330.7626648,28.64921188, 
788,152947859,162.6229706,-65.23313904,-137.9500732,22.82575607,1.24984169,2.19242382,57.10863876,-255.6924438,43.36478806, 
789,152964526,166.5238953,-61.52642059,-140.9346924,17.20319748,3.755940914,6.964844227,74.02573395,-235.6349487,19.93069267, 
790,152981193,168.3793793,-58.13663101,-142.219635,19.06650734,6.102273941,7.280398369,44.86204529,-206.9628906,-4.655101299, 
791,152997860,167.8991547,-55.93558121,-143.2693481,19.74332237,3.42615962,11.47721672,-81.39640045,-136.3873138,8.115973473, 
792,153014527,167.4970551,-55.32718277,-144.1396179,18.42977715,-0.483173549,11.88918591,-66.9211731,-42.14106369,22.72471046, 
793,153031194,167.0336151,-56.53354645,-144.1725616,16.73470688,-0.712237298,11.02843094,-29.11156845,70.07479095,18.70552826, 
794,153047861,166.4270172,-58.67058182,-143.8147736,15.03624725,-0.364290416,13.04234219,-17.91317749,127.0782928,19.87714195, 
795,153064528,166.3272247,-60.27747726,-143.5658569,12.65750504,-0.325777382,-0.975649178,7.264942646,95.05247498,16.94614601, 
796,153081195,166.9733582,-61.5994072,-143.5414429,4.604170322,0.060360879,-13.6889677,40.43119049,76.88411713,19.223629, 
797,153097862,169.5923462,-61.66430283,-142.9555511,6.962306023,10.24139786,-13.71950054,188.4379578,6.796526909,-13.95578766, 
798,153114529,167.7047882,-63.09981537,-142.5324249,20.77557182,18.9910965,2.55350709,-90.3760376,86.39169312,7.069962502, 
799,153131196,164.7319641,-66.15187073,-143.0075073,17.24003983,1.776618004,4.306921959,-203.6897736,174.5321045,57.21733856, 
800,153147863,166.1879425,-67.42171478,-144.0033569,14.48147392,-0.852123141,-0.327004939,32.8611412,67.36132813,43.62451172, 
801,153164530,167.1835785,-69.23899078,-144.3404999,10.38543892,-2.810994864,-6.139592648,41.3434639,103.8964844,34.07046127, 
802,153181197,166.8911896,-71.70854187,-144.8864288,7.966451645,-5.289362907,-1.731706142,-48.01718903,141.4588928,45.5837059, 
803,153197864,165.8755798,-73.53611755,-144.6131592,5.899775028,-4.640041828,1.000326276,-44.89136124,107.2474136,22.70505905, 
804,153214531,164.3230896,-74.46624756,-143.4994354,10.68129063,-1.299722552,2.405187368,-28.51378441,58.18822479,-1.824611664, 
805,153231198,163.2149048,-74.89501953,-142.1015015,11.25467777,2.301046371,0.058065005,14.8075943,30.39958763,-12.47207069, 
806,153247865,162.9573059,-75.47360229,-141.460144,10.99440956,5.950498581,-1.943730354,22.15327263,35.5786972,2.303447485, 
807,153264532,163.0735016,-76.42858887,-141.5272217,9.641154289,3.194054842,-4.311984539,3.468134165,54.01488113,19.31407356, 
808,153281199,162.8506927,-77.5786972,-141.6929626,8.580032349,0.571574211,-2.53020072,-22.66180611,64.83964539,24.01105309, 
809,153297866,162.1024323,-78.33561707,-141.4334412,9.759570122,-2.610394478,-1.428694606,-29.27489853,43.80591965,12.22708416, 
810,153314533,160.8001251,-79.11993408,-139.9081879,10.13420582,-2.50842309,-1.580772519,12.0059557,49.82537842,-0.352818221, 
811,153331200,159.5070953,-79.7689209,-138.0729523,9.069932938,0.633351505,-1.45874393,31.06124496,42.99780273,-4.129845619, 
812,153347867,158.2815247,-80.34984589,-136.6111908,8.593679428,2.470769882,-2.031476498,13.24727631,37.50226593,0.052320637, 
813,153364534,156.7483978,-80.98812103,-135.1590424,9.217803955,1.561933279,-2.265456438,-5.619932652,40.32682419,3.226904869, 
814,153381201,154.5612793,-81.72697449,-133.1134644,9.643313408,0.052364841,-1.940956712,-9.499894142,47.53220749,3.107134342, 
815,153397868,151.7835693,-82.41933441,-130.3062286,9.523320198,-0.500063539,-2.143549681,0.547072291,47.08768845,-0.351460159, 
816,153414535,147.9979401,-83.12525177,-126.3813858,9.704527855,0.327166438,-2.177883387,6.869640827,51.04366302,-2.757425308, 
817,153431202,143.1905212,-83.85608673,-121.5192184,9.766222,1.411509991,-1.51431787,1.789597154,54.3967247,-0.893444359, 
818,153447869,137.3031464,-84.57079315,-115.660553,9.953798294,1.60807538,-1.384955645,-3.131173372,55.15639496,1.784001231, 
819,153464536,129.3292084,-85.24762726,-107.7674408,10.04741669,1.159891248,-1.550910592,-6.333065033,57.92528534,2.306528091, 
820,153481203,117.820343,-85.82965088,-96.35769653,10.00878429,0.754403889,-1.193300247,-7.627594948,63.10048294,1.186249733, 
821,153497870,103.0635529,-86.17101288,-81.65986633,10.08738232,0.411770374,-0.944362819,-5.294773102,64.17095184,-0.760388136, 
822,153514537,85.74926758,-86.18772125,-64.31659698,10.19479275,0.044168022,-1.421436667,-0.166895092,68.55397797,-2.680656433, 
823,153531204,68.06053925,-85.80656433,-46.50422287,10.07417965,0.49577564,-1.902348161,5.216578484,77.10487366,-3.522537947, 
824,153547871,53.35200119,-85.04058075,-31.75315285,10.31436062,1.333874702,-1.922758698,0.14419663,83.3391037,-3.654458284, 
825,153564538,41.83699417,-83.90934753,-20.34094429,10.83569241,1.600911856,-1.313323498,-8.937499046,93.77497101,-3.84278059, 
826,153581205,33.54718399,-82.45832062,-12.09272957,10.59623909,1.04804647,-0.694154918,-5.596219063,104.2243271,-5.004940033, 
827,153597872,28.06913567,-80.84270477,-6.551630974,10.5968132,0.59329319,0.012769818,0.643141985,107.5162048,-6.496312141, 
828,153614539,25.03582573,-79.29817963,-3.329631567,11.3322506,1.179427743,-0.639659107,8.790258408,97.40655518,-9.950725555, 
829,153631206,22.68273163,-77.47298431,-0.884051919,12.38805771,3.092455864,0.097251549,2.901101112,111.7320023,-15.63048553, 
830,153647873,20.75432777,-75.59776306,1.030988097,12.30138779,2.114607811,-0.549919724,-3.608856916,114.062645,-15.12398052, 
831,153664540,19.15469933,-73.46809387,2.72149682,13.10599327,0.828693688,-0.640950799,2.124168634,128.996994,-16.52987289, 
832,153681207,18.31955528,-71.24608612,4.093119621,12.99976826,0.546773732,-0.876827836,28.65457344,133.9403229,-17.55724907, 
833,153697874,18.30564499,-69.09481049,4.964102268,14.69672871,1.704717517,-2.741735458,48.65031433,127.8038406,-22.08450508, 
834,153714541,18.31698036,-66.69076538,5.997881413,15.82953739,2.722622871,-5.757013798,58.45513153,143.9857483,-21.52051353, 
835,153731208,18.37932968,-64.02297211,7.019158363,17.40848351,4.286967754,-7.127971172,59.74162292,159.7200317,-24.49863243, 
836,153747875,18.22062302,-61.1823082,7.824829578,18.28277397,4.742768288,-8.450484276,33.67012787,168.5881653,-30.76913452, 
837,153764542,17.47083855,-58.08217239,8.72890377,19.90167236,5.003748894,-7.269610882,2.079970598,185.2870483,-29.27254868, 
838,153781209,15.87476158,-54.7586174,9.83544445,19.77871704,2.146996498,-4.79493475,-40.19482803,201.4307861,-20.414217, 
839,153797876,14.01392746,-51.61395264,10.46131134,17.02685547,0.392196,-3.920408964,-81.34844208,188.0114288,-25.31422615, 
840,153814543,12.9636488,-48.69189835,10.52471924,7.426506042,-3.570477962,-5.975842476,-59.87838364,170.9978638,-36.93317032, 
841,153831210,12.38397884,-46.33574295,10.11090946,3.366189957,-3.482305288,-0.959408641,-52.87968445,134.2065735,-45.80239487, 
842,153847877,11.76229858,-44.52297974,9.76216507,3.133516073,-0.611644924,3.236055851,-51.99062347,103.247818,-35.54532242, 
843,153864544,10.66682625,-43.10250092,9.583708763,5.493275166,-0.081237517,10.19871616,-72.90730286,82.05044556,-22.57850647, 
844,153881211,9.924165726,-42.69559479,8.818749428,2.275675774,-2.030096769,5.230186462,-75.56755829,17.94150734,-35.86877823, 
845,153897878,9.835116386,-43.3949585,7.595791817,2.34358573,-2.637289762,-0.736090958,-55.18647766,-50.62142181,-44.0534668, 
846,153914545,9.592069626,-44.72913361,6.403611183,1.412609458,1.109766364,-2.108543873,-64.06386566,-87.65429688,-35.56441116, 
847,153931212,9.36496067,-46.37928391,4.989500523,-2.337995768,2.097859383,-3.0437994,-73.95307159,-107.5204163,-40.70436096, 
848,153947879,9.361153603,-48.55124283,3.163152218,-2.109101534,-0.434634715,-0.186619714,-80.74330139,-140.7146301,-50.29135895, 
849,153964546,9.630802155,-51.39949799,1.090102434,-0.096043706,-1.470382333,1.567866921,-78.83399963,-181.8347473,-49.08324432, 
850,153981213,10.54441929,-54.81158066,-1.46410203,2.317264557,-0.143084571,0.644876122,-67.54185486,-217.7518158,-53.11214828, 
851,153997880,12.4581461,-58.56207657,-4.838780403,3.991135836,0.016618948,-1.130904794,-54.21194077,-242.721756,-62.48374557, 
852,154014547,15.83903503,-62.55776978,-9.561555862,4.697825909,0.660085499,-1.866585851,-43.84138489,-266.4539185,-74.84646606, 
853,154031214,21.32931137,-66.65397644,-16.36878014,5.382975578,1.178093076,-2.505724192,-39.59618378,-288.491333,-86.11592102, 
854,154047881,30.24587059,-70.84427643,-26.52696037,6.906456947,1.637174129,-2.996022701,-33.35829163,-321.6555786,-88.09008789, 
855,154064548,44.51916122,-74.66227722,-41.89429474,9.732812881,3.380606413,-2.538940907,-24.8721981,-346.0904236,-77.11305237, 
856,154081215,65.25872803,-76.9849472,-63.56539536,12.81412506,5.05518961,-3.472988367,-17.20411873,-337.9137268,-68.43704224, 
857,154097882,90.07542419,-77.06620789,-90.09921265,17.35605812,6.00130558,-2.69678998,-63.48039246,-347.3432922,-69.33744812, 
858,154114549,109.405777,-75.00099182,-112.1869583,22.00748825,8.723760605,0.508342505,-127.0503845,-334.1236267,-64.35848236, 
859,154131216,122.9273453,-71.48983002,-129.0056305,20.43484688,8.90237236,-0.420128256,-155.63237,-352.3491516,-57.44926071, 
860,154147883,129.87146,-67.80527496,-140.1855621,20.1258049,7.420662403,-2.947048664,-212.4197845,-318.3338318,-37.06003571, 
861,154164550,132.5770569,-64.58164215,-148.0034027,19.53880119,2.283210754,-0.784953535,-266.6761475,-269.7548828,-18.63341904, 
862,154181217,133.2493286,-61.50017166,-154.2900391,20.33705521,-1.750191808,1.892187357,-295.6460876,-251.2039185,-17.00352478, 
863,154197884,132.1698914,-59.1040535,-158.7358704,18.5694046,-4.706087589,1.848258376,-296.1608582,-194.8486176,-14.15801716, 
864,154214551,130.0156097,-57.58349609,-161.622406,16.52455521,-5.451292515,2.893685102,-276.3440247,-128.7627411,-7.2501297, 
865,154231218,127.3848495,-56.96151352,-163.4600677,15.12236691,-4.719906807,4.782027721,-250.2526093,-70.17405701,9.852667809, 
866,154247885,124.4622803,-57.07676697,-164.3425751,14.45058632,-6.540538788,4.969351768,-219.4222412,-19.6234436,24.1776123, 
867,154264552,121.1305618,-57.66175461,-163.902359,12.56757832,-5.664824486,3.510836124,-177.303299,30.6241703,23.4111042, 
868,154281219,117.5060425,-58.47702789,-162.5647278,12.40054131,-0.422632337,4.503036976,-148.9943848,60.58523941,23.44595337, 
869,154297886,110.3397598,-59.97911453,-158.5524139,13.4782095,1.86996603,11.26826286,-222.6874695,148.726593,33.96218872, 
870,154314553,106.1047363,-61.53517532,-156.9020996,6.659365177,-10.71862411,4.794466019,-167.3092041,74.70453644,75.09663391, 
871,154331220,100.2755203,-63.43547058,-153.9067841,9.445868492,-0.878985047,12.34189701,-189.9163055,106.413826,93.53752899, 
872,154347887,98.55942535,-65.28364563,-154.3348846,12.01782608,-15.5215683,-7.397756577,-125.7210236,6.704576015,112.6987457, 
873,154364554,95.05515289,-67.08911896,-151.5276031,10.90834904,-9.387286186,-0.928679466,-55.72865677,79.92749786,100.8921585, 
874,154381221,96.98260498,-68.53731537,-152.7097931,11.52728176,-1.478466511,3.785053253,50.3670578,-17.95079994,90.60293579, 
875,154397888,101.4827576,-69.33794403,-154.7844543,10.33281422,6.929649353,-2.635048866,154.2401276,-36.89582062,55.96328354, 
876,154414555,107.6774368,-69.11233521,-159.3209381,13.72428131,17.12921143,-5.637481213,117.5587311,-97.2675705,12.60540199, 
877,154431222,109.5799103,-69.81080627,-162.04776,18.04047585,14.34445763,-9.40180397,-38.68507385,-41.43822098,59.47996521, 
878,154447889,107.336113,-71.28222656,-161.0789642,11.73642921,2.411780596,-3.379722595,-79.42933655,45.90931702,79.08387756, 
879,154464556,104.2042923,-72.541008,-159.1963501,7.316336155,-3.983477592,-0.688963532,-80.14901733,53.88359833,64.62023926, 
880,154481223,104.0380707,-73.15493011,-159.4710999,7.532554626,-5.539424419,2.821170568,-25.34245491,3.885558605,38.36384964, 
881,154497890,106.9683075,-73.30732727,-161.7255402,9.208098412,0.874121964,-0.936721444,46.6791954,-35.55407333,20.68323326, 
882,154514557,108.1651917,-73.46522522,-163.1907349,9.808371544,3.950747013,-1.306682825,-12.04342556,-21.49695015,18.05429077, 
883,154531224,109.1906128,-73.70916748,-164.5906219,8.170873642,3.952801228,0.156220809,-18.66082573,-18.18440056,22.91370964, 
884,154547891,112.0372772,-73.93727112,-167.8995667,8.641926765,3.437986374,-1.203366041,-19.50289345,-47.33978653,33.73328781, 
885,154564558,114.0358276,-74.33953094,-170.4810181,8.61787796,2.401322126,-1.488562822,-28.70677948,-29.89929771,40.23939896, 
886,154581225,116.0457458,-74.66120911,-173.1846619,8.776515007,1.979971528,-1.140211821,-35.35442734,-31.49020576,37.29909134, 
887,154597892,118.4540176,-74.91821289,-175.9949036,9.463123322,2.918595552,-1.053580761,-17.84266472,-32.64864731,35.43328476, 
888,154614559,120.8315506,-75.18174744,-178.671814,9.888085365,3.898821354,-1.116853118,-12.16346455,-28.56942558,35.7159729, 
889,154631226,123.3367157,-75.47160339,178.4459381,9.770722389,3.06769228,-1.458053946,-16.62347412,-28.25795364,39.48751831, 
890,154647893,125.7592773,-75.75959015,175.6211243,9.548318863,1.780562997,-1.583896637,-18.46269798,-25.26106453,39.60231018, 
891,154664560,128.3032684,-75.91801453,172.7290039,9.731362343,0.724048436,-1.915338159,-15.25708008,-28.53917885,34.65661621, 
892,154681227,130.5006104,-76.02416229,170.3575287,10.01425743,0.928216398,-2.321539402,-5.847112656,-22.9800415,28.31865883, 
893,154697894,132.2775879,-76.11872101,168.4918823,10.15178394,1.422108531,-2.42359972,-1.670951724,-16.83345795,23.57377243, 
894,154714561,133.4497681,-76.23984528,167.2290344,9.92532444,1.2824229,-2.745387554,-2.888399601,-8.688763618,19.14707565, 
895,154731228,133.8269806,-76.42053223,166.7302399,9.966730118,2.088870764,-2.350551844,-6.086594105,2.003561258,14.2365942, 
896,154747895,133.8137665,-76.63159943,166.4978485,9.589159966,2.278385878,-1.968166351,-13.99712944,6.068893433,12.90426636, 
897,154764562,133.7107086,-76.82765961,166.2878876,9.585504532,1.352150917,-2.002494335,-18.08425903,5.691746712,12.01512337, 
898,154781229,133.2811127,-76.99812317,166.4156952,9.822363853,0.799982548,-1.839956164,-17.94487381,7.947281361,7.748410702, 
899,154797896,132.573349,-77.14089203,166.8929596,9.497849464,0.853935063,-1.42549777,-14.19156265,10.17400932,3.431010246, 
900,154814563,131.8648987,-77.1991806,167.3877258,9.268072128,1.140530586,-1.081675529,-13.20777321,6.882501602,-0.312001318, 
901,154831230,131.18013,-77.17737579,167.8861084,9.246921539,2.093067646,-1.01544404,-11.57163334,3.748081207,-3.845428944, 
902,154847897,130.8122711,-77.11815643,168.0631714,9.387799263,2.345547915,-1.130942941,-11.35346127,-0.899313509,-2.69920826, 
903,154864564,130.211792,-77.08624268,168.3747864,9.6509161,1.794881105,-1.372637987,-17.44525146,1.575266004,-2.63004303, 
904,154881231,129.3199463,-77.05121613,168.9338226,9.395246506,1.446347713,-1.214292765,-20.45943069,4.073571682,-4.873476982, 
905,154897898,128.5163727,-76.95179749,169.4884491,9.297905922,1.51587832,-1.16311574,-15.43768978,1.725920081,-7.79609251, 
906,154914565,127.8103409,-76.78623199,170.003479,9.595259666,1.547529936,-1.542121053,-11.91072369,-0.970248342,-10.6008625, 
907,154931232,126.8312836,-76.60906982,170.7623138,9.809329033,1.547101736,-1.572593093,-14.07819271,1.537244081,-13.25517845, 
908,154947899,125.599762,-76.40086365,171.7414703,9.526548386,1.92526865,-1.209425092,-16.40889549,3.33096981,-16.62779427, 
909,154964566,124.4520721,-76.13954926,172.6371002,9.289177895,1.989288568,-1.313614011,-16.30561829,1.097564101,-18.60249329, 
910,154981233,123.2736206,-75.85059357,173.5370483,9.608428955,1.666784644,-1.707987428,-17.95802879,0.841027081,-20.12199974, 
911,154997900,121.7163239,-75.54346466,174.766983,9.79146862,1.688897252,-1.622003675,-21.57460785,5.130326271,-23.77835655, 
912,155014567,120.0137482,-75.18772888,176.1815643,9.652697563,1.962303877,-1.424593806,-19.67588234,7.112336636,-27.7617569, 
913,155031234,118.2492065,-74.78092957,177.678894,9.589913368,2.1649611,-1.5946908,-18.74420547,8.106734276,-31.08868217, 
914,155047901,116.3238907,-74.34902954,179.3349304,9.641773224,1.941749096,-2.041337729,-19.38326073,11.27878857,-33.59035873, 
915,155064568,114.1569366,-73.88578033,-178.7453766,9.956069946,1.642323971,-2.340593338,-18.87084007,16.32186317,-37.01768875, 
916,155081235,111.5205612,-73.35798645,-176.3642731,10.23439693,2.089541435,-2.239995956,-20.75226212,24.50264549,-43.25231171, 
917,155097902,108.6832047,-72.7303772,-173.7267151,10.63362885,2.38659215,-2.695746183,-18.5029335,30.06795502,-49.65382767, 
918,155114569,105.7535172,-71.95571899,-170.9786072,11.57795429,3.284589529,-3.557600498,-18.29990387,33.68983078,-57.62602615, 
919,155131236,103.1927414,-71.06698608,-168.5293274,13.55852222,2.537418365,-6.065429688,-13.90688992,31.48307419,-61.70513916, 
920,155147903,99.38188171,-70.07344818,-164.9565887,15.22609806,4.065106869,-5.667957306,-26.12117767,57.96390152,-70.82572174, 
921,155164570,95.13036346,-68.89012909,-161.3391113,13.73286629,3.665565729,-5.504350185,-51.41992188,66.21871948,-78.45276642, 
922,155181237,90.61882019,-67.6095047,-157.8757477,13.13534641,4.087511539,-4.62808609,-77.29275513,72.79293823,-79.01435089, 
923,155197904,85.23223877,-66.31263733,-154.8749542,12.9744215,3.457443237,-0.623134077,-157.1151886,72.99369049,-73.63477325, 
924,155214571,78.96362305,-64.91719055,-152.229599,11.64902592,1.07559514,2.600968122,-231.1525421,76.19503784,-72.36043549, 
925,155231238,73.30451965,-63.43503952,-150.9950256,10.98803616,2.597035646,3.101449251,-272.4710999,52.41726303,-77.06433868, 
926,155247905,67.32321167,-61.87075806,-150.0259399,13.54786301,9.330866814,4.786807537,-306.8413086,56.54278564,-77.84192657, 
927,155264572,58.91223907,-60.32035065,-149.3471375,9.973694801,10.11189079,8.046900749,-468.6002197,59.42134094,-72.54994965, 
928,155281239,53.45545197,-60.81095886,-152.0202179,10.54434967,-8.055069923,-11.92348671,-466.7204895,-82.19071198,-17.82816124, 
929,155297906,44.90075302,-60.62324524,-151.0142212,10.4597578,-9.60036087,-9.258482933,-460.2667847,29.51883888,12.36504173, 
930,155314573,37.60710907,-60.59604645,-150.9613953,7.193772793,-11.14227676,-3.755498409,-434.4723511,2.106784821,1.656970024, 
931,155331240,33.81781769,-60.6478653,-151.8070526,8.383995056,-11.97488689,-4.739418507,-271.1932983,-17.18317413,-16.86567116, 
932,155347907,32.1603508,-60.48064804,-152.9083557,7.873189926,-8.61578846,-3.031654358,-156.5944061,-9.35817337,-31.19422531, 
933,155364574,31.84594154,-60.35398483,-154.455307,6.692141056,-4.759717464,-2.016070604,-99.16239929,-17.90460205,-41.3979187, 
934,155381241,31.80693817,-60.70546341,-156.4091949,6.397559643,-1.451183558,-1.594521523,-103.9863892,-48.37828064,-36.41120529, 
935,155397908,31.67655563,-61.50717163,-158.5614777,5.471877575,-0.543207943,-1.214459538,-120.4722748,-73.76348114,-26.28753471, 
936,155414575,31.74975586,-62.88441086,-161.1404419,5.051335335,-0.161173522,-0.889880836,-132.0906982,-108.2498627,-16.49909401, 
937,155431242,32.11487198,-64.89919281,-164.3971405,5.669207096,0.124331422,-0.793603301,-153.150177,-148.049408,-7.564282417, 
938,155447909,32.92726898,-67.34341431,-168.2912903,7.016239166,-0.586773038,-1.807172418,-164.5381317,-174.4487915,0.554044545, 
939,155464576,34.48976135,-70.08623505,-173.0010986,7.710298061,-0.472147614,-1.78024435,-169.2296143,-193.7173462,7.442411423, 
940,155481243,37.5772438,-73.06617737,-179.2463531,8.029935837,-0.691695631,-2.209420681,-169.9548187,-214.0071869,10.81474781, 
941,155497910,43.56147385,-76.07155609,171.7773285,8.312351227,-1.707918286,-2.844324589,-159.9409637,-229.6683655,9.681285858, 
942,155514577,55.07313156,-78.8240509,157.5398102,8.897801399,-2.189914942,-2.727737188,-143.1005096,-247.245224,5.082850456, 
943,155531244,75.96086121,-80.73021698,134.2770996,9.963788986,-2.072877884,-2.85476613,-120.6905365,-270.3378296,1.516772389, 
944,155547911,103.9529953,-80.73403931,104.3271332,11.05759239,-1.976703525,-3.233861923,-94.6006546,-286.132019,1.54023242, 
