PacketCounter,SampleTimeFine,Euler_X,Euler_Y,Euler_Z,Acc_X,Acc_Y,Acc_Z,Gyr_X,Gyr_Y,Gyr_Z,
0,2851026350,-37.98799896,-41.01607513,6.971325874,0,0,0,0,0,0, 
1,2851043017,-37.87369156,-42.0351944,6.745427608,7.248660564,-3.496883392,4.915092468,-10.95822906,-9.431082726,-14.62324524, 
2,2851059684,-37.50782394,-44.03117752,6.417552471,7.864893436,-3.596774578,5.142352104,-11.74226284,-9.098259926,-16.22235298, 
3,2851076351,-37.02775192,-46.11843109,6.095717907,8.643445969,-3.495392799,5.146695614,-9.442469597,-10.15518284,-16.59727478, 
4,2851093018,-36.50022125,-48.10486221,5.526883125,9.011317253,-3.358653307,5.098266125,-7.474836826,-11.3695488,-18.48473167, 
5,2851109685,-35.93666077,-49.87526321,4.922798634,8.967265129,-3.672866821,5.043201923,-5.744390488,-12.81876183,-21.42859268, 
6,2851126352,-35.52047729,-51.31747437,4.446638107,8.536413193,-3.754336834,4.746174812,-3.549352407,-14.27832031,-22.90664482, 
7,2851143019,-35.26467514,-52.47644806,4.063548565,8.046570778,-3.588460684,4.753908634,-4.205323219,-14.22495174,-25.19778824, 
8,2851159686,-34.98274231,-53.41531372,3.616652727,7.710111141,-3.384624243,4.917948723,-4.43422699,-13.4847126,-29.3018055, 
9,2851176353,-34.50455093,-54.20112991,2.983747482,7.291750431,-3.352929115,5.146540165,-2.306217432,-12.27852154,-35.21341324, 
10,2851193020,-33.84473801,-54.85887909,2.166645288,7.09837389,-3.310593605,5.041191101,-1.26421237,-11.46201038,-40.59114456, 
11,2851209687,-33.11819839,-55.44097519,1.180315733,7.209057808,-3.276080608,4.876885414,-5.885293961,-10.45700455,-45.8953476, 
12,2851226354,-32.33776855,-55.98471832,0.032454487,7.504473209,-3.3203547,4.881128788,-10.59584808,-8.863413811,-50.91650009, 
13,2851243021,-31.42196083,-56.51813126,-1.292178035,7.776786327,-3.011442184,4.864879131,-11.15818787,-7.307323933,-56.50762939, 
14,2851259688,-30.33883286,-57.05992508,-2.818324804,7.888503551,-2.736679316,4.849864006,-11.60485649,-5.890748501,-62.00302887, 
15,2851276355,-29.12425804,-57.60871124,-4.515879154,8.172094345,-2.497650146,4.844003201,-12.99135494,-5.105461597,-66.01206207, 
16,2851293022,-27.72451591,-58.14544296,-6.388153076,8.437908173,-2.238255262,4.656172276,-11.47247314,-3.409609079,-69.19631195, 
17,2851309689,-26.12883949,-58.68571091,-8.386411667,7.932544708,-2.195997953,4.965514183,-6.856937885,-3.26266861,-71.24802399, 
18,2851326356,-24.48141289,-59.21305466,-10.41187668,8.069216728,-2.237279892,4.6040802,-5.847522736,-5.010587215,-70.64421844, 
19,2851343023,-22.9496212,-59.71401596,-12.34638309,8.921256065,-2.075210094,4.197538376,-8.437521935,-6.703706741,-66.67224121, 
20,2851359690,-21.56543541,-60.17836761,-14.190835,9.493947983,-1.612683415,4.322544575,-12.86589241,-6.433401108,-62.28890228, 
21,2851376357,-20.17956924,-60.62837982,-16.07080269,9.633651733,-0.943674147,4.306204796,-15.11652184,-5.91483736,-61.52740479, 
22,2851393024,-18.63427734,-61.11882019,-18.1247406,10.25102806,-0.565072775,4.076200008,-15.46627045,-7.485623837,-65.21959686, 
23,2851409691,-17.00189972,-61.6916008,-20.34048843,11.07853317,-0.539075851,4.667553902,-19.67971802,-11.78887463,-68.90287018, 
24,2851426358,-15.46723843,-62.33744431,-22.64303017,11.08393955,-0.957979858,4.642904758,-31.13002205,-16.97320366,-70.08538818, 
25,2851443025,-14.09644699,-63.0067215,-24.95296669,10.85716534,-1.316483736,4.043264389,-42.11286163,-20.05591011,-68.62610626, 
26,2851459692,-12.75053596,-63.5910759,-27.30295753,10.4975481,-1.68636632,4.713971138,-46.23617554,-16.26531601,-66.91332245, 
27,2851476359,-11.35502434,-64.01222229,-29.73218346,10.42876625,-1.216910958,5.932767868,-47.81719971,-8.310671806,-65.97853851, 
28,2851493026,-9.778589249,-64.33838654,-32.34909058,9.321697235,0.782708943,5.857291222,-47.46541214,-4.698509693,-68.92935944, 
29,2851509693,-8.066354752,-64.68550873,-35.31468964,8.776283264,3.45124507,3.652635098,-59.04729843,-7.81342411,-76.26013184, 
30,2851526360,-6.116045475,-65.0124054,-38.84240723,7.629627705,4.835744858,1.592019081,-76.63272858,-7.445454597,-87.15708923, 
31,2851543027,-4.231445313,-65.724617,-42.28632355,8.314950943,-0.405664176,-1.427015424,-77.75611877,-33.21010971,-82.89382935, 
32,2851559694,-3.138375282,-66.69432831,-45.23164368,10.66306305,0.559047699,-2.919312477,-98.69416809,-49.82174301,-68.77036285, 
33,2851576361,-3.006181479,-67.90924072,-47.81092453,9.759092331,-0.128875777,-3.070971727,-137.2381592,-63.1818924,-57.41898346, 
34,2851593028,-3.083997488,-69.52254486,-50.16387558,9.459764481,-2.24154067,-2.845626831,-138.3362732,-85.42771912,-50.38054657, 
35,2851609695,-3.067635536,-71.51293182,-52.34205246,9.350876808,-2.925309658,-2.110195398,-123.7757339,-106.8063202,-44.95609665, 
36,2851626362,-3.048201799,-73.76563263,-54.25492096,9.257308006,-2.449936152,-1.248069286,-109.3841476,-122.0486526,-37.53495026, 
37,2851643029,-3.123106241,-76.15978241,-55.88195801,9.527254105,-2.8998487,-0.283603758,-99.40877533,-130.5640564,-29.97261238, 
38,2851659696,-3.456261635,-78.63088226,-57.06887054,9.769340515,-3.733460903,0.831133008,-89.80162048,-135.6827698,-21.88248253, 
39,2851676363,-4.500657082,-81.13543701,-57.3055191,10.1120491,-2.795259953,2.133982658,-76.65193176,-138.8332825,-11.90280914, 
40,2851693030,-4.593450546,-83.31144714,-58.74942017,11.50428772,3.700227022,5.673411846,-91.30387878,-119.3108826,-21.73191071, 
41,2851709697,-7.726286411,-85.56244659,-56.99112701,8.618713379,-4.35650301,1.20513308,-82.99555969,-127.5222015,-2.671097755, 
42,2851726364,-27.73416328,-87.48347473,-38.39570999,10.63153553,-7.141597271,3.27664566,-86.46401215,-121.7653656,29.96509933, 
43,2851743031,-75.45236206,-88.13240051,7.763164043,10.51057434,-2.53690362,4.715845108,-95.10301208,-97.16622162,34.56345749, 
44,2851759698,-115.5803528,-87.37221527,46.76178741,10.37798691,-4.258588314,5.072260857,-69.1975174,-89.44232178,32.3455925, 
45,2851776365,-129.8869019,-85.89535522,60.55025482,11.16194439,-4.094908714,4.645147324,-32.34571457,-85.63236237,45.151371, 
46,2851793032,-133.5262604,-84.42726135,63.42662048,10.78030491,-0.140994906,4.891593933,-46.45170212,-68.12224579,52.73624802, 
47,2851809699,-133.8486176,-83.09487915,62.63323212,9.44847393,-0.863904655,4.801625729,-66.85225677,-51.47880173,58.4291954, 
48,2851826366,-131.7412872,-81.86128998,59.35797882,8.422750473,-3.241374731,4.884687424,-68.72786713,-32.57160187,68.97068787, 
49,2851843033,-128.5773621,-80.69976044,55.08057022,8.466760635,-3.671294451,5.162672997,-64.40843201,-17.44195938,75.14300537, 
50,2851859700,-124.7100906,-79.62494659,50.24917603,8.98667717,-3.312933683,5.758823872,-54.40536118,-2.006024361,77.67467499, 
51,2851876367,-120.1286316,-78.57180023,44.89707947,9.547613144,-3.253133535,6.047427177,-41.55286026,13.05784607,82.02468872, 
52,2851893034,-115.00354,-77.510849,39.1088028,9.924695015,-2.417021275,5.756566048,-33.6530571,28.97674751,85.68564606, 
53,2851909701,-109.5532608,-76.42767334,32.91430664,10.0610199,-1.540463209,5.39502573,-36.80300903,46.68190384,87.92160797, 
54,2851926368,-103.9904785,-75.27733612,26.43211555,10.04256344,-1.528698206,5.186757088,-45.3337822,64.18008423,89.74734497, 
55,2851943035,-98.54707336,-74.02781677,19.99432564,9.95009613,-1.782593489,4.454120636,-48.12963867,78.14585876,89.95824432, 
56,2851959702,-93.36795044,-72.71247864,13.89049816,9.841938972,-1.43448925,3.619403124,-42.63138962,88.24849701,86.03708649, 
57,2851976369,-88.48457336,-71.37491608,8.147722244,9.938415527,-1.093691468,3.321540594,-37.40709305,96.97274017,78.9067688, 
58,2851993036,-83.96128082,-70.03568268,2.814461946,10.08733845,-0.677068949,2.999125004,-33.38439941,102.8189774,70.51911163, 
59,2852009703,-79.79349518,-68.70652008,-2.172054768,10.36188793,-0.293707341,2.871018171,-32.8052063,107.6971207,61.78654099, 
60,2852026370,-75.93772888,-67.37465668,-6.854511738,10.310956,-0.176369607,2.852906466,-32.17154312,111.7002335,54.26119232, 
61,2852043037,-72.52017975,-66.07233429,-11.05890656,9.945441246,0.145098552,1.993217945,-29.70895004,109.5163116,46.80789566, 
62,2852059704,-69.43574524,-64.83547974,-14.87372398,9.582202911,0.556851149,1.213097334,-26.20702744,106.7164917,38.38129425, 
63,2852076371,-66.48784637,-63.65272522,-18.45077705,8.818469048,0.429634631,1.222687721,-19.48187256,106.0975342,30.51667786, 
64,2852093038,-63.65866852,-62.50421524,-21.80268097,8.275432587,-0.051354919,1.502881765,-12.61979961,105.0179749,24.30031204, 
65,2852109705,-60.95578384,-61.40986252,-24.91890335,8.061779976,-0.478912711,1.398133636,-5.904335976,102.0812454,17.83741951, 
66,2852126372,-58.3231926,-60.44158173,-27.81332207,8.086921692,0.173324049,0.340481997,3.147603035,96.25610352,8.321718216, 
67,2852143039,-55.83266449,-60.02108765,-30.57987404,9.388720512,7.830494404,-3.767256737,2.411791801,77.42304993,-22.39238739, 
68,2852159706,-54.10536957,-60.30096054,-32.78984833,9.622927666,4.258832932,-5.56050539,-14.23213577,39.85596466,-49.1638298, 
69,2852176373,-53.50463867,-60.28060532,-34.20543671,16.53788567,-13.86777782,2.481358051,-40.31967926,31.23172951,-20.64915085, 
70,2852193040,-52.21027374,-59.82399368,-35.441185,26.14744949,-8.292758942,7.053370953,11.26218128,42.99114227,1.921984076, 
71,2852209707,-50.17160416,-59.92442703,-37.04933548,11.74043941,7.092802048,3.548690081,36.74453735,31.24274635,-32.32006454, 
72,2852226374,-48.16466904,-60.00893021,-38.71660233,-0.737629175,-0.615407884,4.1101017,31.36584854,32.08088303,-32.7016983, 
73,2852243041,-47.24989319,-59.8371315,-39.36962128,3.801845312,-5.897658825,6.206622601,18.4613781,18.64731216,-1.90606308, 
74,2852259708,-46.69996643,-59.55561066,-39.78020096,9.326533318,-2.242505789,4.549995422,9.234730721,17.44401169,7.057378769, 
75,2852276375,-46.43592453,-59.3304863,-40.17969131,12.3857317,-0.948432922,4.326978683,-7.321449757,15.00969219,4.69553709, 
76,2852293042,-46.34779358,-59.07749557,-40.54165649,10.5423336,-3.295121193,5.495919704,-15.94564056,15.5657568,6.881037712, 
77,2852309709,-45.99363327,-58.92895508,-40.78756714,6.029758453,-4.746971607,4.706206322,6.001167774,8.695266724,4.740446091, 
78,2852326376,-45.52353287,-58.87400436,-40.87773132,6.81774807,-4.192752361,4.228928566,21.03673553,1.248320103,3.728158951, 
79,2852343043,-45.18595123,-58.81023026,-40.93877411,9.076351166,-2.709805727,4.50917244,14.64796066,0.972457469,4.543178558, 
80,2852359710,-44.98718262,-58.76760483,-41.0406456,9.983692169,-2.576084852,4.680736065,4.231698513,1.030968785,2.769738197, 
81,2852376377,-44.79943848,-58.79504013,-41.14115143,9.028144836,-3.228412628,4.272505283,3.640877247,-1.916649461,-0.100811578, 
82,2852393044,-44.58554077,-58.86959076,-41.22380829,7.870968342,-3.57623601,4.578037739,6.161667824,-4.275375366,-1.701977015, 
83,2852409711,-44.3958168,-59.00257111,-41.25291824,8.13834095,-3.144227982,4.425476551,7.498204708,-7.977603912,-3.035195827, 
84,2852426378,-44.23113251,-59.18957901,-41.30865097,8.873613358,-3.05098772,4.212214947,4.654950619,-9.739426613,-5.891308308, 
85,2852443045,-44.03662491,-59.44078827,-41.39658356,8.807781219,-3.182577133,4.259587765,4.822267532,-11.81383038,-9.245398521, 
86,2852459712,-43.83453369,-59.73290634,-41.49989319,8.575004578,-3.259396791,3.995002031,4.513839722,-13.28679466,-11.24772739, 
87,2852476379,-43.65993881,-60.06874084,-41.63829803,8.592617035,-2.996792793,3.927142143,1.076420188,-14.48073673,-13.79137039, 
88,2852493046,-43.42708206,-60.43848038,-41.87256241,8.695589066,-3.301361561,4.17832613,-0.392566532,-14.04807854,-17.19648552, 
89,2852509713,-43.13056183,-60.85029984,-42.14955902,8.435271263,-3.399082899,4.251870632,1.196723938,-15.1655302,-19.75875282, 
90,2852526380,-42.77865601,-61.28843689,-42.47230148,8.391566277,-3.080022335,4.168382168,2.111471653,-15.63158607,-21.70482063, 
91,2852543047,-42.43373108,-61.76397324,-42.81613159,8.684823036,-2.593833447,4.12288332,0.553165495,-17.12444496,-23.51734161, 
92,2852559714,-42.11089325,-62.25427246,-43.15883636,8.813779831,-2.26913023,3.935182095,-0.760238469,-18.0578804,-23.88028908, 
93,2852576381,-41.81871033,-62.75383759,-43.4865799,8.81536293,-2.035308123,3.548204899,-1.850600243,-18.98596191,-23.71066093, 
94,2852593048,-41.57051086,-63.26596069,-43.80826569,9.015004158,-2.083411455,3.875176191,-4.209948063,-19.85021591,-23.85593796, 
95,2852609715,-41.34581375,-63.77083206,-44.11761475,8.883903503,-2.576204062,4.375401497,-5.004084587,-19.9477253,-23.09758377, 
96,2852626382,-41.20806122,-64.27922821,-44.33665848,8.63454628,-2.08801651,3.954150438,-5.391990662,-21.88832664,-21.2921257, 
97,2852643049,-41.10908508,-64.80358887,-44.47828674,9.097887993,-1.603947639,3.332038164,-3.550252914,-24.05923653,-20.27878761, 
98,2852659716,-40.96283722,-65.32762146,-44.60341644,9.326061249,-1.80573225,3.539802313,0.181908414,-24.3758564,-19.79353714, 
99,2852676383,-40.88532257,-65.82229614,-44.67276001,9.044578552,-2.19402957,3.829734802,-0.894039571,-24.00909615,-17.45561981, 
100,2852693050,-40.85992813,-66.32794952,-44.70085526,8.638102531,-1.955587149,3.48618412,-1.744051218,-25.21556664,-17.07688904, 
101,2852709717,-40.82328033,-66.8465271,-44.77046204,8.966959,-2.243784189,3.500178576,-3.328382015,-25.17807961,-18.29629326, 
102,2852726384,-40.71146774,-67.35594177,-44.92410278,9.252960205,-2.213412046,2.790409088,-3.444432497,-23.53338051,-19.37427521, 
103,2852743051,-40.41802216,-67.82462311,-45.25699234,9.102619171,-1.472406268,2.124849319,-2.470402718,-19.09276772,-20.77870178, 
104,2852759718,-39.95508957,-68.24638367,-45.78907013,9.100530624,-1.523426771,3.055025339,-3.405216694,-14.22056389,-22.12436867, 
105,2852776385,-39.6137352,-68.6864624,-46.26444626,9.416392326,-1.502122045,3.293152809,-7.604047775,-16.1701622,-21.58595848, 
106,2852793052,-39.3027916,-69.09603882,-46.71590042,9.527052879,-1.071861625,3.146309376,-8.145089149,-15.3552351,-19.76567841, 
107,2852809719,-39.08472443,-69.47319794,-47.16215515,9.265679359,-0.998313069,2.685710192,-13.48623466,-14.12360859,-18.20306778, 
108,2852826386,-38.84773254,-69.78114319,-47.63127899,9.51863575,-1.13056457,2.740944624,-13.67670822,-10.74580383,-15.75376129, 
109,2852843053,-38.55152893,-70.00856018,-48.07967758,9.657248497,-1.071943998,2.886970997,-8.991462708,-7.381037235,-12.22666931, 
110,2852859720,-38.31911469,-70.19212341,-48.45571136,9.785565376,-0.542887568,2.083467245,-8.764569283,-6.346959114,-9.296699524, 
111,2852876387,-38.10238266,-70.34980011,-48.85413742,9.687371254,-1.462127924,3.147906303,-10.98718929,-4.856324673,-8.5545578, 
112,2852893054,-37.95846939,-70.49390411,-49.12621689,9.202806473,-1.92288506,3.342612028,-8.235805511,-5.855577946,-5.986023903, 
113,2852909721,-37.8623085,-70.66295624,-49.31155396,9.09572506,-1.423312783,2.997689486,-6.197777748,-8.173362732,-5.525302887, 
114,2852926388,-37.75466919,-70.84127045,-49.52031708,9.454738617,-1.751506925,3.260889292,-6.839055061,-8.367916107,-6.190041542, 
115,2852943055,-37.69116592,-71.00984955,-49.66543579,9.63385582,-1.299214482,2.591521502,-5.881140232,-8.726392746,-4.820799351, 
116,2852959722,-37.59394836,-71.17692566,-49.89022446,9.559267044,-1.212602854,2.66760993,-8.383131027,-7.701154709,-5.942828655, 
117,2852976389,-37.51442719,-71.32710266,-50.08760834,9.319041252,-1.411119461,2.816007137,-7.892877102,-7.236692429,-4.850381851, 
118,2852993056,-37.48529434,-71.48721313,-50.24452972,9.428778648,-1.173754096,2.867997169,-8.620830536,-8.203445435,-4.56690073, 
119,2853009723,-37.45401382,-71.62833405,-50.40338516,9.572178841,-1.242943645,2.687222242,-8.609072685,-7.293232441,-3.859489441, 
120,2853026390,-37.45174789,-71.7408905,-50.56376648,9.592950821,-1.281148553,2.500257969,-10.43944645,-5.917714596,-2.807806492, 
121,2853043057,-37.47763062,-71.83062744,-50.73980713,9.531970978,-1.005719543,2.534992933,-13.0216341,-4.638668537,-2.188210011, 
122,2853059724,-37.49680328,-71.92227173,-50.93954086,9.45447731,-1.374958396,3.011035204,-13.97242832,-4.448595524,-2.567854166, 
123,2853076391,-37.58097076,-72.02658081,-51.07563782,9.315112114,-1.267618179,2.723357439,-14.25340271,-5.79505682,-2.078805208, 
124,2853093058,-37.69001389,-72.13685608,-51.26589966,9.428146362,-1.421466589,2.39296627,-18.84011459,-5.472736835,-3.077395678, 
125,2853109725,-37.7456398,-72.23042297,-51.52147675,9.638197899,-1.479252815,2.51517725,-19.36277962,-3.934538603,-3.407761574, 
126,2853126392,-37.78837585,-72.3119278,-51.78236389,9.654443741,-1.188429236,2.483285666,-18.89535904,-3.300367117,-3.032829285, 
127,2853143059,-37.85421753,-72.36802673,-52.06221008,9.668372154,-1.034456849,2.461260557,-21.37139702,-1.878002763,-2.345563412, 
128,2853159726,-37.95029831,-72.40974426,-52.38602448,9.604868889,-1.222649932,2.588670254,-25.70371056,-0.700790763,-2.416141272, 
129,2853176393,-38.05469894,-72.43261719,-52.71271515,9.357827187,-1.453854322,2.517007589,-26.37493706,0.225232244,-1.743537664, 
130,2853193060,-38.19400406,-72.43662262,-53.03237915,9.389702797,-1.244624257,2.525513887,-28.06969833,1.043304086,-0.948530495, 
131,2853209727,-38.36551666,-72.39260101,-53.27026749,9.879954338,-0.812652111,2.37458849,-25.32904434,2.400305986,2.006061554, 
132,2853226394,-38.58967972,-72.27702332,-53.47898102,10.14326,-0.298013121,2.19222188,-26.82188034,5.464848518,5.128463268, 
133,2853243061,-39.00506592,-72.0332489,-53.57686615,10.63285828,0.670648217,1.728267193,-31.97534943,10.23324871,11.61804485, 
134,2853259728,-39.5496521,-71.5931015,-53.63617325,11.45736694,0.979066312,1.167452931,-37.54377365,18.92199326,19.84472466, 
135,2853276395,-40.10980988,-70.87625885,-53.7227211,12.05418396,0.939421177,0.411316603,-40.06575012,32.00253677,30.40539742, 
136,2853293062,-40.56685638,-69.84572601,-53.96560669,13.2276125,0.50374794,-0.346622527,-42.7240181,48.382061,40.58722687, 
137,2853309729,-40.76728821,-68.43296814,-54.67085648,14.01425266,-1.74625957,-0.958305955,-53.19172287,72.44036865,48.24396896, 
138,2853326396,-40.49003983,-66.75784302,-56.03490067,13.80554581,-1.979661584,-0.248208225,-60.67382813,95.2070694,46.22392273, 
139,2853343063,-40.60440063,-65.25250244,-57.15762329,12.53590775,-3.792225838,-2.500731468,-70.06397247,85.30326843,42.37163925, 
140,2853359730,-40.89887238,-63.62080765,-58.16523743,14.72695923,-4.829247952,-0.557442784,-73.80239868,90.41436005,48.52216339, 
141,2853376397,-41.10794449,-61.83447647,-59.390625,12.69188213,-3.193000555,0.461531401,-79.42578125,102.4997559,49.18164063, 
142,2853393064,-41.72976685,-60.49765778,-60.08171082,12.32170963,-1.605672598,0.685156167,-75.14979553,73.10442352,42.35598373, 
143,2853409731,-41.98728943,-59.02090073,-61.40491867,12.80890179,-0.546688676,3.95188427,-85.55909729,92.59751892,33.73909378, 
144,2853426398,-42.06812286,-57.49658203,-63.12487411,7.111546516,-3.178458452,7.067472935,-94.2570343,104.2473145,25.48892403, 
145,2853443065,-42.11963654,-56.40873337,-64.41259766,6.150212288,-3.070240259,8.96177578,-69.63928223,76.38437653,17.02843475, 
146,2853459732,-42.05410385,-55.72914124,-65.6062851,4.211187363,-0.387573451,5.26990509,-57.44678116,56.41044998,2.154198885, 
147,2853476399,-41.99851227,-55.45570374,-67.02542877,2.651301861,2.061145306,3.720651865,-69.00504303,43.55934143,-20.22429276, 
148,2853493066,-42.61319733,-55.77561569,-67.67488098,-0.217499703,-1.604694843,-0.363951176,-71.24748993,-0.387182146,-24.5165329, 
149,2853509733,-43.86042023,-56.67228699,-67.33651733,1.200964093,-2.107672215,-2.012990713,-60.07780457,-47.96900558,-24.07605171, 
150,2853526400,-45.24322128,-57.84799576,-66.82171631,1.883135676,-1.876186132,-0.652273774,-58.93596649,-62.947155,-33.1339798, 
151,2853543067,-46.70307541,-59.43675232,-66.09770966,1.564360738,-3.219708681,-0.705472887,-52.3019371,-83.42977905,-48.44574356, 
152,2853559734,-48.57321167,-61.52096939,-64.66735077,2.082140446,-4.736439705,-0.451288432,-39.14546967,-116.4078064,-59.66345215, 
153,2853576401,-50.7199707,-63.96386337,-62.44583893,3.590621471,-4.928349018,-0.103316352,-11.7279501,-142.2790833,-68.12485504, 
154,2853593068,-53.28347397,-66.74584198,-59.28121185,4.938519955,-4.659247875,-0.176239178,17.57027435,-165.9330292,-78.91317749, 
155,2853609735,-56.52925873,-69.78497314,-54.92985916,6.714663506,-4.004449844,0.010237262,46.78618622,-184.5890961,-89.85249329, 
156,2853626402,-60.95198822,-72.91022491,-49.02603912,8.294109344,-3.17778492,0.603819489,69.46391296,-194.6203613,-97.76268768, 
157,2853643069,-67.8167572,-76.01123047,-40.62680817,9.505782127,-2.785786629,1.117743731,73.04728699,-202.4230042,-105.5103683, 
158,2853659736,-78.57303619,-78.69857788,-28.53336334,12.5346508,-1.567596555,2.809052467,62.20558548,-198.6704407,-104.2035904, 
159,2853676403,-92.18518066,-80.46520996,-13.90239716,18.11673927,-0.977339804,5.522138596,46.26662445,-166.8710785,-88.53278351, 
160,2853693070,-105.6057968,-81.36728668,0.700362384,20.11175728,-0.900918484,7.25299263,59.44422913,-128.8388519,-70.69400024, 
161,2853709737,-117.6092453,-81.58074951,13.93157673,18.79253387,-1.256558299,5.68075037,64.36264038,-105.7310028,-51.22901535, 
162,2853726404,-125.8384094,-81.49620056,22.78376198,16.90878868,0.203604802,4.17825222,31.03493881,-70.63195038,-32.79524994, 
163,2853743071,-128.8980865,-81.64363098,25.46118355,14.55359364,2.107279539,4.435958862,-25.25428963,-15.19228745,-17.21186829, 
164,2853759738,-127.6008682,-82.01849365,23.2658062,12.30478764,0.220030531,4.749663353,-53.16357803,26.45940781,-1.744284987, 
165,2853776405,-123.1510696,-82.40314484,17.71689034,11.66337013,-1.088531375,3.609564781,-63.5583725,47.61977768,11.71956635, 
166,2853793072,-115.5852127,-82.62528229,8.867679596,11.08895683,-2.254508972,2.396163464,-73.26569366,63.96139526,26.68448257, 
167,2853809739,-105.737709,-82.54083252,-2.228511095,10.44096375,-3.336044312,1.673570871,-70.25410461,75.5359726,39.25406647, 
168,2853826406,-95.49983978,-82.06098938,-13.46226788,9.552194595,-4.31597662,1.338617325,-54.70441818,80.21543884,48.86087799, 
169,2853843073,-86.79175568,-81.21392059,-22.72255707,8.551197052,-4.785536289,0.699782312,-28.37078667,76.48314667,56.13616562, 
170,2853859740,-80.00740814,-80.21740723,-29.51398468,7.576793671,-4.338912487,0.479327947,3.689195156,68.89487457,55.38028717, 
171,2853876407,-75.19876099,-79.24647522,-33.93741226,6.955423832,-4.322241783,0.091883942,26.09329033,55.46595383,50.15423584, 
172,2853893074,-71.82463074,-78.40048218,-36.56652832,6.498272419,-4.19654417,-0.394852996,46.36606979,40.54094315,43.28166199, 
173,2853909741,-69.53450775,-77.74476624,-37.85687637,6.349004269,-3.135120153,-0.580383182,60.31283188,25.01395607,34.98237228, 
174,2853926408,-68.07056427,-77.32003021,-38.12252045,6.383824825,-2.100327253,-0.191117913,70.93090057,9.419883728,25.59522247, 
175,2853943075,-67.21612549,-77.10034943,-37.69750595,6.954597473,-1.61202848,0.30903551,74.78535461,-3.123379707,17.41166306, 
176,2853959742,-66.81542206,-77.02713013,-36.8776741,7.713665962,-0.989407182,0.877385795,70.64025879,-11.27267838,11.45396137, 
177,2853976409,-66.8008194,-77.09343719,-35.89743805,8.587088585,-0.478849858,1.342412233,56.84775925,-16.4821167,4.707883835, 
178,2853993076,-67.07997131,-77.28921509,-34.8911438,9.458423615,-0.430553079,1.595252275,40.77869034,-19.70614243,-2.284989119, 
179,2854009743,-67.31491852,-77.54827118,-34.16239548,10.01399231,-0.763761044,1.552229881,27.23275566,-17.58897781,-7.258244991, 
180,2854026410,-67.40413666,-77.85613251,-33.75344086,10.39946651,-0.608386159,1.627714753,17.27461815,-14.71555233,-11.57165051, 
181,2854043077,-65.84760284,-77.98165894,-35.30979919,10.40888309,-1.778626561,4.723986149,0.726280749,12.16610146,-11.12364483, 
182,2854059744,-70.90554047,-78.64328766,-29.86233902,10.0918951,-0.876488149,-3.053179026,15.23333359,-79.10397339,-8.892204285, 
183,2854076411,-70.01509857,-78.89137268,-31.63510323,14.2100935,1.043694019,-3.140093803,-52.20450592,11.80784702,-17.3654213, 
184,2854093078,-70.40592957,-79.15238953,-31.55792046,9.188347816,-3.318741083,1.64407742,-20.15642738,-8.624120712,-10.70048141, 
185,2854109745,-72.39459991,-79.47846222,-29.9390316,11.71897316,-4.156039715,-3.417412996,-25.12049294,-25.85490417,-9.166611671, 
186,2854126412,-72.41251373,-79.54767609,-30.11415672,11.08223724,-3.114760637,-1.737902761,-12.59223366,-1.760681868,-1.062953115, 
187,2854143079,-73.25444794,-79.61130524,-29.43666458,10.70977688,-2.191260338,-0.659483254,-11.70582199,-10.34299469,1.912482858, 
188,2854159746,-73.49717712,-79.61297607,-29.3443985,10.88712597,-0.202875838,-0.686742485,-10.25791645,-3.102160215,3.53153801, 
189,2854176413,-73.34900665,-79.55950165,-29.71204758,10.24732304,-0.479082823,0.010632093,-13.93485355,2.709677935,5.347941399, 
190,2854193080,-73.46359253,-79.44243622,-29.79362297,10.11764622,-0.983899593,0.269018382,-12.81666946,0.881852388,9.942838669, 
191,2854209747,-73.15743256,-79.27105713,-30.22378922,9.618431091,-0.922400177,0.545743704,-8.129810333,5.570990562,11.97130299, 
192,2854226414,-72.2565155,-79.07214355,-31.13659286,8.854406357,-0.640019834,1.130363226,-0.875391662,11.44104481,11.85539436, 
193,2854243081,-71.17935181,-78.84890747,-32.17631912,8.701987267,-0.738014281,1.50614059,2.255424738,13.59903526,12.52399063, 
194,2854259748,-70.03549957,-78.61260223,-33.24173355,9.066905975,-0.953648806,1.591530919,4.758058548,14.52273464,12.82429028, 
195,2854276415,-68.89134979,-78.37588501,-34.27599716,9.175225258,-1.14933908,1.750413299,6.647741318,14.57452393,12.58631039, 
196,2854293082,-67.92203522,-78.16720581,-35.14922333,9.310067177,-1.605724096,1.30846417,5.64434576,12.47913933,11.37450218, 
197,2854309749,-67.04062653,-78.0062561,-35.9394722,9.462427139,-2.177312374,0.742120862,5.27104044,10.6945219,8.820041656, 
198,2854326416,-66.24629211,-77.90419769,-36.59988785,9.810194016,-2.686179161,0.630882919,7.67417717,7.995679855,5.970252037, 
199,2854343083,-65.48816681,-77.85546875,-37.21236801,9.847325325,-3.151180744,0.515338659,8.335879326,6.235381603,3.08363533, 
200,2854359750,-64.88428497,-77.84592438,-37.7204628,9.598482132,-3.192506313,0.733263254,5.213497639,4.091315746,1.325515032, 
201,2854376417,-64.5670929,-77.89045715,-38.01431656,9.430012703,-2.92278266,0.802624345,0.590058923,0.25104925,-0.580217242, 
202,2854393084,-64.32728577,-78.00079346,-38.27029037,9.378249168,-2.297841311,0.924584806,-1.840465188,-1.907403827,-4.001741886, 
203,2854409751,-64.10258484,-78.1823349,-38.54959869,9.285260201,-1.81533277,1.151206493,-4.102194786,-3.566377401,-7.995313644, 
204,2854426418,-63.96795273,-78.41268921,-38.79004669,9.184662819,-1.662973285,1.529331923,-7.233811378,-5.367246151,-10.40343571, 
205,2854443085,-64.06073761,-78.67816925,-38.83121872,9.083237648,-1.43822813,1.517314196,-9.168164253,-8.508609772,-11.23613548, 
206,2854459752,-64.21565247,-78.97045135,-38.84376526,9.215150833,-1.174968243,1.159915447,-11.21326733,-9.514413834,-12.54568005, 
207,2854476419,-64.35306549,-79.27334595,-38.87316132,9.396356583,-1.147694588,1.129526377,-11.16461754,-9.582787514,-13.19899845, 
208,2854493086,-64.60623932,-79.5705719,-38.78942871,9.601136208,-1.230534792,0.95274657,-11.42074394,-10.52175045,-12.37019634, 
209,2854509753,-65.16350555,-79.85824585,-38.41995621,9.926101685,-1.215842247,0.498201281,-12.79014301,-12.9118557,-10.61389351, 
210,2854526420,-65.55841064,-80.10555267,-38.22887039,10.04644871,-1.408688784,0.280626655,-13.55777931,-9.97551918,-9.314107895, 
211,2854543087,-65.89289093,-80.32720184,-38.06811905,10.04493427,-1.701396823,0.003246861,-11.7045784,-8.904812813,-8.11448288, 
212,2854559754,-65.94908142,-80.51303101,-38.11990738,10.19896221,-1.826570988,-0.323238611,-7.561063766,-5.97769928,-7.078341007, 
213,2854576421,-65.66707611,-80.65388489,-38.46590805,10.19800377,-1.770112634,-0.241176441,-4.664944172,-2.208135366,-5.819116592, 
214,2854593088,-65.17485809,-80.75354767,-39.01521683,10.1127634,-1.543493509,0.001885627,-4.084688187,0.567839921,-4.396278858, 
215,2854609755,-64.54496002,-80.81149292,-39.70130539,9.947127342,-1.334857106,0.115342289,-3.937184572,2.751822233,-2.700372696, 
216,2854626422,-63.80792236,-80.82883453,-40.49314499,9.82062912,-1.082082629,0.364681959,-3.770035267,4.666191578,-0.997281611, 
217,2854643089,-62.88971329,-80.81137085,-41.45571899,9.505632401,-1.029363632,0.551215708,-2.995726109,7.026108742,0.04429077, 
218,2854659756,-61.93334198,-80.78309631,-42.41994858,9.473748207,-1.058411121,0.672092617,-0.813165009,7.32919693,0.474404871, 
219,2854676423,-60.93158722,-80.7449646,-43.40090942,9.555633545,-1.103777647,0.691497564,0.932718694,7.74270153,0.743876159, 
220,2854693090,-59.91017914,-80.69889069,-44.39234161,9.596170425,-1.278497219,0.75618881,1.50284481,8.07178688,0.926366806, 
221,2854709757,-58.95465469,-80.64894867,-45.31444168,9.584346771,-1.465847611,0.829872787,1.652064323,7.624434471,1.276658773, 
222,2854726424,-58.06970978,-80.60617065,-46.16445923,9.604951859,-1.581714749,0.756624639,1.702098608,6.807798862,1.088392615, 
223,2854743091,-57.19847107,-80.57172394,-46.99610519,9.607778549,-1.60373199,0.780608892,1.971826077,6.39653635,0.599484563, 
224,2854759758,-56.31547546,-80.54844666,-47.82372665,9.533074379,-1.513297915,0.758934617,2.908533335,5.988870621,-0.094305962, 
225,2854776425,-55.47250748,-80.53598022,-48.60826874,9.490037918,-1.334061146,0.825684905,3.081675291,5.243592262,-0.537956357, 
226,2854793092,-54.64861679,-80.53232574,-49.38095474,9.618002892,-1.274320722,0.831462562,2.624539852,4.814042091,-1.010331392, 
227,2854809759,-53.89347839,-80.52983856,-50.09637451,9.728813171,-1.337449074,0.948965311,1.904554129,4.264623165,-0.836523652, 
228,2854826426,-53.21700668,-80.52672577,-50.75003052,9.837438583,-1.408308029,0.785030663,0.834493935,3.760796547,-0.52274245, 
229,2854843093,-52.56047058,-80.51303101,-51.38870621,9.84678936,-1.501988411,0.772821724,0.531470001,4.000019073,-0.007043493, 
230,2854859760,-51.91111755,-80.49192047,-52.01380539,9.770723343,-1.423362851,0.665608943,0.903622508,4.1596241,0.344305158, 
231,2854876427,-51.19835281,-80.45523834,-52.69886398,9.75184536,-1.39799881,0.644456089,1.182378411,5.204264164,0.605900526, 
232,2854893094,-50.43872452,-80.40007782,-53.39965057,9.700796127,-1.382268071,0.754095078,3.049903154,6.051968098,1.255169749, 
233,2854909761,-49.6478653,-80.32344055,-54.10089111,9.617003441,-1.197481036,0.753451943,4.917159557,6.908970356,2.090477228, 
234,2854926428,-48.90276337,-80.23092651,-54.74180603,9.645840645,-1.007795691,0.89047581,5.758127213,7.118610382,3.051760435, 
235,2854943095,-48.11922073,-80.11151123,-55.41893387,9.524813652,-1.046574831,0.926325738,5.929374218,8.536185265,3.863350868, 
236,2854959762,-47.39697647,-79.9841156,-56.03243637,9.569194794,-1.120772362,0.912837029,6.041059017,8.45471096,4.470973969, 
237,2854976429,-46.67033005,-79.8423996,-56.6263237,9.820169449,-1.21118927,0.926123917,7.467163086,8.991721153,5.060541153, 
238,2854993096,-45.96321487,-79.68422699,-57.20797729,10.00439072,-1.214254737,0.898983657,7.037484169,9.68471241,5.665014267, 
239,2855009763,-45.32478333,-79.50839996,-57.74266434,9.910446167,-1.41027844,0.907896399,5.716687679,10.18259811,6.573112965, 
240,2855026430,-44.75033569,-79.31806183,-58.22310638,9.965428352,-1.557185888,0.858509839,5.082670212,10.50960827,7.40990591, 
241,2855043097,-44.11698151,-79.10134888,-58.74580765,9.817171097,-1.58912766,0.907110214,6.152797699,12.11158466,7.963258743, 
242,2855059764,-43.50093079,-78.87097168,-59.24126434,9.60050106,-1.478951216,1.067786694,6.753774643,12.64463806,8.502240181, 
243,2855076431,-42.92906952,-78.63652802,-59.68958282,9.549937248,-1.362571836,1.163913012,6.903442383,12.59132481,8.822795868, 
244,2855093098,-42.40194702,-78.39668274,-60.07691574,9.594003677,-1.388143301,1.322997808,7.81886673,12.4865942,9.359741211, 
245,2855109765,-41.9730835,-78.16152954,-60.34975433,9.587101936,-1.300028205,1.481453419,8.67215538,11.46625996,10.00985718, 
246,2855126432,-41.60274506,-77.91786194,-60.58799362,9.521995544,-1.402083397,1.398337364,7.198885441,11.65880394,10.53181839, 
247,2855143099,-41.25364685,-77.67651367,-60.78750992,9.419441223,-1.662879705,1.198600292,8.215864182,11.32307148,10.6732502, 
248,2855159766,-40.82016754,-77.43987274,-61.03572464,9.295643806,-1.754792452,1.539224267,10.44216347,11.62333298,9.868860245, 
249,2855176433,-40.34389877,-77.24880219,-61.29523087,9.071714401,-1.796639085,1.841255546,12.35735512,9.737031937,7.813617706, 
250,2855193100,-39.90904999,-77.12307739,-61.49975586,8.856526375,-1.844012737,2.085649252,13.09908199,6.324747562,5.704125881, 
251,2855209767,-39.62816238,-77.09727478,-61.57576752,9.240441322,-1.779117703,1.809227347,11.37527752,0.624802887,3.107814312, 
252,2855226434,-39.28033447,-77.08778381,-61.75133133,9.683134079,-1.904402971,1.677353382,9.570091248,0.716560304,1.425455928, 
253,2855243101,-38.95883179,-77.10189819,-61.91859055,9.682973862,-1.991081595,1.518352151,8.493294716,-0.465907961,0.579596281, 
254,2855259768,-38.64585876,-77.12420654,-62.10374832,9.837527275,-1.716992736,1.258615971,6.926398754,-0.694629312,0.057814278, 
255,2855276435,-38.31192017,-77.12880707,-62.36380768,9.798808098,-1.627806067,1.389252305,3.817745924,0.759384632,-0.086161129, 
256,2855293102,-38.00100327,-77.12782288,-62.62079239,9.589924812,-1.585799813,1.395202756,2.614973068,1.002256989,0.131245881, 
257,2855309769,-37.7274971,-77.13019562,-62.8347702,9.569973946,-1.380530834,1.320016026,2.89048934,0.489964545,0.436216265, 
258,2855326436,-37.42339325,-77.11106873,-63.08607864,9.719256401,-1.33334291,1.391295195,2.547215223,1.825423598,0.810686767, 
259,2855343103,-37.14699173,-77.08435059,-63.32598877,9.665403366,-1.419837594,1.5136832,1.556707859,2.107137442,1.187884927, 
260,2855359770,-36.9144516,-77.06445313,-63.5496254,9.597286224,-1.545399308,1.549712539,-0.125182062,1.657224894,1.089801073, 
261,2855376437,-36.71769714,-77.05667877,-63.75830078,9.49302578,-1.715903044,1.501791835,-1.382547855,0.95524478,0.787519991, 
262,2855393104,-36.51320648,-77.05935669,-63.97981644,9.579823494,-1.606322169,1.501779199,-1.677349925,0.56426698,0.249717399, 
263,2855409771,-36.23652267,-77.05639648,-64.27199554,9.429264069,-1.69269383,1.587151051,-1.4646492,1.395885587,-0.337088704, 
264,2855426438,-35.98884583,-77.09355927,-64.52870178,9.474663734,-1.62528336,1.497748375,-1.13899672,-0.836421013,-1.396353006, 
265,2855443105,-35.65857697,-77.12516022,-64.88574982,9.570590973,-1.727087259,1.475001216,-2.047402382,0.204831183,-2.300046444, 
266,2855459772,-35.31489182,-77.17866516,-65.25041199,9.697266579,-1.681404948,1.440574527,-1.673930883,-0.841530919,-3.16451335, 
267,2855476439,-34.92570114,-77.22510529,-65.66628265,9.648069382,-1.598424315,1.539344907,-1.958206534,-0.126462728,-3.475887299, 
268,2855493106,-34.58317947,-77.29036713,-66.03955078,9.555662155,-1.454685211,1.49788332,-2.25692749,-1.427165389,-3.662104607, 
269,2855509773,-34.22152328,-77.34614563,-66.43353271,9.558374405,-1.434288859,1.450360179,-2.327912807,-0.840327084,-3.553966999, 
270,2855526440,-33.85695267,-77.40117645,-66.82819366,9.480653763,-1.459393978,1.514408469,-2.190679789,-0.840864956,-3.529724836, 
271,2855543107,-33.52428818,-77.46219635,-67.19029236,9.600193977,-1.404259801,1.448914766,-2.206367493,-1.412514567,-3.367032528, 
272,2855559774,-33.1641655,-77.5166626,-67.57564545,9.751527786,-1.410775065,1.400676608,-1.928815722,-0.950103223,-3.391736984, 
273,2855576441,-32.78562546,-77.56787872,-67.98045349,9.725412369,-1.492480993,1.500632524,-1.955632329,-0.692605972,-3.493163109, 
274,2855593108,-32.36198807,-77.62621307,-68.4411087,9.522100449,-1.642758369,1.570736527,-2.533928633,-0.702927887,-4.324371815, 
275,2855609775,-31.95867348,-77.71606445,-68.889534,9.407804489,-1.710398912,1.605621099,-3.030482292,-2.454081059,-5.1924119, 
276,2855626442,-31.54303741,-77.82930756,-69.34318542,9.389871597,-1.535744429,1.560946703,-2.606374502,-3.688460112,-5.959641457, 
277,2855643109,-31.13651657,-77.95875549,-69.78942871,9.479698181,-1.336079955,1.601577282,-2.744183779,-4.646631718,-6.335225582, 
278,2855659776,-30.77621078,-78.09285736,-70.19940948,9.558759689,-1.276247025,1.532220125,-3.391045332,-5.205167294,-6.023647308, 
279,2855676443,-30.49259377,-78.23661041,-70.53037262,9.731963158,-1.079205394,1.288859487,-3.364408016,-6.271655083,-5.4190979, 
280,2855693110,-30.17997742,-78.34080505,-70.8897934,9.82303524,-1.165294409,1.176980853,-3.298212051,-4.098148346,-4.459325314, 
281,2855709777,-29.84593201,-78.41403198,-71.24761963,9.760702133,-1.233494997,1.137790799,-1.94068706,-2.525784016,-3.471161366, 
282,2855726444,-29.46051598,-78.44363403,-71.62553406,9.735549927,-1.179764748,1.151740074,-0.012434965,-0.16695638,-2.367228031, 
283,2855743111,-29.06863976,-78.44554901,-71.97814941,9.670782089,-1.254287004,1.223282576,1.863061309,1.118756294,-1.29768014, 
284,2855759778,-28.64892769,-78.42635345,-72.31569672,9.696015358,-1.266527057,1.243087411,4.404046059,2.140472651,-0.553106248, 
285,2855776445,-28.18904877,-78.38585663,-72.66234589,9.680088997,-1.282656908,1.347232819,6.284736633,3.308284044,-0.09027198, 
286,2855793112,-27.74127579,-78.34740448,-72.97086334,9.685764313,-1.300051093,1.401976466,7.833920479,2.980428696,0.210760534, 
287,2855809779,-27.2906723,-78.30107117,-73.27877045,9.61419487,-1.385288596,1.40915525,8.00114727,3.401105165,0.37356773, 
288,2855826446,-26.87553596,-78.25482941,-73.56423187,9.467122078,-1.406471133,1.590903521,7.226489544,3.262642145,0.555289805, 
289,2855843113,-26.50304031,-78.22496796,-73.79946136,9.519262314,-1.222060919,1.600548506,7.602958679,2.109468699,0.604978442, 
290,2855859780,-26.17045403,-78.1997757,-74.00197601,9.627313614,-0.988150835,1.570273161,7.136870384,1.680199623,0.809457421, 
291,2855876447,-25.9171524,-78.18929291,-74.15525055,9.73177433,-0.853608549,1.540990829,5.283459663,0.613097668,0.945729852, 
292,2855893114,-25.74224091,-78.17698669,-74.27655029,9.692311287,-1.015979767,1.532986164,2.435953379,0.548784077,1.339934587, 
293,2855909781,-25.63178062,-78.1786499,-74.3644104,9.764269829,-1.171010733,1.398445487,0.52888298,-0.379285634,1.338295579, 
294,2855926448,-25.46027184,-78.16509247,-74.52233887,9.831856728,-1.268761158,1.354905605,0.091943197,0.823685288,0.945832253, 
295,2855943115,-25.2824955,-78.14602661,-74.68976593,9.682395935,-1.289595485,1.446635365,-0.081768535,1.181622624,0.962493181, 
296,2855959782,-25.15955353,-78.13235474,-74.81032562,9.541701317,-1.14199996,1.394174576,-0.62666589,0.652349055,1.325463653, 
297,2855976449,-25.00772095,-78.1031723,-74.96248627,9.658881187,-1.121927857,1.341568589,-0.762080312,1.674231887,1.34994936, 
298,2855993116,-24.82148361,-78.06044006,-75.1309433,9.672049522,-1.09942925,1.382820129,0.37113443,2.501726866,1.491344333, 
299,2856009783,-24.64830589,-78.00421906,-75.28191376,9.685112953,-1.194641232,1.424236298,0.605388165,3.165428877,2.001639128, 
300,2856026450,-24.50411606,-77.94255066,-75.39269257,9.679231644,-1.172963142,1.467440963,1.224588156,3.264639854,2.564734221, 
301,2856043117,-24.40089798,-77.87730408,-75.47476196,9.781162262,-1.119163275,1.453933597,0.469756097,3.324803591,2.961628437, 
302,2856059784,-24.3198185,-77.80474854,-75.55407715,9.719276428,-1.135017395,1.50725317,-0.709125936,3.730496168,3.154991388, 
303,2856076451,-24.28668213,-77.73704529,-75.60067749,9.685198784,-1.243293285,1.480364442,-1.668564796,3.301944017,3.392920732, 
304,2856093118,-24.21884346,-77.65473938,-75.68639374,9.6154356,-1.307760954,1.457961082,-1.87637341,4.324646473,3.284361362, 
305,2856109785,-24.13739204,-77.58084106,-75.78161621,9.631217957,-1.283241034,1.633704543,-1.605096936,3.919915676,2.936938286, 
306,2856126452,-24.05455017,-77.51390076,-75.88601685,9.60683918,-1.23764205,1.574767828,-2.059337378,3.600614071,2.63493824, 
307,2856143119,-23.93097687,-77.44384766,-76.02127075,9.503780365,-1.380657434,1.630800128,-1.432723522,3.948742867,2.318993568, 
308,2856159786,-23.80507851,-77.39098358,-76.13493347,9.541348457,-1.368081212,1.597363949,-0.019516878,2.896290779,2.12790966, 
309,2856176453,-23.63268471,-77.33413696,-76.27732849,9.585806847,-1.290082097,1.52449584,1.081861258,3.278573275,1.847079277, 
310,2856193120,-23.4515686,-77.27310181,-76.424263,9.664589882,-1.256974816,1.524758339,1.366072536,3.540565014,1.865712047, 
311,2856209787,-23.24781609,-77.20238495,-76.57965851,9.571290016,-1.259742618,1.605193138,2.230834246,4.132577896,1.958929896, 
312,2856226454,-23.05558014,-77.14104462,-76.7171936,9.559612274,-1.236942649,1.659980893,2.616971493,3.534495592,1.929859519, 
313,2856243121,-22.85198021,-77.08692932,-76.86678314,9.560827255,-1.419994354,1.68163693,2.549904585,3.208355904,1.570628405, 
314,2856259788,-22.63986206,-77.04696655,-77.00669098,9.674808502,-1.258082032,1.643227935,3.637842417,2.375853539,1.324631453, 
315,2856276455,-22.41652107,-77.00232697,-77.16807556,9.58377552,-1.232274413,1.697067738,3.067267895,2.756534576,1.144266605, 
316,2856293122,-22.20640945,-76.97681427,-77.31621552,9.531261444,-1.314553142,1.747706413,3.012495518,1.631996512,0.837413669, 
317,2856309789,-21.99155045,-76.95890808,-77.48132324,9.451849937,-1.252572417,1.803660631,2.334168673,1.289080858,0.433411747, 
318,2856326456,-21.77376938,-76.95992279,-77.64804077,9.341977119,-1.292534828,1.851390719,2.388787508,0.250793159,-0.030197371, 
319,2856343123,-21.57553101,-76.9907608,-77.79601288,9.470463753,-1.239796519,1.808584929,2.316009283,-1.521176696,-0.46896854, 
320,2856359790,-21.37772369,-77.02688599,-77.95311737,9.585368156,-1.230011821,1.732289314,1.712945342,-1.773551226,-0.708600938, 
321,2856376457,-21.19847679,-77.06692505,-78.08650208,9.586429596,-1.208518147,1.647528648,2.057410479,-2.127172947,-0.483529329, 
322,2856393124,-21.03590012,-77.10198975,-78.20243073,9.636173248,-1.110776424,1.62146771,2.016519785,-1.924026132,-0.166789889, 
323,2856409791,-20.90673065,-77.13113403,-78.29627991,9.731758118,-1.085485935,1.557603359,1.34412241,-1.701400399,0.246605471, 
324,2856426458,-20.8234787,-77.14897919,-78.36051941,9.862791061,-1.120467663,1.569596529,0.30943343,-1.19966054,0.853985071, 
325,2856443125,-20.75289917,-77.16271973,-78.42060852,9.817404747,-1.103139997,1.506615162,-0.195424914,-0.981683493,0.991269231, 
326,2856459792,-20.69672585,-77.16199493,-78.4835968,9.606367111,-1.23031795,1.680044889,-1.237759471,-0.146133259,1.256604075, 
327,2856476459,-20.64382744,-77.18232727,-78.54537964,9.483151436,-1.206585646,1.730922818,-1.365630627,-1.330656528,0.814541399, 
328,2856493126,-20.58137131,-77.21521759,-78.62176514,9.560001373,-1.259389281,1.68829751,-1.649662733,-1.965326548,0.359954476, 
329,2856509793,-20.47298813,-77.25457001,-78.74989319,9.568276405,-1.282804728,1.604316354,-1.910566568,-2.081505537,-0.416769862, 
330,2856526460,-20.33132935,-77.29646301,-78.92201996,9.543354034,-1.231191158,1.674216866,-2.492897272,-2.029806852,-1.02359879, 
331,2856543127,-20.1837101,-77.35425568,-79.10410309,9.515605927,-1.193328977,1.710578203,-2.784215927,-2.874679804,-1.484819293, 
332,2856559794,-20.03513145,-77.42189026,-79.29650879,9.610507011,-1.154192805,1.68245995,-3.330445528,-3.391544819,-1.804671168, 
333,2856576461,-19.90340996,-77.4954071,-79.47932434,9.668435097,-1.170885444,1.600220561,-3.822862148,-3.776246786,-1.805016637, 
334,2856593128,-19.79223824,-77.56620789,-79.64474487,9.721392632,-1.077278018,1.56607306,-3.988269091,-3.703686237,-1.511444092, 
335,2856609795,-19.71319962,-77.62774658,-79.77791595,9.710375786,-1.024614334,1.493097186,-3.969380379,-3.33600378,-0.911556184, 
336,2856626462,-19.66056061,-77.67420959,-79.87320709,9.670654297,-1.048658729,1.478960514,-3.392402411,-2.629745483,-0.15103811, 
337,2856643129,-19.62029266,-77.70688629,-79.94934845,9.618170738,-1.112897873,1.47992003,-2.88963747,-1.941967487,0.383390069, 
338,2856659796,-19.59778976,-77.73765564,-79.98777008,9.666922569,-1.12349844,1.465195417,-1.923552275,-1.970884562,0.834609091, 
339,2856676463,-19.57225609,-77.75431061,-80.02578735,9.683348656,-1.065000772,1.552591562,-1.64801085,-1.172767162,1.131575465, 
340,2856693130,-19.57901001,-77.77679443,-80.03256989,9.571985245,-1.117479563,1.619092464,-1.807923555,-1.630030632,1.371924996, 
341,2856709797,-19.60188866,-77.80854797,-80.02462769,9.583724976,-1.12026298,1.609996319,-1.85567832,-2.212706804,1.36841619, 
342,2856726464,-19.64705276,-77.84656525,-80.00150299,9.654959679,-1.12334311,1.52625525,-2.28946805,-2.62791419,1.418028116, 
343,2856743131,-19.69132614,-77.88078308,-79.98484802,9.633376122,-1.092472911,1.547419786,-2.673710108,-2.37333703,1.397614717, 
344,2856759798,-19.7620945,-77.92176056,-79.94765472,9.610963821,-1.078786254,1.507831097,-3.003755093,-2.844994545,1.505072713, 
345,2856776465,-19.83148956,-77.96111298,-79.91346741,9.674386978,-1.150547147,1.424149752,-3.251724482,-2.721580029,1.461710453, 
346,2856793132,-19.85760689,-77.9896698,-79.91928101,9.706401825,-1.21342051,1.44166398,-2.981715202,-1.927061319,1.206531048, 
347,2856809799,-19.88793755,-78.01863861,-79.91323853,9.663414001,-1.175624609,1.451704144,-2.359108925,-2.011621714,1.365688443, 
348,2856826466,-19.91000938,-78.03833771,-79.90687561,9.750525475,-1.08706522,1.351776004,-1.646614909,-1.502095103,1.588518739, 
349,2856843133,-19.91674614,-78.03481293,-79.90300751,9.702264786,-1.12565279,1.383666515,-0.994080245,-0.163255364,2.003470421, 
350,2856859800,-19.93232918,-78.0244751,-79.87823486,9.650723457,-1.092600584,1.427597523,-0.369117439,0.154463783,2.369859695, 
351,2856876467,-19.96200371,-78.00421906,-79.8429184,9.654994965,-1.148689389,1.440714002,-0.477689683,0.664284647,2.714786053, 
352,2856893134,-19.99613762,-77.98461151,-79.79593658,9.65294075,-1.132775784,1.444151044,-0.136362016,0.588675916,2.816929579, 
353,2856909801,-20.01624107,-77.95708466,-79.73823547,9.69553566,-1.127970576,1.440171242,0.1344859,1.093912125,2.846422911, 
354,2856926468,-20.03703308,-77.92527771,-79.69724274,9.660011292,-1.139737368,1.517331004,0.199311614,1.324989676,2.965162992, 
355,2856943135,-20.09021759,-77.8994751,-79.64026642,9.581481934,-1.0751791,1.517953396,-0.348409563,0.880238116,3.122629881, 
356,2856959802,-20.24746132,-77.88538361,-79.49784088,9.536406517,-1.02720511,1.572654605,-2.291555882,-0.088824846,3.738615513, 
357,2856976469,-20.38648224,-77.85381317,-79.35463715,9.588555336,-1.074119091,1.584437013,-0.778536439,0.855509043,4.190295696, 
358,2856993136,-20.57292557,-77.87366486,-79.16618347,9.655223846,-1.238963962,1.673395395,-2.41591835,-2.107400417,3.343539953, 
359,2857009803,-20.65030098,-77.88211823,-79.08274078,9.571866989,-1.486772776,1.235894918,-0.684806824,-1.128521204,2.613884926, 
360,2857026470,-20.62572289,-77.88961029,-79.12060547,9.454800606,-1.610318661,1.565150857,-1.692692161,-0.521999657,1.188025951, 
361,2857043137,-20.47639275,-77.90895844,-79.29125214,9.816721916,-1.203690052,1.368442535,-0.768982828,-0.708383262,-0.383089155, 
362,2857059804,-20.25697136,-77.88646698,-79.45731354,9.462159157,-1.082101226,1.649056196,1.749814987,1.795828104,0.126046494, 
363,2857076471,-20.23062134,-77.93878174,-79.4727478,9.662478447,-0.952943921,1.547122478,-0.22635223,-3.145213842,0.505229712, 
364,2857093138,-20.14330673,-77.93770599,-79.55319214,9.74089241,-1.223973274,1.338854194,-0.631801248,0.174083099,0.801453352, 
365,2857109805,-20.04499817,-77.94245911,-79.61940765,9.50741291,-1.151515245,1.513113618,1.344519377,-0.25721553,0.937930644, 
366,2857126472,-19.95263481,-77.95361328,-79.69599915,9.66701889,-1.072673202,1.473873496,0.635559916,-0.588093221,0.736333072, 
367,2857143139,-19.85188675,-77.96530914,-79.78559113,9.664361,-1.325295806,1.437674522,-0.075762369,-0.528377175,0.473188251, 
368,2857159806,-19.69255829,-77.97419739,-79.92074585,9.627196312,-1.24052906,1.454171658,0.169869825,-0.118125759,-0.136131495, 
369,2857176473,-19.51107597,-77.99002075,-80.08059692,9.561733246,-1.1070472,1.61327374,-0.029736342,-0.407587677,-0.593087614, 
370,2857193140,-19.35422897,-78.02521515,-80.2355957,9.620927811,-1.077375889,1.5773803,-0.62998271,-1.57683301,-0.794659615, 
371,2857209807,-19.21188354,-78.06582642,-80.38554382,9.622301102,-1.1235466,1.529649854,-1.132619262,-1.915996313,-0.821962714, 
372,2857226474,-19.09573364,-78.1128006,-80.50790405,9.639003754,-1.056934595,1.514306784,-1.310025573,-2.380213737,-0.666211963, 
373,2857243141,-19.01602554,-78.16226196,-80.59759521,9.633128166,-1.004810572,1.435240626,-1.615661979,-2.645702124,-0.33163324, 
374,2857259808,-18.96374702,-78.20248413,-80.65872955,9.69961071,-1.079762101,1.392050266,-2.615530729,-2.152760506,-0.028839903, 
375,2857276475,-18.93416595,-78.23542023,-80.7144928,9.677567482,-1.090872884,1.378292561,-2.428032875,-1.857240915,0.43045342, 
376,2857293142,-18.91630745,-78.25380707,-80.72787476,9.697164536,-1.011132836,1.361074209,-1.742854714,-1.103075027,0.975017965, 
377,2857309809,-18.9221096,-78.26196289,-80.72603607,9.691677094,-1.016958356,1.428442717,-1.452585816,-0.648744047,1.515189648, 
378,2857326476,-18.94530869,-78.26274872,-80.69787598,9.709059715,-1.104218602,1.384179235,-0.863532245,-0.33277303,1.978766918, 
379,2857343143,-18.9852581,-78.25417328,-80.64527893,9.717780113,-1.093509793,1.369759202,-0.426003247,0.106004559,2.44084549, 
380,2857359810,-19.0347805,-78.23124695,-80.5861969,9.68235302,-1.094240189,1.396267176,-0.30184567,0.872272611,2.857795, 
381,2857376477,-19.11039162,-78.20532227,-80.48982239,9.645626068,-1.130085349,1.414533734,-0.058460996,0.926430643,3.268366575, 
382,2857393144,-19.16671562,-78.16905975,-80.41468811,9.659714699,-1.14310348,1.395492792,0.439917356,1.553852201,3.345934391, 
383,2857409811,-19.2013588,-78.12774658,-80.34257507,9.691917419,-1.07966435,1.368102431,1.360693812,1.869950891,3.368422031, 
384,2857426478,-19.22736549,-78.07352448,-80.29006195,9.670056343,-1.10327661,1.479696751,0.935395062,2.663675785,3.436206341, 
385,2857443145,-19.2661171,-78.03462219,-80.21235657,9.59539032,-1.201600075,1.504388213,1.120907903,1.740338445,3.320283175, 
386,2857459812,-19.28290176,-77.99856567,-80.18408966,9.640182495,-1.162706614,1.497616887,0.564523101,1.698179483,2.895944595, 
387,2857476479,-19.28471375,-77.96582794,-80.16854858,9.665606499,-1.158017516,1.476925611,0.124829896,1.611327052,2.550967216, 
388,2857493146,-19.28897667,-77.94306946,-80.14714813,9.584468842,-1.088308215,1.502112389,-0.100068815,1.063496947,2.330954313, 
389,2857509813,-19.29349899,-77.9238205,-80.12984467,9.603808403,-1.153364539,1.534026146,-1.002263308,0.937559247,2.071318388, 
390,2857526480,-19.29817772,-77.91999054,-80.11242676,9.664305687,-1.122211456,1.47307384,-0.848266959,0.058825966,1.801283598, 
391,2857543147,-19.29364586,-77.90250397,-80.14026642,9.640999794,-1.146021605,1.497766733,-1.262321949,0.872618258,1.885293365, 
392,2857559814,-19.29203987,-77.89437103,-80.14108276,9.686691284,-1.08445859,1.417036533,-0.883843005,0.323853374,1.799849153, 
393,2857576481,-19.29419899,-77.86699677,-80.12970734,9.717686653,-1.131145597,1.440276384,-1.157425046,1.437698483,2.16319108, 
394,2857593148,-19.32688141,-77.84754944,-80.09880829,9.657952309,-1.072823405,1.532340765,-1.113140821,0.84686476,2.389786482, 
395,2857609815,-19.40164185,-77.82775879,-80.0327301,9.636136055,-1.144732594,1.510578394,-1.808768749,0.743888795,2.76540947, 
396,2857626482,-19.50667572,-77.81292725,-79.94393921,9.663448334,-1.106298089,1.497390032,-1.804747343,0.322547138,3.040169716, 
397,2857643149,-19.61849403,-77.78733063,-79.82883453,9.643097878,-1.191068649,1.478765249,-1.73514545,0.917466223,3.34722805, 
398,2857659816,-19.73101044,-77.76371765,-79.73379517,9.62786293,-1.165904403,1.4815346,-1.957540393,0.796190083,3.27739501, 
399,2857676483,-19.84690094,-77.74003601,-79.62438202,9.587940216,-1.233808875,1.490765095,-1.525940776,0.759205341,3.40586853, 
400,2857693150,-19.95040512,-77.71659851,-79.53727722,9.612412453,-1.162382126,1.558965206,-1.497279882,0.787737727,3.260298252, 
401,2857709817,-20.0743866,-77.70195007,-79.42804718,9.603158951,-1.113687873,1.55208075,-1.272682309,0.175696731,3.377566099, 
402,2857726484,-20.21960068,-77.68956757,-79.29262543,9.611737251,-1.185544729,1.576225996,-2.072054863,0.031330738,3.422119856, 
403,2857743151,-20.3821888,-77.68647003,-79.13547516,9.596186638,-1.310124874,1.529616594,-2.173429728,-0.556948125,3.418277025, 
404,2857759818,-20.53303528,-77.68531799,-79.01363373,9.62143898,-1.25986886,1.526512504,-1.977364779,-0.666775525,3.276395798, 
405,2857776485,-20.7046299,-77.68549347,-78.87644958,9.5725317,-1.193518519,1.590301871,-2.443796873,-0.796503663,3.401872158, 
406,2857793152,-20.90395164,-77.70032501,-78.71152496,9.599786758,-1.133001685,1.491384506,-2.823044777,-1.713079929,3.34220767, 
407,2857809819,-21.0967598,-77.70833588,-78.5485611,9.630553246,-1.274734259,1.467885494,-2.891251564,-1.287371397,3.385147333, 
408,2857826486,-21.28575134,-77.7173996,-78.3937149,9.637905121,-1.244733453,1.529191256,-2.334623337,-1.394355416,3.423259258, 
409,2857843153,-21.48851395,-77.72995758,-78.23352051,9.569913864,-1.248979688,1.525316954,-2.401382923,-1.663545132,3.496780396, 
410,2857859820,-21.72311211,-77.74740601,-78.07766724,9.598491669,-1.187725306,1.50620389,-2.682597399,-2.105812311,3.721596003, 
411,2857876487,-21.97393036,-77.76083374,-77.89422607,9.620354652,-1.203300953,1.470222354,-2.840768814,-1.943427682,3.949228764, 
412,2857893154,-22.22855759,-77.77362823,-77.67139435,9.584158897,-1.362961054,1.449075937,-2.716995478,-1.898848772,4.011954308, 
413,2857909821,-22.46562004,-77.78730011,-77.44818878,9.648312569,-1.350692272,1.416462898,-2.163223028,-1.89797771,3.875054121, 
414,2857926488,-22.69485855,-77.79341888,-77.17182159,9.665437698,-1.245935202,1.464800715,-1.667783976,-1.423336267,4.016372204, 
415,2857943155,-22.97388458,-77.79924011,-76.91633606,9.650835991,-1.10367775,1.487830281,-1.532651544,-1.769377112,4.667102337, 
416,2857959822,-23.3224411,-77.7973938,-76.50161743,9.677044868,-1.15789938,1.38481307,-1.996471405,-1.559877396,5.538919449, 
417,2857976489,-23.70742035,-77.77476501,-76.11590576,9.77177906,-1.155732512,1.352230668,-1.597195506,-0.749670982,6.569447517, 
418,2857993156,-24.18794632,-77.73635864,-75.63269043,9.816430092,-1.079425812,1.340601802,-1.579112887,-0.432483315,8.100985527, 
419,2858009823,-24.80537415,-77.6713028,-74.91034698,9.828479767,-0.936618507,1.291161418,-1.844793558,0.37250483,10.32410526, 
420,2858026490,-25.65209389,-77.5573349,-74.07951355,10.00789738,-0.805194676,1.183722496,-2.764533997,1.554032326,14.2256031, 
421,2858043157,-26.79430962,-77.34177399,-73.08127594,10.31730843,-0.692558348,1.09589994,-3.34484458,4.895895004,20.5618248, 
422,2858059824,-28.26685524,-76.97341919,-71.60745239,10.66248989,-0.509895742,0.769170582,-4.43046093,10.66648865,28.9673214, 
423,2858076491,-29.96654701,-76.39138794,-69.88671875,11.23244667,-0.240041807,0.219087243,-3.120992422,19.03157425,39.24472809, 
424,2858093158,-31.67223358,-75.50174713,-68.20030212,11.96577835,-0.015999712,-0.029760376,-6.097988129,33.43920898,49.87154388, 
425,2858109825,-33.18804932,-74.25878143,-66.81015015,12.27102184,-0.381282717,0.095430151,-8.092347145,50.82132339,60.79339218, 
426,2858126492,-34.40802002,-72.73668671,-65.66025543,12.29216766,-1.109717131,0.148267254,-10.27579784,65.55693817,68.20544434, 
427,2858143159,-35.31451035,-71.01683807,-64.90740967,12.10959053,-2.378357887,0.669104397,-12.4437952,76.8469696,72.21295166, 
428,2858159826,-36.1236496,-69.53486633,-64.1624527,11.61127472,-2.567569494,-0.296925634,-7.396744728,63.62928391,65.87155151, 
429,2858176493,-36.42513657,-68.3478241,-63.95431137,12.71228218,-1.381538272,-1.675293684,-7.323845387,55.06766129,47.46963882, 
430,2858193160,-35.95524216,-67.02168274,-64.66204071,10.17815781,-1.954395533,0.869703054,-12.00265884,74.15118408,35.69693756, 
431,2858209827,-35.61260605,-66.04696655,-65.32164001,8.076230049,-0.958805621,0.740607858,-16.63494873,57.11099625,23.15577316, 
432,2858226494,-35.33519363,-65.62469482,-65.77178955,7.085515022,-0.821552336,-0.462991089,-8.887597084,27.53556442,7.467835426, 
433,2858243161,-35.42391205,-65.84396362,-65.87407684,6.060623646,-0.272573709,-3.049961329,-11.81663609,-8.730366707,-7.884762764, 
434,2858259828,-35.63706589,-66.38044739,-66.23283386,6.675894737,0.317932814,-3.879233837,-33.38947678,-20.50133705,-23.99098015, 
435,2858276495,-35.9357872,-67.27000427,-66.60617828,5.831228733,-0.984792948,-2.697720528,-39.46099091,-37.40270996,-36.51211929, 
436,2858293162,-36.41589737,-68.62712097,-66.7339859,6.444207668,-1.768491268,-3.749727964,-36.89802551,-63.20497894,-48.51925278, 
437,2858309829,-37.03214645,-70.29821777,-66.70455933,7.385846138,-2.193843365,-3.387380838,-36.34285736,-79.81262207,-57.59077454, 
438,2858326496,-37.80571747,-72.23716736,-66.41609192,8.306162834,-2.483602047,-2.770416737,-31.09721947,-94.75167084,-64.40766144, 
439,2858343163,-38.68172073,-74.32158661,-65.92186737,9.021265984,-2.616721869,-2.008583307,-25.29910469,-102.4024353,-68.85547638, 
440,2858359830,-39.73242569,-76.49953461,-65.11949921,9.987008095,-2.704972267,-1.083239913,-17.63616943,-107.7579727,-71.34626007, 
441,2858376497,-41.12594986,-78.67203522,-63.92921066,10.89828682,-2.741244555,-0.329891711,-15.10847378,-107.9754486,-70.98874664, 
442,2858393164,-43.36467361,-80.85037231,-61.87413788,10.91826248,-2.372778177,0.085206255,-14.27039337,-110.2589417,-69.7866745, 
443,2858409831,-47.2480545,-82.98323059,-58.20222855,11.1103096,-1.846262217,0.473363101,-16.22140694,-110.7562256,-67.28882599, 
444,2858426498,-54.34039307,-84.98690796,-51.3654747,11.28098202,-1.600601435,0.85876292,-18.94763374,-107.9460754,-63.97918701, 
445,2858443165,-68.42214203,-86.72512054,-37.65663528,11.21400452,-1.347028375,1.171655297,-25.89861488,-100.4701843,-60.60373688, 
446,2858459832,-101.0087204,-87.90239716,-5.624053001,11.01462078,-1.271591425,1.258488536,-36.66980743,-93.66023254,-57.50020599, 
447,2858476499,-147.6443024,-87.87699127,40.28977203,11.03189659,-1.553133607,1.732729197,-46.4752388,-81.25907135,-52.63406754, 
448,2858493166,-174.2383118,-86.98948669,66.14728546,10.20524693,-1.964825511,1.827373981,-47.19942856,-70.51927948,-46.2346077, 
449,2858509833,173.5561066,-85.87992096,77.61416626,9.704725266,-1.68045938,1.724069715,-47.17791748,-65.02722168,-41.16803741, 
450,2858526500,166.6563873,-84.85837555,83.6645813,9.652992249,-1.478507042,1.848074555,-53.70967102,-54.35213089,-37.42902374, 
451,2858543167,162.0020447,-84.04477692,87.39409637,9.61690712,-1.787513852,2.378602982,-58.10265732,-40.29927444,-32.0559082, 
452,2858559834,158.7865143,-83.4492569,89.72850037,9.375401497,-2.335490942,2.460554838,-55.2663269,-27.77630234,-24.41323853, 
453,2858576501,156.4080658,-83.11798096,91.3348465,9.319216728,-2.588707447,2.686905384,-48.54933167,-13.39494514,-16.07251167, 
454,2858593168,154.9688568,-83.08874512,92.17166138,8.927098274,-2.996049643,2.843820333,-38.05296326,1.484897614,-4.330143929, 
455,2858609835,154.338501,-83.35749054,92.3361969,8.855474472,-3.054298401,3.469059467,-29.53751564,15.59614086,7.687855244, 
456,2858626502,154.6427307,-83.8878479,91.68955231,8.845275879,-3.165741444,3.908117056,-21.78252983,27.29484177,19.3734436, 
457,2858643169,156.0766754,-84.66571808,90.08952332,8.872745514,-2.997192621,4.100622654,-10.92945671,38.77022552,29.88012886, 
458,2858659836,158.6324005,-85.5031662,87.57746124,9.242295265,-1.32611835,3.026580334,1.774189949,41.63817978,32.92391968, 
459,2858676503,157.8093872,-85.59718323,88.35932159,8.161067009,7.785151958,-4.869216442,-3.962784767,6.756484985,0.348902702, 
460,2858693170,151.8741455,-85.0388031,94.12316895,11.9462986,11.30790138,-11.57140636,-12.80855179,-18.04323387,-37.98926926, 
461,2858709837,139.5133972,-86.07375336,106.5328674,14.86548424,-1.481423378,-3.634349108,-0.691291332,83.87819672,-10.80779362, 
462,2858726504,114.5275803,-87.49485779,130.9697418,17.20459366,-9.773798943,4.638681889,-36.48994827,115.812294,19.28717804, 
463,2858743171,77.04150391,-87.98851013,168.6682129,11.72692299,-4.368771076,2.238417864,9.722205162,90.28444672,20.79151917, 
464,2858759838,45.2207756,-87.74120331,-159.3162079,11.32617283,-0.30032292,-0.468671113,9.044074059,69.06934357,23.25370789, 
465,2858776505,22.71490479,-86.77693939,-136.9067078,8.666825294,1.951823354,1.525245309,-8.595796585,83.05201721,22.91976357, 
466,2858793172,13.64179897,-85.787323,-128.058609,7.041658401,-0.640715241,3.243030787,-15.92141914,67.27479553,15.85005379, 
467,2858809839,10.04841232,-85.08442688,-124.3053055,8.493822098,-0.620431423,3.741099834,7.596087456,45.16381836,10.5233345, 
468,2858826506,7.723034382,-84.48935699,-121.6461334,11.04785538,-0.65902096,4.336326122,18.1205101,37.66225815,10.43972111, 
469,2858843173,5.742084026,-84.32321167,-119.262764,10.30844307,-1.934123039,0.193852186,22.241436,11.63175297,14.29216385, 
470,2858859840,4.421276569,-83.76876068,-117.9283981,11.0513792,-1.223861217,-1.43385911,-0.837526023,33.97053909,6.90976572, 
471,2858876507,3.746871471,-83.00187683,-117.3046036,8.700763702,-0.058728658,1.481217146,-4.515387535,46.34020615,2.583335876, 
472,2858893174,3.374561548,-82.49962616,-116.9108582,9.373663902,0.497864783,1.191716552,-0.125438616,30.39353371,2.663684845, 
473,2858909841,2.479906797,-81.99859619,-116.1130371,9.900657654,1.220132709,1.881465197,-7.44653511,30.454216,6.485741615, 
474,2858926508,1.040319324,-81.66992188,-114.9204178,9.699904442,1.203587174,1.66531992,-16.75607109,20.13742256,11.1476078, 
475,2858943175,-0.884404957,-81.42178345,-113.330574,10.09877396,0.022388559,0.986151993,-22.32505035,15.00487232,15.62555885, 
476,2858959842,-2.76577425,-81.08892822,-111.6748657,10.22552395,-0.391952038,0.591065705,-15.88096333,19.57618904,17.36133957, 
477,2858976509,-4.644179821,-80.67085266,-109.8959732,10.07157326,0.303151816,0.747539401,-8.505752563,24.04624557,20.1289463, 
478,2858993176,-6.619832516,-80.19498444,-107.9676285,9.751665115,0.718507469,0.838379622,-5.640723705,26.65141296,23.57177734, 
479,2859009843,-8.614587784,-79.64440155,-106.0755234,9.68783474,-0.011271249,1.347474933,-9.104574203,30.24320793,25.72222137, 
480,2859026510,-10.36131096,-79.04862976,-104.3777313,9.311896324,-1.067462802,1.603455663,-5.869954586,32.28644943,26.12302208, 
481,2859043177,-11.74817276,-78.51480865,-102.9020538,9.314154625,-0.973791718,1.60905993,2.467828035,28.26031876,24.69123268, 
482,2859059844,-12.76957893,-77.96897125,-101.7096176,9.579975128,-0.793640316,1.530445099,7.596822262,29.03899765,22.83792877, 
483,2859076511,-13.3881321,-77.38748932,-100.8382568,9.315350533,-1.06168592,1.864924908,12.80435276,31.58716965,20.39167213, 
484,2859093178,-13.74681473,-76.85774231,-100.1464996,9.401181221,-1.322808743,2.055543423,17.79882622,28.84649849,18.06791306, 
485,2859109845,-14.07463932,-76.36438751,-99.46699524,9.524332047,-1.46775496,1.907592416,18.85363197,26.57587433,17.88540459, 
486,2859126512,-14.34033394,-75.87089539,-98.88637543,9.855792046,-1.009322405,1.857500196,16.74022102,26.76534653,16.95876312, 
487,2859143179,-14.62917805,-75.37037659,-98.42151642,9.754760742,-0.879072547,1.910330176,8.555372238,27.45491409,15.79937553, 
488,2859159846,-14.96070862,-74.89028931,-98.00379181,9.593818665,-0.63976568,2.05153513,3.215358496,26.31359482,15.153965, 
489,2859176513,-15.33632946,-74.39488983,-97.6001358,9.759391785,-0.714320898,2.227259636,-0.304254293,27.12565231,15.53923416, 
490,2859193180,-15.84559345,-73.92757416,-97.08835602,9.781222343,-0.377032638,2.390124559,-2.126821518,24.86611176,17.19142151, 
491,2859209847,-16.4652977,-73.46094513,-96.56129456,9.81013298,-0.202943087,2.232450962,-7.950592995,24.53375244,17.90792847, 
492,2859226514,-17.21452141,-72.99136353,-95.98963928,9.866706848,-0.62481159,2.057772875,-13.22187901,24.21388626,19.23984146, 
493,2859243181,-17.97175789,-72.46640015,-95.42167664,9.744231224,-0.966617823,2.178853989,-14.00122261,27.08999443,20.77528191, 
494,2859259848,-18.70701027,-71.90707397,-94.89151764,9.481190681,-0.725471735,2.557924509,-14.93584156,28.92574501,21.40773773, 
495,2859276515,-19.56069183,-71.36844635,-94.26143646,9.603125572,-0.363325596,2.561379433,-16.44066429,26.762043,23.46519661, 
496,2859293182,-20.5559864,-70.79034424,-93.52461243,9.827044487,-0.327520192,2.294394493,-18.99821663,27.8080616,26.99785042, 
497,2859309849,-21.5733223,-70.10675049,-92.77007294,10.15157795,-0.198511317,2.150099754,-19.47068214,32.97800827,30.53096008, 
498,2859326516,-22.60028076,-69.30218506,-92.03624725,10.09749794,-0.575198889,2.358640194,-21.41347504,39.15203094,33.97160339, 
499,2859343183,-23.72056007,-68.40575409,-91.28230286,9.737735748,-1.180423021,2.276133299,-26.11922455,43.21744919,37.84252167, 
500,2859359850,-24.89442444,-67.45048523,-90.44702148,9.711428642,-1.869044542,1.947849751,-25.06918144,44.68015289,42.44662476, 
501,2859376517,-25.87412262,-66.39096832,-89.64269257,9.999707222,-1.688171148,1.995174885,-15.46483803,49.54529953,46.02970505, 
502,2859393184,-26.70875168,-65.2121582,-88.96725464,10.23250771,-1.34678483,2.60500741,-14.17990971,56.30058289,47.90724182, 
503,2859409851,-27.50683594,-63.92755127,-88.43553162,10.0873642,-1.435545802,3.212463856,-20.13306236,62.63463974,49.01247025, 
504,2859426518,-28.24940109,-62.62288284,-88.15601349,10.15957832,-0.658362091,3.510751724,-30.63026047,65.95055389,44.97613907, 
505,2859443185,-29.55975723,-61.44930649,-87.47296143,9.419211388,-4.321714401,2.28256011,-43.46754074,52.64701843,52.59500885, 
506,2859459852,-30.49096107,-60.17488861,-86.85099792,10.78025532,-6.39317894,1.65910399,-24.31711578,57.42062378,55.73243713, 
507,2859476519,-30.99022865,-58.87059784,-86.39878082,10.77307129,-3.338668108,3.401270151,-7.573812485,60.59791183,53.48713303, 
508,2859493186,-31.62893677,-57.56472015,-85.91119385,11.36215305,-1.610188723,3.802177191,-14.44120789,59.33018112,55.53492737, 
509,2859509853,-32.57810211,-56.21557617,-85.36838531,11.33753586,-1.241198182,3.561996222,-30.6515255,59.54057693,59.76861572, 
510,2859526520,-33.79279327,-54.8229866,-84.69216919,12.03090572,-2.02534771,2.139153719,-40.41413498,57.81594849,66.67145538, 
511,2859543187,-35.18671799,-53.33326721,-83.89737701,13.04247665,-2.558390617,1.643953562,-45.9855423,58.35525131,75.41400146, 
512,2859559854,-36.56848907,-51.71545029,-83.05227661,15.06224728,-1.613204122,0.560997963,-43.63087082,61.18427658,83.6472702, 
513,2859576521,-37.75753021,-49.76353455,-82.51847076,14.53431892,-0.384342313,0.102244087,-47.5068512,81.81975555,88.70320129, 
514,2859593188,-39.15330505,-47.72697067,-81.9369278,15.18393421,0.393241793,-0.826032639,-58.47402954,82.24002838,95.8775177, 
515,2859609855,-40.71694183,-45.49059677,-81.61432648,18.19721794,2.491917372,-0.476396084,-80.71516418,95.36569977,98.27472687, 
516,2859626522,-42.10845184,-42.94341278,-81.69367218,20.05947685,2.542320251,0.962142587,-87.78744507,118.0644531,100.6139297, 
517,2859643189,-42.82292175,-39.870121,-82.5046463,19.67646599,0.088698693,1.816586256,-76.0669632,162.0377502,99.78837585, 
518,2859659856,-42.96063995,-36.54613495,-83.86984253,15.29427147,-1.135813713,3.377715349,-59.98416901,191.4710846,90.90558624, 
519,2859676523,-42.85154343,-33.56292343,-85.34089661,10.21049595,0.817493856,3.332802057,-45.21655655,181.9477386,71.35006714, 
520,2859693190,-43.45007706,-31.32111359,-86.25783539,5.934151173,0.101271123,4.892039299,-66.51811981,131.6117096,60.62457657, 
521,2859709857,-45.05739975,-29.579422,-86.77965546,2.982383251,-4.127869606,6.783227921,-113.411438,95.40145111,56.19686127, 
522,2859726524,-46.50004578,-28.33107376,-86.8282547,0.844335914,-7.328556061,4.888538837,-89.08179474,55.72469711,54.55440903, 
523,2859743191,-46.63960648,-28.21024323,-85.79665375,1.962045789,-3.478714228,3.123985291,19.87723351,-33.00861359,45.37549591, 
524,2859759858,-46.47531891,-28.84964371,-84.38392639,3.851182938,-3.728702068,-3.03983736,49.29675293,-78.86746216,25.95485306, 
525,2859776525,-45.27845001,-29.44502449,-84.28047943,0.795892358,-2.525128603,-4.775072098,73.83142853,-27.10887718,-19.33576775, 
526,2859793192,-43.38633728,-30.50751495,-84.43579865,0.188542962,-0.686148822,2.190133333,107.8814774,-38.25182724,-47.89484406, 
527,2859809859,-41.510952,-32.34635162,-84.37537384,1.179805398,0.01714424,2.830840349,113.3725967,-81.82411957,-69.82390594, 
528,2859826526,-39.81609726,-34.64604187,-84.37757874,2.350846767,0.832083702,0.692718208,100.5098343,-102.9461823,-87.68707275, 
529,2859843193,-38.55544662,-37.25870895,-84.46350861,2.88487196,0.484394103,0.654874802,71.43103027,-117.2105713,-100.012146, 
530,2859859860,-37.68192291,-40.30764771,-84.42443848,3.698521614,0.220069006,1.061111569,52.61981201,-143.384079,-109.2360687, 
531,2859876527,-37.18000031,-43.74245453,-84.26813507,4.686645031,-0.341890723,0.623861372,35.05958939,-166.2186584,-117.4745026, 
532,2859893194,-37.00299454,-47.56193924,-83.95385742,5.638572216,-0.581317663,0.071926177,22.70008087,-189.0773926,-125.4267426, 
533,2859909861,-37.16155243,-51.68862152,-83.55809784,7.218585014,-0.969043493,0.138137996,7.093196869,-205.1201172,-134.7338104, 
534,2859926528,-37.53979111,-56.10829544,-83.13098145,8.64217186,-1.902107835,0.603877664,-3.55592227,-218.2744141,-146.5589905, 
535,2859943195,-37.94787979,-60.86761475,-82.78527069,10.07567978,-2.059319496,0.535087705,-8.446048737,-230.774826,-163.8631897, 
536,2859959862,-38.14737701,-65.8476181,-82.65242004,11.42567444,-2.482821941,0.286159694,-6.582578182,-235.8731537,-178.930481, 
537,2859976529,-38.026371,-70.94913483,-82.78011322,13.05879688,-1.727554202,0.575449944,-1.719041705,-237.5806427,-188.5876923, 
538,2859993196,-37.46295166,-76.09355927,-83.4641571,14.22166634,-0.787022948,1.087879777,-7.501543999,-235.4129944,-195.6424866, 
539,2860009863,-36.46747208,-81.43461609,-84.79270935,15.44668961,0.417262137,2.228256226,-20.51937103,-245.2519836,-202.5261383, 
540,2860026530,-30.55017662,-86.76081848,-91.33886719,17.60567284,0.218581483,2.079455853,-38.09208679,-242.4197235,-207.1388397, 
541,2860043197,113.6107864,-87.98452759,123.5878906,19.43190193,-1.121833205,2.933820724,-54.69178009,-214.7524261,-207.8116608, 
542,2860059864,122.9206238,-83.62763214,112.8969955,21.10063934,-3.760569096,5.497882366,-83.62415314,-163.5224762,-204.2402802, 
543,2860076531,120.6128616,-79.72877502,113.3036652,18.2774601,-5.296508312,6.986600876,-116.263649,-119.3645401,-197.9699554, 
544,2860093198,118.4853287,-76.35129547,113.4386826,16.00626564,-8.41447258,5.708467484,-121.5922165,-97.91060638,-174.4124451, 
545,2860109865,116.8602753,-74.08293915,113.3094101,14.70206547,-12.27118778,8.105618477,-106.7910767,-64.55627441,-117.010788, 
546,2860126532,116.6754761,-73.23085785,112.3707657,12.99428082,-15.70687103,10.54904747,-66.79880524,-36.91757965,-36.06833267, 
547,2860143199,116.6737289,-73.77970123,112.7237167,11.99565029,-13.10309696,8.793446541,18.66143608,20.26474953,28.95897865, 
548,2860159866,115.0565872,-75.18030548,114.7339401,10.3616209,-11.41655159,8.283218384,17.79722786,65.70020294,63.57991028, 
549,2860176533,112.7311554,-76.98652649,117.5106583,9.05335331,-11.2097559,7.671358585,20.93895531,80.42418671,84.73535156, 
550,2860193200,110.4611816,-78.52279663,121.8989868,12.11237049,-0.434902579,2.147626162,119.9653473,85.63983917,66.88267517, 
551,2860209867,108.5458145,-78.9083252,126.1728821,7.230829716,11.97044849,-3.968470097,135.4378967,54.78271866,6.811475277, 
552,2860226534,111.609993,-78.69069672,125.0261765,13.8055315,4.804889679,-9.882099152,115.21035,-17.24536896,-5.797994137, 
553,2860243201,101.8824768,-80.11716461,135.4389954,22.03068542,-8.614402771,-1.292214513,29.35697556,134.2785187,50.46736908, 
554,2860259868,87.39408875,-80.91377258,149.6104126,13.91867542,-6.833276749,6.825695992,-31.65699577,142.9762726,37.77296066, 
555,2860276535,77.09400177,-81.2144165,159.586853,14.24966526,-2.125899553,0.138123155,-27.75529099,89.35494995,32.07969666, 
556,2860293202,61.04858017,-80.80191803,174.9697876,9.911009789,1.231055617,9.588097572,-52.00720978,142.8729553,30.19053268, 
557,2860309869,54.89421844,-81.39679718,-178.1184082,7.232102394,2.557204723,2.79747963,39.48082352,35.16379929,65.96927643, 
558,2860326536,46.59856796,-81.71582031,-169.3974152,7.510776997,3.374297857,1.107868075,18.89852142,47.03793716,65.13526917, 
559,2860343203,38.54648209,-81.89504242,-161.4509583,7.489723682,3.628520489,4.618179321,-12.16175461,37.71553802,59.07905197, 
560,2860359870,31.69846153,-82.16015625,-155.067337,9.853474617,-2.328643084,0.948943794,-32.51321411,17.20134544,54.42689514, 
561,2860376537,25.85448456,-82.04485321,-149.4503937,11.23877239,-3.183648825,0.193664968,-17.76533508,27.98571205,39.09762955, 
562,2860393204,20.67255402,-81.66310883,-144.1304779,10.57255554,-0.768779933,0.261314958,4.111062527,38.52571869,34.33969879, 
563,2860409871,15.810853,-81.10967255,-138.9176788,9.70680809,1.050847292,0.756203592,16.59706879,45.81795502,35.93519211, 
564,2860426538,11.29866314,-80.57102203,-134.2387848,9.165028572,1.777971983,2.21512866,5.479404926,41.51869202,37.72620392, 
565,2860443205,7.304472446,-80.2809906,-130.3547058,8.954009056,1.252629995,2.338879585,-10.80663967,23.07945633,37.31716537, 
566,2860459872,3.65513134,-80.1377182,-126.9597931,9.520215988,-0.222968608,0.937614024,-19.18397903,11.51320362,35.55922699, 
567,2860476539,0.306424111,-79.85743713,-123.8697205,9.92519474,-0.740229011,0.670922279,-19.28589821,17.55748558,33.51286316, 
568,2860493206,-2.776741505,-79.41188049,-120.949295,9.852223396,-0.45200932,1.03205359,-13.5892868,25.70583725,34.01067352, 
569,2860509873,-5.701708794,-78.88998413,-118.0937119,9.742495537,0.063189715,1.488877654,-8.186100006,28.4923439,36.3971405, 
570,2860526540,-8.457780838,-78.32305145,-115.3486176,9.707714081,0.302798957,1.61926806,-4.868425846,29.40006828,38.41409683, 
571,2860543207,-11.19141579,-77.72232819,-112.5887604,9.686188698,-0.264636457,1.576668382,-2.994651556,29.30191803,41.95615768, 
572,2860559874,-13.65925407,-77.05701447,-110.0488434,9.994632721,-0.757333994,1.457499981,-0.32272321,31.48042679,43.03268051, 
573,2860576541,-15.7661705,-76.26580811,-107.8481598,10.0302,-0.854311645,1.757688642,1.092285514,37.83802414,43.48052979, 
574,2860593208,-17.54872322,-75.41742706,-105.9469452,9.76536274,-0.792017281,2.061404705,2.689104319,40.42494202,43.28958893, 
575,2860609875,-19.20267296,-74.57632446,-104.2403641,9.727496147,-0.492075741,2.258141518,-1.304649591,39.19927979,43.04088211, 
576,2860626542,-20.75942039,-73.70396423,-102.7329636,9.724204063,-0.581028402,2.219115019,-7.379174232,40.40647507,43.0970192, 
577,2860643209,-22.30917931,-72.80455017,-101.3399658,9.882810593,-0.757321656,2.249350786,-13.92791176,41.02333832,44.20002365, 
578,2860659876,-23.89195061,-71.90531921,-99.93273926,10.16140556,-0.901528597,2.213256598,-15.48103046,39.24799347,46.70716858, 
579,2860676543,-25.61969185,-70.93534088,-98.45318604,10.50976753,-0.157992572,1.867091298,-20.49628067,40.67230606,52.06182861, 
580,2860693210,-27.45262527,-69.81768799,-96.82343292,10.63515854,-0.312287122,1.535720944,-18.84959793,44.9906044,61.34984589, 
581,2860709877,-29.26289368,-68.48440552,-95.12310791,11.26460648,-0.070652202,1.194683433,-14.26768303,52.83107376,71.96641541, 
582,2860726544,-30.98011589,-66.91173553,-93.55131531,11.96543026,0.760092795,1.908877373,-16.77131653,63.34422684,80.3343811, 
583,2860743211,-33.21438217,-65.30988312,-91.53314972,12.60525513,-2.40833807,0.866998732,-24.34195518,55.05643463,94.64264679, 
584,2860759878,-35.02246094,-63.38513947,-89.8344574,12.72243118,-1.990275145,0.593792498,-17.61173248,70.56784058,103.3397751, 
585,2860776545,-36.94404602,-61.27106476,-88.13594055,13.31577682,-1.343242645,1.312004209,-26.04029274,74.55690765,114.8631821, 
586,2860793212,-38.94426346,-59.03976822,-86.49647522,14.50227261,-0.058597635,1.107792258,-35.69887161,75.21792603,122.9667969, 
587,2860809879,-41.27708054,-56.69532394,-84.72912598,16.5134964,0.535974264,0.410495341,-51.18306732,71.00641632,135.8147125, 
588,2860826546,-44.29980469,-54.2709198,-82.62473297,18.95613289,1.508602977,-2.042892694,-78.3457489,57.94178772,153.3794708, 
589,2860843213,-46.90364075,-51.67327118,-80.654953,21.93855476,3.112042904,-7.2706604,-62.90342712,58.0288353,163.2412262, 
590,2860859880,-47.74584961,-48.18333817,-80.48193359,22.68462563,0.922143281,-5.954880714,-43.67778397,136.9615784,160.5853882, 
591,2860876547,-47.78477478,-44.23591614,-81.15520477,19.65185928,-0.187852904,1.395356894,-32.60180283,179.8970337,158.6924744, 
592,2860893214,-47.35390472,-40.12597656,-82.3303833,18.08278656,0.685055673,3.892002583,-22.64196014,204.9928131,148.8736267, 
593,2860909881,-46.76534271,-36.51704788,-83.53944397,7.098898411,-0.549357057,6.987726688,-10.81592369,189.2450104,121.8825531, 
594,2860926548,-46.04513168,-34.54275513,-83.54885101,2.193464756,-0.297298163,2.590298414,41.75715256,82.06785583,87.63223267, 
595,2860943215,-45.66038513,-33.12729263,-83.58607483,2.405300856,-0.231864393,6.329910755,20.7137928,60.53031921,61.79133606, 
596,2860959882,-46.06994247,-32.57698059,-83.37818146,-0.747819066,0.322422057,1.4895401,-18.93716431,15.49964428,33.13708878, 
597,2860976549,-46.77750015,-33.33851624,-82.61965942,1.428472638,5.815552235,-1.15625751,-18.81059647,-59.16466522,-4.623924255, 
598,2860993216,-47.59093475,-34.66211319,-82.30247498,2.468781233,3.028218269,-4.88547945,-39.29455185,-65.54831696,-45.37292099, 
599,2861009883,-47.23270035,-36.18222427,-82.2259903,-1.219199777,-1.892948389,-0.848939776,23.01111031,-64.4653244,-62.46024323, 
600,2861026550,-46.28592682,-38.41164398,-81.82210541,-0.234939471,-1.521942019,0.899367392,70.34849548,-105.6940842,-82.08693695, 
601,2861043217,-45.15999603,-41.26359558,-81.26428986,0.893372297,1.211632848,0.047584645,87.84234619,-137.8906708,-102.4330597, 
602,2861059884,-44.43891144,-44.70291519,-80.7463913,1.981216669,2.449700356,0.108406208,63.29397583,-162.486084,-127.131134, 
603,2861076551,-43.95158768,-48.67638016,-80.27014923,3.705868483,1.144314647,1.165222406,48.87176132,-184.6484222,-149.9876709, 
604,2861093218,-43.47437286,-53.24924088,-79.7723999,4.516448975,0.107199222,1.792920351,50.64148331,-211.3734283,-173.8523102, 
605,2861109885,-43.08252716,-58.42037201,-79.26254272,6.878517151,0.41380015,1.460048914,47.62269592,-237.7310181,-198.0281067, 
606,2861126552,-42.72844696,-64.01730347,-78.83327484,9.422016144,1.034407735,0.881721973,42.62177277,-254.505722,-217.3522797, 
607,2861143219,-42.0582962,-69.81700134,-78.90235901,12.05780888,1.47995615,1.068753958,35.15333176,-255.9924927,-233.6214905, 
608,2861159886,-40.63941574,-75.70426178,-79.63996887,15.48629665,1.119208097,1.960414648,41.50116348,-256.5895691,-241.0013428, 
609,2861176553,-35.95769501,-81.46898651,-83.72333527,18.4953537,-1.084562182,5.392085552,39.21998596,-241.3451691,-250.0477295, 
610,2861193220,-14.09628773,-86.83245087,-105.2071228,19.22574043,-2.459649563,7.25851965,26.54455566,-231.3457184,-249.8964844, 
611,2861209887,96.74194336,-86.52723694,143.7653503,22.34045982,0.593714356,10.14271355,-7.163422108,-209.2137299,-251.1956787, 
612,2861226554,112.1340027,-81.99528503,127.3856125,23.5296669,1.486837864,13.36152649,-56.32661438,-162.2115631,-233.9674225, 
613,2861243221,111.8914337,-77.98714447,125.4132843,18.63891602,-2.754878998,11.77127647,-132.2500153,-109.4862518,-212.9700623, 
614,2861259888,107.7697449,-74.77455139,126.0896072,17.2352314,-7.27283287,10.02196121,-208.881897,-56.73923492,-182.3592072, 
615,2861276555,103.351326,-72.82707214,126.9079742,14.32290554,-15.14815521,8.816139221,-218.9560699,-18.5150547,-114.0678558, 
616,2861293222,100.1969147,-72.38404083,128.7225952,11.70633602,-20.20402145,6.554674625,-86.33640289,26.05885315,-30.53909111, 
617,2861309889,98.05366516,-72.98873901,131.5548401,11.32442188,-16.55117607,5.473999977,32.72306061,55.29223251,29.84569359, 
618,2861326556,94.7755661,-74.26907349,136.039566,10.45879364,-14.82310104,5.233000755,60.63694382,83.53294373,69.80710602, 
619,2861343223,91.04069519,-75.75429535,141.8035736,9.693500519,-12.15390873,3.526471615,109.1814117,93.40378571,86.31368256, 
620,2861359890,93.82878113,-76.64032745,143.8182678,6.570485115,2.005319595,-7.52684021,283.862915,30.65458298,53.82401657, 
621,2861376557,105.1762009,-75.78603363,137.4274445,9.629942894,9.40603447,-14.03190327,307.5494385,-98.97966766,-33.46390152, 
622,2861393224,108.047699,-76.26013184,138.6041107,19.25801468,-1.76791501,-18.21489716,239.8995819,24.08181381,24.35902596, 
623,2861409891,88.91586304,-77.86400604,157.6233673,24.76867485,-5.372694492,1.88521862,-36.02590179,265.2495728,58.33571625, 
624,2861426558,75.09951019,-77.92364502,170.3041229,9.396719933,-5.696061134,3.241859674,-85.82110596,156.851532,27.61100769, 
625,2861443225,65.07577515,-77.47602844,179.6220398,13.60661888,0.216580391,2.252864361,-55.99951172,120.6135635,17.29028893, 
626,2861459892,54.77681732,-76.77861023,-170.6213989,5.715685368,5.035941124,13.56054211,-48.05953979,133.2574615,31.13528061, 
627,2861476559,51.94393921,-77.75600433,-166.7279968,5.23717165,5.572045326,5.438758373,57.05609512,5.932557583,79.71432495, 
628,2861493226,47.21162033,-78.690979,-161.1468658,8.482042313,4.227993488,2.341114283,43.0451088,15.26581478,88.93618774, 
629,2861509893,41.11781693,-79.32532501,-155.5002747,10.2495842,0.540265203,0.842842758,-33.89176941,17.30161285,74.80152893, 
630,2861526560,34.5302124,-79.77830505,-149.710556,11.69215584,-2.902663469,-0.937436342,-54.48766708,16.76056862,68.3815155, 
631,2861543227,28.44573021,-79.73612976,-143.9732819,11.28710842,-1.904279828,0.006892152,-27.18563843,33.70870209,52.84417725, 
632,2861559894,22.07459831,-79.22235107,-137.1955872,9.571756363,0.801031232,0.673287272,16.69815254,59.096138,55.96883011, 
633,2861576561,16.2102108,-78.72441101,-130.9575043,8.682271957,2.553519726,2.691742897,14.63393307,51.2464447,59.80321121, 
634,2861593228,10.69891167,-78.4324646,-125.4075317,9.187887192,0.869103491,2.304919004,-5.153889179,31.94818878,62.04058838, 
635,2861609895,5.647827625,-78.08325958,-120.55616,9.830130577,-0.269901127,1.980322242,-18.95737267,28.73803902,57.64900208, 
636,2861626562,1.234876513,-77.65052032,-116.4646835,9.045751572,-0.89324683,2.5529387,-25.6590538,28.59308815,51.94546509, 
637,2861643229,-2.365086317,-77.30706024,-113.1700516,8.933013916,-1.119615793,2.631844044,-23.91102791,19.76711082,45.06293869, 
638,2861659896,-5.510402679,-77.05371094,-110.3419952,9.11216259,-1.479965687,2.135298729,-24.1597023,12.16891956,40.61103821, 
639,2861676563,-8.440577507,-76.73886108,-107.7120819,9.562192917,-1.687665224,1.863496542,-23.02117729,14.00432396,39.80977631, 
640,2861693230,-10.92892456,-76.28102112,-105.4235992,9.321676254,-1.482740402,1.579065323,-16.6812191,21.28091812,38.20094681, 
641,2861709897,-12.88957977,-75.70768738,-103.5329361,9.352664948,-1.175417066,2.123592138,-8.473999023,27.59181404,35.97029877, 
642,2861726564,-14.55836391,-75.11934662,-101.9160233,9.338086128,-1.530011058,2.518224239,-7.138104439,28.09159851,34.12104797, 
643,2861743231,-16.00785255,-74.57976532,-100.496582,9.314733505,-1.950924873,2.356675386,-5.667201996,24.96051025,32.01771927, 
644,2861759898,-17.21529007,-74.07552338,-99.29968262,9.34413147,-1.887151241,2.245301723,-4.20935297,23.04824638,29.25395393, 
645,2861776565,-18.19876099,-73.55883026,-98.34047699,9.340186119,-1.517958164,2.511406183,-4.645665646,24.25778961,26.72335625, 
646,2861793232,-19.10731697,-73.09263611,-97.47080231,9.243481636,-1.145413518,2.835890055,-5.434818268,21.31649017,25.14822769, 
647,2861809899,-20.06798935,-72.68556213,-96.62497711,9.406394005,-0.971722245,2.755028248,-10.0506115,17.61077118,24.27428436, 
648,2861826566,-21.12988663,-72.30264282,-95.75936127,9.59061718,-0.779083133,2.617150068,-15.10159969,15.61920166,24.72895432, 
649,2861843233,-22.46114922,-71.92074585,-94.65924835,10.1245966,-0.506692648,2.115437984,-17.98062325,13.35624695,29.35592461, 
650,2861859900,-24.12501907,-71.39414215,-93.23616028,10.74865246,0.136742264,1.246030688,-19.71026611,18.00615692,39.20049667, 
651,2861876567,-26.0960598,-70.6319046,-91.45639801,11.50145912,0.245757893,0.728299975,-18.22014618,26.28384209,52.89635849, 
652,2861893234,-28.13835335,-69.54019165,-89.43722534,11.85030651,-0.112313047,1.037503362,-9.572460175,39.11326218,68.61595917, 
653,2861909901,-30.32386398,-68.24376678,-87.22612762,12.38670921,0.060069673,1.33073318,-8.316864967,44.17486572,81.70809174, 
654,2861926568,-32.59920502,-66.6422348,-85.05073547,12.43659687,-0.8478809,0.78201884,-16.9303875,55.46479034,94.89919281, 
655,2861943235,-34.92082977,-64.7938385,-82.88615417,12.56694412,-1.665681481,0.548380613,-21.86353111,62.16241837,108.0730972, 
656,2861959902,-37.1580658,-62.7035141,-80.79514313,13.39439297,-1.484478951,0.674416363,-22.68519783,68.42246246,120.6968918, 
657,2861976569,-39.3599205,-60.44935226,-78.79824066,15.21693516,0.033141743,0.757827044,-27.70996857,70.55400085,130.5722961, 
658,2861993236,-41.78752136,-58.04249573,-76.78226471,17.59096146,1.225888014,0.267832756,-42.69884109,69.15023804,142.9529114, 
659,2862009903,-44.98748016,-55.70126724,-74.1780777,20.85777283,1.240933061,-2.966790915,-62.13772964,43.13570404,160.5987244, 
660,2862026570,-46.61098862,-52.85563278,-72.80460358,22.77768326,1.826975346,-7.040384293,-31.53738403,84.30513,158.0174408, 
661,2862043237,-46.59155655,-49.09684753,-73.39400482,20.03333092,-1.848034024,-0.414741367,-27.40701485,170.9732208,150.6430359, 
662,2862059904,-45.97412109,-44.94393539,-74.84368896,14.3695631,-2.565888405,6.605852127,-27.72512436,214.9385223,141.1748505, 
663,2862076571,-45.63140869,-41.31517792,-75.59941864,3.151461601,-2.491221428,9.570353508,-11.55682659,175.3970795,135.105957, 
664,2862093238,-45.51802826,-39.39437485,-74.67127991,1.483858109,-0.672128856,4.892889977,41.76764297,50.22245026,114.1042252, 
665,2862109905,-45.27545547,-38.41376114,-74.00997925,0.281012714,4.093040466,1.293800712,38.37534714,19.18516731,65.65904999, 
666,2862126572,-46.23358536,-38.77322006,-73.03712463,-0.668735802,5.826761246,-2.704224825,-22.17239952,-47.88237,18.47914124, 
667,2862143239,-47.41320801,-39.31238556,-72.12756348,1.107427001,-0.743464649,-1.319275856,-37.49652481,-53.19942093,7.520483017, 
668,2862159906,-47.73041916,-40.49923325,-70.70265961,-2.086952209,-5.151704311,0.142600656,34.71697235,-96.60063171,-6.205728054, 
669,2862176573,-47.14197922,-42.45677567,-68.83389282,-0.444161922,-2.250408173,-1.751870036,108.4756927,-141.4759521,-27.58211136, 
670,2862193240,-46.10200882,-44.82733154,-67.14980316,0.228386283,0.889382601,-0.975530684,131.0431976,-151.0029144,-51.06337738, 
671,2862209907,-45.10620117,-47.76181793,-65.3502121,1.083853483,1.052968383,0.921173871,136.707428,-176.6569519,-71.51512909, 
672,2862226574,-44.40613556,-51.28340912,-63.45637894,2.425233841,0.841834545,1.117429852,127.3572693,-202.1625671,-94.27725983, 
673,2862243241,-44.14490509,-55.46217728,-61.27429199,3.688925266,1.099217415,1.698980808,119.6460953,-234.2100067,-116.9947662, 
674,2862259908,-44.64094925,-60.2359581,-58.55986404,6.579059601,0.062456205,1.169700623,107.118187,-265.4742737,-136.2711792, 
675,2862276575,-45.80557632,-65.14230347,-54.70748138,9.912299156,-3.464206696,0.85897553,134.5013885,-282.7370911,-132.0519257, 
676,2862293242,-48.54010773,-70.02796173,-48.32923889,12.68114471,-7.100987911,3.190351725,188.8011322,-306.2029419,-113.4017487, 
677,2862309909,-53.93620682,-74.95137787,-38.04230881,16.45248795,-8.088650703,5.81029892,264.1822815,-329.1687927,-111.2161026, 
678,2862326576,-61.15604019,-79.28930664,-24.88339806,19.10764885,-7.808325768,5.481343746,335.7955322,-287.3036499,-121.9106674, 
679,2862343243,-68.91763306,-82.56040192,-10.73687267,18.87413406,-2.317902327,9.435337067,371.5823975,-203.6079102,-118.2077332, 
680,2862359910,-79.01122284,-84.7296524,5.168491364,18.51749802,3.625192165,15.36807823,341.9324646,-137.135788,-92.77909851, 
681,2862376577,-91.87152863,-86.04750061,21.95106697,14.04553509,4.921622276,18.75913239,231.1019592,-86.96277618,-69.49651337, 
682,2862393244,-110.3039017,-86.91435242,41.75047302,12.50035763,4.236783981,16.86208725,78.87509155,-61.73062897,-62.13056564, 
683,2862409911,-118.8390656,-87.58605957,49.79264832,10.99130154,-1.253624797,13.17115593,-31.03993225,-4.752510071,-44.06089401, 
684,2862426578,-108.2554779,-88.19843292,38.37577057,10.4154644,-4.523772717,9.657408714,-50.43923569,37.19727325,-21.34329987, 
685,2862443245,-57.0261879,-87.58913422,-14.82044315,11.23482132,-12.95130444,11.81307602,-117.042038,115.9262238,19.99327278, 
686,2862459912,-55.02625656,-86.1756134,-17.77746582,5.652024269,-19.12708092,6.856703281,-58.00339508,54.85184097,66.97821045, 
687,2862476579,-72.08720398,-85.8702774,1.922558904,5.449442387,-2.726652384,-0.554489911,154.7164459,-65.56348419,54.50025558, 
688,2862493246,-83.62058258,-86.04769897,14.85868549,13.47855377,1.605058193,-7.880751133,81.401474,-56.13145828,3.153166056, 
689,2862509913,-59.9408989,-85.52342224,-8.006770134,13.1105814,-7.177775383,-1.585884333,51.56912231,104.2669449,-0.001447187, 
690,2862526580,-55.9684906,-85.28649139,-10.34523487,12.77841854,-4.722398281,-0.078636989,97.61023712,16.55695152,8.087905884, 
691,2862543247,-45.77720261,-84.60449982,-19.38131142,11.66020203,-0.224465594,-1.891848922,70.51644135,62.26161957,3.54336524, 
692,2862559914,-36.47499466,-83.57202911,-27.80355644,8.697621346,0.87091434,4.420376301,54.57178497,80.24181366,3.471487045, 
693,2862576581,-34.21349716,-83.02481842,-29.50845337,7.819385052,0.112263933,4.930029869,33.22002411,33.17352676,11.27519321, 
694,2862593248,-34.90023422,-82.90184784,-28.64221764,9.895996094,-0.483833492,2.713487625,9.500274658,1.954346418,11.46118546, 
695,2862609915,-35.0783577,-82.76953125,-28.66112328,10.10685921,-2.457000971,0.93961066,-12.66878319,6.062026024,6.4672575, 
696,2862626582,-34.63777542,-82.67271423,-29.15293884,9.630332947,-3.048279047,0.631986856,-3.711344719,6.393603325,2.283750296, 
697,2862643249,-33.54048538,-82.49585724,-30.13640594,10.00525856,-2.160196066,0.764105499,6.453694344,12.54315567,1.658865333, 
698,2862659916,-32.26200867,-82.19304657,-31.22762108,9.627949715,-1.47861135,1.244280815,10.93845463,19.48672104,4.56622076, 
699,2862676583,-31.3427887,-81.82048798,-31.91984367,9.354922295,-1.34958446,1.037557602,13.1432991,21.53792,8.89142704, 
700,2862693250,-30.78769875,-81.40079498,-32.1298027,9.615464211,-1.104172826,1.108806968,19.95488548,22.01694489,13.43804169, 
701,2862709917,-30.58277321,-80.92277527,-31.95616722,9.521094322,-1.054368854,1.440379024,21.69970894,23.35518074,18.03757668, 
702,2862726584,-30.96883202,-80.45544434,-31.19088554,9.770622253,-0.98282063,1.6377877,21.26128578,19.79021454,22.75128746, 
703,2862743251,-31.52244949,-79.89578247,-30.24835968,9.816394806,-1.039676547,1.57184124,21.61516953,23.20601082,27.69224167, 
704,2862759918,-32.27777863,-79.27651978,-29.18468857,9.800519943,-1.420863867,1.848521709,16.55989075,24.95161629,31.453619, 
705,2862776585,-33.35792923,-78.69028473,-27.86589432,9.92257309,-1.923790574,1.503774405,11.97123718,20.86532402,33.79553986, 
706,2862793252,-34.41555405,-78.03096771,-26.62175941,10.28272247,-1.790922046,1.511393189,8.757472992,23.94921494,36.58385468, 
707,2862809919,-35.46224213,-77.31896973,-25.44008827,10.2300148,-1.90099895,1.695566177,5.563627243,25.85858345,38.89473724, 
708,2862826586,-36.45478058,-76.53730011,-24.31817055,9.894463539,-2.381988525,1.688192725,5.122464657,28.53101921,41.88834, 
709,2862843253,-37.38686752,-75.72200012,-23.19512367,9.72549057,-2.590027094,1.920040965,8.583100319,28.91496086,44.32023239, 
710,2862859920,-38.35902023,-74.92242432,-22.01887703,9.860704422,-2.185124397,2.12429142,9.041214943,26.40106392,45.58913803, 
711,2862876587,-39.40502167,-74.09900665,-20.85366058,10.04080486,-2.0252738,2.061840534,3.698801041,26.25102043,47.56344223, 
712,2862893254,-40.50600052,-73.24998474,-19.6924572,10.11147881,-2.394368887,1.938158751,-0.116359808,25.98804283,49.74662781, 
713,2862909921,-41.50557327,-72.38769531,-18.64755821,10.47197342,-2.001660585,2.161457062,-0.98772639,26.40463829,49.93969345, 
714,2862926588,-42.74005127,-71.51114655,-17.44023895,10.61226368,-2.241838694,1.944445252,-6.11720705,23.47102928,53.94150162, 
715,2862943255,-44.12502289,-70.57555389,-16.12325859,10.94064999,-2.745577812,1.415748,-9.286004066,22.63632202,59.25252533, 
716,2862959922,-45.55053711,-69.54217529,-14.7722187,11.11275578,-2.760014772,1.835225344,-10.25994873,23.99956512,65.33963013, 
717,2862976589,-47.14583206,-68.45397186,-13.2237463,11.42587185,-2.137347937,2.1510427,-9.913813591,20.50770378,72.24351501, 
718,2862993256,-48.76976013,-67.26966095,-11.65119648,12.05133343,-0.864771187,2.047491789,-10.97855377,20.71561241,78.60301208, 
719,2863009923,-50.63640976,-65.95339966,-10.01459408,12.65092468,-0.950299621,1.623438716,-22.80097389,20.88172531,87.47360229, 
720,2863026590,-52.54889679,-64.47048187,-8.47507,13.26414394,-0.834488094,1.088995576,-31.83910179,24.47680283,95.81851196, 
721,2863043257,-54.34922409,-62.82007217,-7.031071186,13.87125778,0.054576166,0.377997577,-31.33228683,27.63146591,104.5054398, 
722,2863059924,-55.80313873,-60.93589401,-5.875814438,14.7525959,1.306401968,-0.001982853,-27.06536674,37.50554657,113.4613953, 
723,2863076591,-56.56908417,-58.77220917,-5.43336153,16.0649929,2.360266447,0.657882452,-23.97321892,60.76075745,117.3799591, 
724,2863093258,-56.72389984,-56.25201797,-5.464000225,17.94458199,1.533354759,1.795438528,-11.82003498,83.56497955,127.8924408, 
725,2863109925,-56.29728317,-53.27518082,-6.0380373,19.64060402,1.645062804,2.675995588,-3.558540821,114.7602386,140.1485138, 
726,2863126592,-56.09381866,-50.2993927,-6.342813015,14.86729336,3.391648293,3.781923294,-3.169608116,108.3706589,144.2765198, 
727,2863143259,-56.48808289,-47.31334305,-6.653077602,14.15605831,0.71133709,4.900174618,-38.69504547,109.2812271,144.4771423, 
728,2863159926,-56.8199234,-44.8755722,-6.29646492,9.324398041,-2.087239027,3.781122684,-5.527556419,67.64844513,132.6226807, 
729,2863176593,-56.96281052,-42.86084747,-5.153819084,5.668118954,-5.911307335,1.303564906,37.89837646,24.2697258,130.5485077, 
730,2863193260,-57.03143692,-40.86619186,-3.583739758,4.885942936,-13.16889477,5.133538723,57.70804214,6.007751465,140.8618317, 
731,2863209927,-54.69327927,-39.77420807,-1.958607316,4.381354332,-2.652099133,2.601230383,202.3321381,-25.10009766,98.21777344, 
732,2863226594,-52.20233917,-39.91697693,0.642480195,4.612285614,2.887821198,0.581436992,248.3879242,-101.6820755,66.74816895, 
733,2863243261,-50.25041199,-40.24724579,1.694958687,4.725673676,4.39386797,-4.959091663,156.7398834,-50.38687134,17.09405518, 
734,2863259928,-48.03107071,-40.66350555,1.856328487,2.160226822,4.315411091,0.258851916,138.400528,-22.17145538,-11.77574062, 
735,2863276595,-46.47842789,-41.71266174,2.33736515,0.245831504,2.833503246,5.827127457,111.1341629,-58.94768143,-29.16456223, 
736,2863293262,-45.43569565,-43.60860443,3.471674681,1.267243266,1.127540588,2.990241289,107.6507339,-115.3514328,-44.63283157, 
737,2863309929,-44.75362396,-46.03659058,4.726454735,2.63204813,1.70407176,2.379305363,92.96297455,-140.9531403,-63.13292694, 
738,2863326596,-44.70841217,-49.0294342,6.163310051,3.704454422,1.653139949,2.024930716,65.30722046,-168.8317108,-82.64845276, 
739,2863343263,-45.06106186,-52.54102707,7.810304165,4.85661602,0.988489926,2.269859791,54.42740631,-193.6624146,-102.0175171, 
740,2863359930,-45.71439362,-56.54807281,9.680474281,6.056903362,0.271445096,2.632036448,51.26807404,-215.47612,-123.0111465, 
741,2863376597,-46.52637863,-61.04541779,11.66593838,7.569843769,7.97E-04,2.533881664,52.28168106,-231.8088989,-149.2753906, 
742,2863393264,-47.05567551,-65.87847137,13.24838066,9.536524773,-0.037179481,1.677954435,52.29423904,-229.7396698,-179.8690643, 
743,2863409931,-46.58522415,-70.73080444,13.70360088,11.55601883,0.153830364,2.640342474,52.69039154,-206.8650513,-202.9638062, 
744,2863426598,-44.92243195,-75.72145844,13.00014114,12.25434208,-0.883401394,3.889817715,58.39294052,-200.4682465,-220.5644989, 
745,2863443265,-41.33967972,-80.95458221,10.48597336,13.51211262,-0.585768521,3.717487812,66.16420746,-208.5039063,-234.4398193, 
746,2863459932,-28.35201073,-86.26052856,-1.413433671,14.70607853,-0.202899814,4.692342281,68.04141998,-214.7588348,-243.6351776, 
747,2863476599,98.77510834,-87.60256958,-127.9436493,15.9724226,1.11707139,4.77922678,38.75942612,-219.4788361,-245.3556366, 
748,2863493266,119.7455368,-82.57170105,-149.062027,19.03094673,1.882127881,6.842213154,-6.311371326,-200.0514832,-242.123291, 
749,2863509933,121.5281525,-77.82116699,-151.6095886,18.54053879,-0.692871749,8.146235466,-44.53473282,-167.9023285,-229.5182343, 
750,2863526600,120.5362396,-73.314888,-152.3563385,17.69444084,-1.584315062,7.611301422,-103.6160736,-149.2800751,-223.5543823, 
751,2863543267,117.2688828,-69.32044983,-151.7641296,17.5735302,-5.401167393,8.408846855,-162.9731598,-106.2332306,-213.0123749, 
752,2863559934,113.8909836,-66.31603241,-151.0704041,16.5312748,-12.25422287,7.022307873,-164.7619476,-64.0657196,-167.1340637, 
753,2863576601,111.1975403,-64.73451996,-150.5429535,12.989501,-18.48294258,7.550676346,-133.4955902,-24.72128677,-90.50279999, 
754,2863593268,110.0274048,-64.53542328,-150.1237793,11.87744045,-19.96977997,8.270778656,-48.20866013,5.384651184,-12.92459393, 
755,2863609935,109.316124,-65.5692215,-148.6261139,11.3673296,-17.23653221,8.068784714,38.02406311,56.01262665,47.58541107, 
756,2863626602,108.6012268,-67.29959869,-146.3046265,10.36061096,-14.3549757,7.475916862,83.98755646,85.77475739,81.92619324, 
757,2863643269,109.4351654,-68.79333496,-143.4848938,10.67094517,-0.448936552,-1.186096191,206.1285553,88.32198334,65.88243103, 
758,2863659936,112.6749802,-68.89084625,-142.9311066,6.624095917,10.77635288,-7.523891926,224.5373688,12.59079075,2.930980444, 
759,2863676603,117.9266739,-68.52198792,-145.4297333,15.19991112,0.39898333,-15.24597263,174.5740662,-59.36220551,5.104051113, 
760,2863693270,111.2962494,-70.91758728,-138.2620697,27.73515892,-8.82558918,-1.691418886,4.812180519,194.5592804,70.21533966, 
761,2863709937,102.2854538,-72.40779877,-129.9964752,12.46916389,-6.597319603,4.478482246,-70.734375,174.363205,42.09217453, 
762,2863726604,95.42415619,-73.10783386,-123.6029434,13.70596218,-0.612014234,1.455386043,-46.2431488,118.0649719,25.62901878, 
763,2863743271,88.49740601,-73.7816925,-117.1072693,6.121835709,5.301474571,8.285666466,-42.97751617,111.614769,38.2044754, 
764,2863759938,84.60391998,-74.71628571,-112.73246,5.573037148,4.045132637,9.993029594,18.09879875,67.00318909,61.89447784, 
765,2863776605,83.76443481,-75.98140717,-111.0488892,8.099824905,3.576810598,2.843075275,46.49649429,16.94841766,79.79621124, 
766,2863793272,81.21744537,-77.08764648,-108.6122894,10.33262825,0.617564142,1.687151194,-11.4841671,24.28293991,71.94606018, 
767,2863809939,77.71465302,-77.89054871,-105.7557068,10.22632217,-1.769416571,1.075371027,-43.70895004,26.89320564,55.83021927, 
768,2863826606,74.71299744,-78.49511719,-103.227356,10.94360256,-2.377634525,0.110545672,-32.46414566,20.70487404,44.28381729, 
769,2863843273,70.39490509,-78.96640015,-99.0051651,10.55698204,0.519132078,0.566850901,-11.53817272,37.95091629,43.43460846, 
770,2863859940,64.99534607,-79.40772247,-93.40233612,9.082538605,1.885195732,2.036482334,5.339575768,47.4931221,50.02695465, 
771,2863876607,60.14358139,-79.86460876,-88.47769165,8.823579788,2.514026165,2.405085802,-1.337345958,33.74996567,50.42771912, 
772,2863893274,55.16201019,-80.29749298,-83.72774506,9.048668861,0.978719652,1.587371707,-19.02914047,26.77747154,49.82945633, 
773,2863909941,49.97200012,-80.66223907,-78.86238098,9.376257896,-0.233133093,1.891259789,-24.37556267,24.23729706,48.35534668, 
774,2863926608,44.63285446,-80.94002533,-73.79679108,9.667864799,-0.529390454,1.611676455,-21.20338821,23.61215591,46.82097626, 
775,2863943275,39.16783524,-81.15544891,-68.56150818,9.85722065,-0.251922667,1.440910339,-18.4956131,22.23868561,46.63091278, 
776,2863959942,33.14521408,-81.2829895,-62.65547562,10.05893993,-0.583572567,1.447197199,-12.03571129,24.94571495,49.81439209, 
777,2863976609,26.46271515,-81.1845932,-55.95704269,10.06683159,-0.242781162,1.762790561,-4.639369488,34.77907562,51.82413483, 
778,2863993276,19.52066612,-80.83567047,-48.99296951,9.792078972,-0.217471525,2.112360954,-4.703224659,43.96179962,53.55295563, 
779,2864009943,13.14272022,-80.34702301,-42.58393097,9.677782059,-0.658665359,2.395753145,-4.213541031,45.01215744,53.71017456, 
780,2864026610,7.68277359,-79.74877167,-37.0782547,9.836278915,-0.859508812,2.561949968,-3.127220869,44.82869339,51.30507278, 
781,2864043277,2.951524496,-79.05549622,-32.42494965,9.631813049,-1.691544175,2.459219456,-10.34368706,45.40299225,48.92265701, 
782,2864059944,-1.048364997,-78.33027649,-28.50134659,9.373462677,-1.892359853,2.703013659,-10.0544138,43.52140808,47.08083344, 
783,2864076611,-4.494153976,-77.55863953,-25.15824509,9.365535736,-1.280879617,2.824222565,-11.50071716,43.47733688,45.73753738, 
784,2864093278,-7.619912624,-76.78469849,-22.2163372,9.622326851,-0.443598568,3.114936352,-16.35251045,41.31716537,45.53317642, 
785,2864109945,-10.7127142,-75.98999786,-19.42930603,10.03042126,0.030680748,3.069226027,-23.95461845,40.09139252,48.12338257, 
786,2864126612,-14.03826904,-75.1401062,-16.52363396,10.35520363,-0.00502851,2.407527685,-31.59907913,39.78479767,55.06446075, 
787,2864143279,-17.53762436,-74.1782074,-13.50550365,11.1871748,-0.135381714,1.53102994,-36.23660278,41.81467056,63.50275421, 
788,2864159946,-21.04065704,-73.02124786,-10.26563263,11.75835705,-1.439656138,1.477494121,-24.60649681,46.71279144,76.44335175, 
789,2864176613,-24.21937943,-71.56879425,-7.234954834,11.96231937,-1.343970656,1.323127389,-18.41942787,58.50544739,86.28653717, 
790,2864193280,-27.34837151,-69.932724,-4.258346081,12.14842415,-2.214218855,1.415256143,-20.04377937,62.14759827,97.44006348, 
791,2864209947,-30.22572136,-68.10004425,-1.528374791,12.64218616,-1.1825912,2.201800585,-20.64514923,67.52259827,106.085556, 
792,2864226614,-33.11364746,-66.1431427,1.045690775,12.94908333,-0.238893747,2.282209873,-31.90396118,67.81958771,114.49263, 
793,2864243281,-36.2286644,-64.09859467,3.686143398,14.39891815,-0.210356221,1.509903908,-44.10910034,62.4166069,126.3653717, 
794,2864259948,-39.30991364,-61.83917999,6.123856068,16.26861954,0.865619302,0.39166972,-55.52733994,65.92253113,137.3706665, 
795,2864276615,-42.35749435,-59.24114609,8.146121979,17.68003654,2.73440361,-0.324636817,-78.14916992,78.44220734,148.9083405, 
796,2864293282,-45.10833359,-56.58003235,9.924093246,21.24888992,6.956504345,-1.782850385,-75.6219101,75.75814819,153.208725, 
797,2864309949,-46.74228668,-53.21456528,10.48053074,23.22976494,1.910711288,-1.447127938,-71.67059326,126.2822342,160.4105225, 
798,2864326616,-46.99451447,-49.19125748,9.320363998,20.11501312,0.36773622,2.312284708,-70.40972137,196.5626068,148.3599701, 
799,2864343283,-47.066082,-45.37380219,8.022979736,15.41324043,1.577073932,2.1204319,-62.50556946,194.4766541,133.6698608, 
800,2864359950,-47.32159042,-42.18366623,6.672009945,9.588614464,2.424510717,1.912226677,-72.42463684,172.7338257,102.7834854, 
801,2864376617,-48.36367416,-39.87514496,5.399502754,5.408570766,0.244894505,3.944515705,-113.6598053,135.4030609,66.18757629, 
802,2864393284,-50.21953964,-38.3470993,4.910891533,1.661673069,-6.976669788,6.236247063,-130.8699799,76.77099609,56.85008621, 
803,2864409951,-51.49589539,-37.46550369,4.828504562,-0.247691855,-9.306864738,5.107444286,-80.64082336,36.11670303,40.73516083, 
804,2864426618,-51.32775116,-37.59634781,5.202397823,1.883864045,-1.553167939,2.536551237,22.73935127,-19.12074471,7.099953651, 
805,2864443285,-51.26268768,-38.80422592,5.841243744,2.534811974,-0.020697195,-4.31162262,26.59792328,-69.15161133,-35.57617569, 
806,2864459952,-49.92348099,-39.84188461,4.970961571,-0.261239886,-0.806441486,-5.975594044,46.24778748,-8.605390549,-71.60858154, 
807,2864476619,-48.12226868,-41.27817154,3.926908493,-1.468279719,-1.031489015,1.709885836,66.31523895,-20.83237076,-94.15447235, 
808,2864493286,-46.15945435,-43.46099854,3.20900774,-1.023420691,-0.912808597,2.151203156,87.7091217,-66.02462769,-115.5456314, 
809,2864509953,-43.9994545,-46.14935684,2.45485878,0.717400134,-0.052021019,0.598539531,96.67211151,-91.44830322,-134.7849884, 
810,2864526620,-42.03248978,-49.26855469,1.523048639,2.251004219,0.271865129,0.507456303,75.61286926,-111.4565353,-153.0793915, 
811,2864543287,-40.1762085,-52.84428787,0.466276675,3.707078695,-0.317228943,0.163431972,61.00006485,-135.7353516,-168.9692383, 
812,2864559954,-38.30344772,-56.88228607,-0.797347784,5.251376152,-0.001295686,-0.169188559,49.28339386,-160.3078156,-184.9433594, 
813,2864576621,-36.27627182,-61.3404808,-2.470042467,6.971448898,0.194817811,-0.276947141,34.3997879,-181.8368835,-200.9239349, 
814,2864593288,-33.62218857,-66.16011047,-5.000899315,8.806443214,-0.002581366,0.003184795,21.87016869,-198.7389526,-218.5572052, 
815,2864609955,-29.44642448,-71.14643097,-9.278348923,10.10116863,-0.918468177,0.35902217,10.19414425,-206.194809,-233.8760071, 
816,2864626622,-21.67551422,-76.18058014,-17.20943069,12.27379227,-1.361954451,0.560053945,8.049729347,-214.3552856,-248.582962, 
817,2864643289,-5.103302956,-80.78669739,-33.86865616,14.77874088,-1.611979723,1.177357554,12.70071602,-220.2028656,-254.7373505, 
818,2864659956,33.79771805,-83.50734711,-72.92029572,16.33995438,-1.971005678,2.627961159,9.578080177,-227.167984,-264.0507507, 
819,2864676623,78.94821167,-81.75526428,-118.3933105,19.38510895,-1.812445164,4.470068932,-0.606980324,-230.4421387,-267.467926, 
820,2864693290,98.13387299,-77.45333862,-138.0613098,22.46283913,-1.305333614,6.860514641,-11.86993027,-205.7041473,-257.5648499, 
821,2864709957,104.8851318,-72.96465302,-145.6097107,22.04867935,-1.753611088,8.525079727,-34.42259216,-167.2153473,-238.1855774, 
822,2864726624,105.8787766,-68.87535858,-148.480835,20.10255623,-3.878497362,8.373508453,-104.2958298,-119.7190933,-219.5147858, 
823,2864743291,103.1881332,-65.58789825,-149.2407227,16.66111755,-8.116765022,10.85940647,-204.4509277,-66.97216034,-184.5263519, 
824,2864759958,100.4610443,-64.04603577,-149.8203125,13.22567558,-14.87977123,9.158714294,-196.0078125,-33.84529495,-85.60401917, 
825,2864776625,98.11472321,-64.23468018,-149.1021118,12.61704731,-14.21510792,7.476457119,-102.9047699,19.94815063,9.966977119, 
826,2864793292,94.99732208,-65.43016815,-146.8958893,11.40786743,-13.36517715,6.784535408,-68.09326935,63.67516327,66.56620789, 
827,2864809959,90.60974884,-67.0087738,-143.3602142,10.13217831,-13.58678913,6.500871181,-69.95996094,89.59513855,92.04935455, 
828,2864826626,87.20953369,-68.75424957,-139.2165527,10.79555798,-10.80897331,-0.065642968,25.47733498,91.09119415,108.0314636, 
829,2864843293,88.53429413,-70.02651215,-137.2352295,8.64656353,1.637278557,-7.539961338,189.9223175,38.49192429,79.39414978, 
830,2864859960,92.808815,-70.16239166,-138.2766724,10.87273502,6.585224152,-11.62884045,196.7792511,-21.69475746,9.975484848, 
831,2864876627,90.11515045,-71.08103943,-133.4626617,21.14815331,-0.335159361,-6.447350979,109.9004745,96.70763397,54.21372604, 
832,2864893294,78.73155975,-72.27137756,-122.4306259,19.21156502,-6.404153824,7.259768009,-55.44137192,199.4473114,92.54151154, 
833,2864909961,73.39128876,-73.25358582,-117.2108841,13.48243999,-1.501926899,4.672933578,-22.26102257,75.37651825,81.02112579, 
834,2864926628,65.28704834,-73.98511505,-109.3143921,10.20239258,1.372615814,8.604065895,-32.5800209,108.9904327,89.59780121, 
835,2864943295,60.93750763,-75.05954742,-103.7697067,3.882019997,0.605417848,2.757771969,58.77616119,49.51527786,99.09435272, 
836,2864959962,57.01035309,-76.03106689,-98.52546692,4.517649174,2.262240648,6.589361668,68.20187378,36.7356987,91.91559601, 
837,2864976629,52.88104248,-76.91430664,-93.81996155,7.559589386,2.975121737,5.605721951,25.88891983,23.06488419,82.83129883, 
838,2864993296,49.06174088,-77.653862,-90.35721588,10.95333481,-2.137043715,0.62604785,-27.30526924,7.010863304,64.83473969, 
839,2865009963,45.4176445,-78.08493042,-87.15231323,12.48501873,-2.89150691,0.008115011,-31.46487617,11.54006195,47.99152374, 
840,2865026630,40.54663849,-78.05029297,-82.24991608,10.91025734,-1.268780947,0.917019427,-5.318945408,42.41088867,44.62149811, 
841,2865043297,35.21813583,-77.89002991,-76.60671997,8.646468163,-0.66342169,2.247108698,10.59420586,50.34606171,51.33171844, 
842,2865059964,31.04545975,-77.79995728,-72.2038269,8.262207985,0.760216594,3.817070484,7.035896301,34.36494446,45.17182541, 
843,2865076631,27.57167435,-77.89525604,-69.07115173,9.375299454,1.034220934,3.155979872,-25.51586533,13.81682777,38.8676796, 
844,2865093298,24.10775185,-77.93724823,-66.20148468,9.464081764,-0.720450163,2.18680048,-40.3087616,12.88985062,35.10499191, 
845,2865109965,20.91062737,-77.92352295,-63.45892715,9.070209503,-0.888374805,2.25270915,-31.75450897,13.36950684,33.04553223, 
846,2865126632,17.84684753,-77.93144989,-60.67694855,9.466198921,-0.481758982,2.31705308,-21.43346596,10.58782387,34.65808105, 
847,2865143299,14.57399654,-77.87592316,-57.68235397,9.694860458,-0.210222617,2.263420105,-21.51968193,13.16261768,36.79750061, 
848,2865159966,11.02886963,-77.7875061,-54.44274139,9.444072723,-0.145919412,2.242625237,-23.53948402,13.7055521,40.34893799, 
849,2865176633,7.232909203,-77.60598755,-51.01725006,9.567871094,-0.501063287,1.995884418,-27.78607368,17.16234589,43.08966827, 
850,2865193300,3.421320677,-77.2520752,-47.5263176,9.693944931,-1.203742146,2.232491255,-25.09932137,24.83510399,45.00123596, 
851,2865209967,-0.20685409,-76.79499817,-44.12390137,9.570198059,-1.275064588,2.411828041,-19.58924675,28.16087341,46.64061356, 
852,2865226634,-3.596595764,-76.31383514,-40.87949371,9.673521042,-0.987802565,2.696852446,-14.89916801,26.81910133,47.78664398, 
853,2865243301,-6.788408756,-75.78718567,-37.8813591,9.600011826,-1.140550733,2.576991796,-17.76240921,27.01926994,47.6458931, 
854,2865259968,-9.762586594,-75.23429871,-35.14409256,9.481987953,-1.179906726,3.152447462,-20.27945137,26.39667511,47.0476265, 
855,2865276635,-12.70163822,-74.69407654,-32.53853607,9.343183517,-1.412619591,3.111621857,-26.20099258,23.37664986,47.71136093, 
856,2865293302,-15.56846333,-74.16423035,-30.13942528,9.414128304,-1.361149549,3.157993078,-34.19088745,20.88281822,46.8581543, 
857,2865309969,-18.32452774,-73.58769989,-27.89027405,9.526092529,-1.405549169,3.399106264,-36.56627655,21.66349983,47.56973267, 
858,2865326636,-21.11787796,-72.97782898,-25.68349838,9.605927467,-1.233843446,3.415808916,-41.62907028,21.09090042,49.8477478, 
859,2865343303,-24.05382729,-72.33222961,-23.41441154,9.540708542,-1.134029508,3.556313992,-47.04251862,19.68129539,54.01076508, 
860,2865359970,-27.03150368,-71.60787201,-21.18634415,9.526405334,-1.250243306,3.768918037,-52.37573624,20.88014412,57.74577332, 
861,2865376637,-30.00893784,-70.86559296,-18.93913269,9.194858551,-1.75514102,4.030743122,-51.81077194,17.93331528,61.0562706, 
862,2865393304,-32.92735291,-70.20746613,-16.72026634,9.856056213,-1.127733946,3.912413359,-50.42053223,10.03455353,60.14457703, 
863,2865409971,-35.96979904,-69.43960571,-14.52283287,10.36806774,-1.549415231,3.366802931,-59.62953186,11.7815876,65.27207184, 
864,2865426638,-39.05467606,-68.53032684,-12.43753338,10.27305031,-1.854608774,2.981954575,-69.13683319,15.47296524,70.53479004, 
865,2865443305,-41.96576691,-67.5134201,-10.67265415,10.39063263,-1.951448321,2.860128641,-77.31006622,20.17373848,71.50114441, 
866,2865459972,-44.82990265,-66.41663361,-9.20793438,10.85186291,-1.522046447,2.876346588,-91.81990814,23.72957802,71.95070648, 
867,2865476639,-47.56864548,-65.19967651,-8.160920143,11.08630562,-1.484926939,2.683776379,-107.8748856,31.5141964,72.28843689, 
868,2865493306,-50.09788895,-63.86270523,-7.504956245,11.95875263,-1.48571229,2.953131199,-117.0896988,39.6363678,73.3132019, 
869,2865509973,-51.78544998,-62.26724243,-7.960827827,12.42239666,0.35158959,4.779637337,-126.5051041,69.52529144,68.33331299, 
870,2865526640,-53.18294525,-60.65557861,-9.084651947,12.34177017,3.186029434,5.500825882,-143.9721222,84.03338623,58.91506958, 
871,2865543307,-54.20479584,-58.93385696,-11.32220745,12.57059193,4.58539772,6.816448212,-178.2065582,115.1745987,45.12966537, 
872,2865559974,-55.32049942,-57.28401184,-14.22563171,11.80592537,4.535820961,7.6101017,-215.7230072,131.8474274,29.66736794, 
873,2865576641,-56.6811409,-55.86333084,-17.39553642,11.73403263,3.079600811,6.778538227,-241.2546387,134.0776978,14.04109573, 
874,2865593308,-58.158638,-54.67491531,-21.27354622,13.17926407,3.28316164,6.425652504,-280.7591553,149.641922,-9.307841301, 
875,2865609975,-59.71628952,-53.48577881,-25.88718987,10.28043079,1.030280471,5.572076797,-318.5523376,175.4745331,-20.67007637, 
876,2865626642,-61.88777924,-52.88096237,-30.22602654,8.790852547,2.677565575,3.366987467,-339.616394,153.4459229,-42.3902359, 
877,2865643309,-64.34496307,-52.87294769,-34.58828735,6.984321117,2.414860725,-0.23585549,-357.0669556,140.6919556,-68.94616699, 
878,2865659976,-67.09881592,-53.43704224,-38.93516541,7.433379173,-4.109179974,-5.53719902,-374.91745,128.2667542,-93.09256744, 
879,2865676643,-68.12518311,-54.26628494,-44.09480667,5.826931953,-9.422093391,-5.409134388,-312.5598145,149.5471191,-113.469841, 
880,2865693310,-67.23197937,-55.29882431,-49.43501282,4.900936604,-15.12929249,-8.949333191,-209.1965485,147.0609589,-125.3925858, 
881,2865709977,-64.54538727,-56.27516937,-54.51653671,3.266334295,-13.14486313,-9.64329052,-91.92017365,132.2151489,-121.4332504, 
882,2865726644,-60.7769928,-57.15364838,-59.2379303,3.249564171,-12.14322567,-8.445672035,-11.64822197,113.6088257,-116.1992493, 
883,2865743311,-57.45162964,-58.14558029,-62.94061661,3.599622726,-7.83034277,-4.885000706,10.96442223,71.21868896,-110.1250153, 
884,2865759978,-55.78761673,-59.27997589,-65.54233551,5.227564335,-3.295257092,-4.566990376,-34.39084625,30.02090836,-99.49507141, 
885,2865776645,-55.81570816,-60.32646561,-67.61168671,5.744517326,-2.553555012,-3.792506218,-109.8268814,16.16661644,-85.09721375, 
886,2865793312,-57.39812469,-61.54494858,-68.61964417,6.169482231,-5.963943481,-3.718049049,-148.6325226,-15.87513733,-75.27558136, 
887,2865809979,-59.36594391,-62.82883453,-69.19924164,8.899643898,-6.988722324,-4.395519733,-149.6502075,-26.71088219,-72.17506409, 
888,2865826646,-61.15327454,-64.09004211,-70.03852844,10.46661091,-6.098633289,-3.056145906,-153.1071014,-18.11389542,-74.9375, 
889,2865843313,-62.7966156,-65.34425354,-71.09172821,11.23886967,-5.646678448,-2.149903059,-156.5476837,-11.62356567,-77.17417145, 
890,2865859980,-63.81178665,-66.46815491,-72.61338043,10.99893665,-5.349885941,-1.024467587,-145.0705261,2.938507795,-75.0400238, 
891,2865876647,-64.99684906,-67.57619476,-73.59921265,11.76653957,-5.772362709,-1.185191751,-126.3598251,-7.961148262,-67.97299957, 
892,2865893314,-65.76192474,-68.58776855,-74.77465057,12.29837227,-6.564675808,-0.96282053,-112.1417999,-1.402582765,-64.18320465, 
893,2865909981,-66.38487244,-69.52164459,-75.60054016,11.13961315,-5.826518059,-0.524012268,-84.48010254,-6.566823483,-56.44058228, 
894,2865926648,-66.91442108,-70.28142548,-76.1435318,11.02000046,-4.118142128,-0.897785127,-63.17535019,-7.826164246,-44.32392883, 
895,2865943315,-67.17536926,-70.75749207,-76.99390411,11.28857327,-2.477607727,-0.659332097,-64.53450012,4.485678673,-30.96916008, 
896,2865959982,-67.2169342,-70.96013641,-78.4544754,11.2021265,-1.546568036,0.191768482,-86.09762573,21.74983025,-20.36434174, 
897,2865976649,-67.37609863,-70.98009491,-80.2869873,10.49550819,-0.823105037,0.644212484,-114.3171692,32.58475876,-12.94264793, 
898,2865993316,-67.77873993,-70.8861084,-82.42221832,10.00931263,0.215443775,0.48224628,-146.0926514,40.81628799,-8.730272293, 
899,2866009983,-68.31865692,-70.71508026,-84.91899109,9.240876198,0.639879465,0.298781097,-174.735199,49.50737762,-6.847531319, 
900,2866026650,-69.06697083,-70.56820679,-87.47673035,8.453028679,0.179205209,-0.125421256,-190.5754547,50.57209015,-8.195766449, 
901,2866043317,-69.70649719,-70.55258942,-90.18837738,8.7796278,-0.170513242,-0.285297602,-192.7141418,50.99214172,-16.07800102, 
902,2866059984,-69.91453552,-70.62877655,-93.55484009,9.442113876,-0.109930784,-0.132245377,-203.9201813,61.39611435,-25.31957054, 
903,2866076651,-69.28845978,-70.72483826,-97.80647278,8.72147274,-0.837806821,0.392743349,-204.1076508,77.07135773,-32.65216446, 
904,2866093318,-69.10999298,-70.96122742,-101.3670197,8.368877411,-0.560685933,1.752800107,-192.0435638,60.45417023,-35.96075439, 
905,2866109985,-69.06047058,-71.23905945,-104.7520752,9.260919571,-0.719475627,1.925952911,-190.1589813,55.44525528,-36.84542465, 
906,2866126652,-68.78134155,-71.41918182,-108.1969528,9.562156677,-2.480109692,2.068122864,-180.0921326,57.78719711,-31.65599442, 
907,2866143319,-67.79975891,-71.47920227,-111.9656372,9.42330265,-4.464726925,1.590661168,-156.4705811,65.40190125,-27.71669388, 
908,2866159986,-65.89664459,-71.36837769,-116.0392838,8.868250847,-5.522873402,1.347316504,-118.5099335,74.08428192,-22.27194214, 
909,2866176653,-63.97948837,-71.08213806,-119.4077835,7.030668259,-5.668335438,0.076413736,-77.32281494,66.06335449,-9.780837059, 
910,2866193320,-62.34272385,-70.66892242,-121.7587204,6.871573448,-5.271024704,1.096098542,-36.0502243,52.29401779,3.456323147, 
911,2866209987,-61.27687836,-70.51017761,-122.9764481,6.692067146,-0.448247582,-3.417390108,-5.926063538,25.76264191,-0.890248358, 
912,2866226654,-61.36155319,-70.77722168,-122.7348709,6.472522259,-4.760286331,-4.306972504,7.646557331,-12.02669907,-9.556414604, 
913,2866243321,-62.84049225,-71.21503448,-120.5737534,11.02209282,-8.837257385,-2.486857414,32.97116089,-49.71546173,-1.281585813, 
914,2866259988,-62.08382416,-71.46663666,-120.8480148,16.79967499,-4.713912964,1.549975157,28.97349167,-2.415567875,-13.67090416, 
915,2866276655,-58.20596313,-71.41184235,-123.5440369,15.23428726,2.60553813,1.861985326,78.47859192,46.18830872,-20.63455582, 
916,2866293322,-55.73111725,-71.39781189,-125.155571,13.61405754,3.390643597,-3.678399563,55.96229172,26.21613121,-13.93227768, 
917,2866309989,-52.00703812,-70.45568848,-128.6265564,10.89335442,-1.883342266,3.375670671,25.70433426,88.21581268,7.711054802, 
918,2866326656,-49.88312149,-69.96460724,-130.7058411,5.565415859,-1.726644158,5.948833466,9.125437737,51.2963829,-1.538787365, 
919,2866343323,-48.64929581,-69.9095993,-132.224472,6.379405499,-4.22567749,3.883758307,-12.49781513,25.74872971,-15.70448685, 
920,2866359990,-46.80498505,-70.14194489,-133.9217377,8.508877754,-4.070203304,1.923922777,14.0138483,16.25684166,-31.53490257, 
921,2866376657,-44.48737717,-70.30499268,-135.9051056,10.69720364,-0.835404754,2.125911474,26.14624786,21.84021759,-32.97493744, 
922,2866393324,-42.20571899,-70.28224182,-137.9896545,10.71950531,0.446939856,2.701176882,18.21118546,29.83401299,-27.560112, 
923,2866409991,-40.48311234,-70.23033142,-139.7472382,9.978713989,0.054238103,2.987267017,3.138445616,25.76360512,-22.50739288, 
924,2866426658,-39.32535553,-70.22049713,-141.0513,9.261890411,-0.700627804,3.124359846,-5.148061752,17.32666588,-17.74193192, 
925,2866443325,-38.44893646,-70.28414154,-142.1069031,9.759661674,-1.316485167,2.489247799,-8.016863823,10.35015202,-16.86383629, 
926,2866459992,-37.56800842,-70.3443985,-143.2182922,9.983411789,-1.492418528,2.417988062,-10.927001,10.86935329,-17.73410225, 
927,2866476659,-36.80275345,-70.37405396,-144.3825989,9.589119911,-1.258984804,2.647916794,-20.8832798,12.65944386,-17.59178162, 
928,2866493326,-36.21098709,-70.44734955,-145.4270782,9.126881599,-0.903416157,2.843341351,-24.54346466,8.847353935,-17.31108093, 
