PacketCounter,SampleTimeFine,Euler_X,Euler_Y,Euler_Z,Acc_X,Acc_Y,Acc_Z,Gyr_X,Gyr_Y,Gyr_Z,Velo_X,Velo_Y,Velo_Z,ANG_X,ANG_Y,ANG_Z
0,520441502,-12.763802,21.933739,88.1442,-4.188319,-3.773423,2.757721,-3.73797,-0.9880262,0.76344377,0.0,0.0,0.0,0.0,0.0,0.0
1,520458169,-12.789406,21.953167,88.1622,-4.0687203,-4.044427,2.663529,-3.811944,-0.9722938,0.8083412,-0.067812,-0.067407,0.044392,-0.063532,-0.016205,0.013472
2,520474836,-12.816193,21.973711,88.181175,-3.9385474,-4.33883,2.5611956,-3.8954768,-0.9549254,0.8557176,-0.133454,-0.139721,0.087079,-0.128457,-0.03212,0.027734
3,520491503,-12.843727,21.99508,88.200806,-3.7996712,-4.6523495,2.4522195,-3.987899,-0.9361908,0.90464646,-0.196782,-0.21726,0.127949,-0.194922,-0.047723,0.042811
4,520508170,-12.880684,22.023273,88.22679,-3.6140769,-5.0719147,2.3061962,-4.1047163,-0.9104733,0.9730908,-0.257017,-0.301792,0.166386,-0.263334,-0.062898,0.059029
5,520524837,-12.925125,22.057007,88.257904,-3.3894613,-5.5798445,2.1293106,-4.2432604,-0.8788863,1.0571828,-0.313508,-0.394789,0.201875,-0.334055,-0.077546,0.076649
6,520541504,-12.96283,22.082806,88.27824,-3.2406323,-5.916191,2.0106325,-4.3571215,-0.849874,1.1040406,-0.367519,-0.493392,0.235386,-0.406674,-0.091711,0.09505
7,520558171,-12.993637,22.100222,88.28701,-3.1732128,-6.0683146,1.9543922,-4.444322,-0.82337654,1.1110148,-0.420406,-0.594531,0.267959,-0.480746,-0.105434,0.113567
8,520574838,-13.023193,22.11486,88.29101,-3.1373262,-6.148967,1.9220204,-4.5255666,-0.79597783,1.1007626,-0.472695,-0.697014,0.299993,-0.556172,-0.1187,0.131913
9,520591505,-13.047859,22.123207,88.285965,-3.16363,-6.088752,1.9372482,-4.588707,-0.769714,1.0590813,-0.525422,-0.798493,0.33228,-0.63265,-0.131529,0.149564
10,520608172,-13.078438,22.13477,88.28272,-3.1747625,-6.063059,1.9397933,-4.665351,-0.7380123,1.0216045,-0.578335,-0.899544,0.36461,-0.710406,-0.143829,0.166591
11,520624839,-13.11554,22.15007,88.2818,-3.1665027,-6.0814323,1.9263527,-4.7575445,-0.7003958,0.990138,-0.63111,-1.000901,0.396716,-0.789698,-0.155502,0.183093
12,520641506,-13.150818,22.16136,88.2741,-3.2040102,-5.996251,1.947535,-4.839202,-0.66176677,0.93452007,-0.68451,-1.100839,0.429175,-0.870351,-0.166531,0.198668
13,520658173,-13.186592,22.17064,88.26185,-3.2712774,-5.843809,1.990834,-4.91712,-0.6206063,0.8620269,-0.739031,-1.198236,0.462356,-0.952303,-0.176874,0.213035
14,520674840,-13.220879,22.180977,88.25319,-3.3035133,-5.771635,2.0075855,-4.985775,-0.5837358,0.8046662,-0.79409,-1.29443,0.495816,-1.035399,-0.186603,0.226446
15,520691507,-13.252464,22.191673,88.24767,-3.303018,-5.7746124,1.9997029,-5.0412455,-0.5523455,0.76149815,-0.84914,-1.390674,0.529144,-1.11942,-0.195809,0.239138
16,520708174,-13.28392,22.202604,88.24288,-3.2901826,-5.806223,1.9821615,-5.090582,-0.5221144,0.7219601,-0.903976,-1.487444,0.56218,-1.204263,-0.204511,0.251171
17,520724841,-13.314354,22.21431,88.24065,-3.249493,-5.901845,1.943357,-5.131036,-0.49512184,0.69374925,-0.958134,-1.585808,0.594569,-1.28978,-0.212763,0.262733
18,520741508,-13.342873,22.222963,88.233826,-3.2359996,-5.9363375,1.9250476,-5.158986,-0.46856117,0.6500676,-1.012067,-1.684747,0.626653,-1.375763,-0.220572,0.273567
19,520758175,-13.369537,22.228416,88.222015,-3.2523518,-5.903697,1.9292061,-5.1742916,-0.44217098,0.58953804,-1.066273,-1.783142,0.658806,-1.462001,-0.227942,0.283393
20,520774842,-13.393936,22.232924,88.210335,-3.2584212,-5.8952694,1.925544,-5.175769,-0.41924965,0.5318032,-1.12058,-1.881396,0.690898,-1.548264,-0.234929,0.292256
21,520791509,-13.415749,22.235584,88.19717,-3.26633,-5.8835278,1.9232574,-5.1620703,-0.3992952,0.47093052,-1.175019,-1.979455,0.722952,-1.634299,-0.241584,0.300105
22,520808176,-13.44175,22.238548,88.18728,-3.2718155,-5.872059,1.921221,-5.1312656,-0.37810946,0.41352594,-1.229549,-2.077323,0.754972,-1.71982,-0.247886,0.306997
23,520824843,-13.472336,22.242146,88.18169,-3.270209,-5.8708963,1.9161525,-5.0820484,-0.35588813,0.3623368,-1.284052,-2.175171,0.786908,-1.804521,-0.253817,0.313036
24,520841510,-13.50396,22.244633,88.17692,-3.2721841,-5.8586903,1.9151781,-5.0135956,-0.33443546,0.31001198,-1.338588,-2.272816,0.818828,-1.888081,-0.259391,0.318203
25,520858177,-13.5383835,22.24658,88.17446,-3.275538,-5.838707,1.9172664,-4.924474,-0.3128469,0.25894362,-1.39318,-2.370128,0.850782,-1.970156,-0.264605,0.322519
26,520874844,-13.571449,22.247208,88.172775,-3.272771,-5.831567,1.9155676,-4.814519,-0.29455507,0.21016437,-1.447726,-2.467321,0.882708,-2.050398,-0.269514,0.326022
27,520891511,-13.60276,22.246292,88.17163,-3.2646372,-5.835724,1.9106388,-4.682605,-0.27991307,0.16320759,-1.502137,-2.564583,0.914552,-2.128441,-0.274179,0.328742
28,520908178,-13.6358185,22.24466,88.17311,-3.2527556,-5.844141,1.904891,-4.5268145,-0.26657522,0.1197989,-1.55635,-2.661985,0.9463,-2.203888,-0.278622,0.330739
29,520924845,-13.669655,22.242083,88.17693,-3.2355154,-5.8611517,1.8969204,-4.346196,-0.2554233,0.08024961,-1.610275,-2.759671,0.977915,-2.276325,-0.282879,0.332076
30,520941512,-13.695763,22.238989,88.17749,-3.2258024,-5.868021,1.8927782,-4.1777134,-0.24632895,0.04328257,-1.664038,-2.857471,1.009461,-2.345954,-0.286984,0.332797
31,520958179,-13.713661,22.235508,88.17461,-3.2245147,-5.8632393,1.8929887,-4.024039,-0.23914027,0.009406865,-1.71778,-2.955192,1.041011,-2.413021,-0.29097,0.332954
32,520974846,-13.726677,22.231253,88.17085,-3.224161,-5.859231,1.8935637,-3.8663306,-0.23465872,-0.020270526,-1.771516,-3.052846,1.07257,-2.47746,-0.294881,0.332616
33,520991513,-13.732437,22.22636,88.1648,-3.228026,-5.8513556,1.8960271,-3.7145076,-0.23288524,-0.045689404,-1.825316,-3.150369,1.10417,-2.539368,-0.298762,0.331855
34,521008180,-13.736687,22.220686,88.16029,-3.229142,-5.8483763,1.8976436,-3.5453901,-0.23352432,-0.06551114,-1.879135,-3.247842,1.135797,-2.598458,-0.302654,0.330763
35,521024847,-13.739555,22.214191,88.15762,-3.2266035,-5.851969,1.8979056,-3.3570838,-0.23676407,-0.079229444,-1.932912,-3.345375,1.167429,-2.654409,-0.3066,0.329443
36,521041514,-13.736046,22.207083,88.15372,-3.2265282,-5.854209,1.899365,-3.1695833,-0.2428267,-0.08715102,-1.986687,-3.442945,1.199085,-2.707235,-0.310647,0.32799
37,521058181,-13.727226,22.19933,88.14943,-3.2272236,-5.857481,1.901298,-2.9778147,-0.25175965,-0.088640094,-2.040474,-3.54057,1.230773,-2.756865,-0.314843,0.326513
38,521074848,-13.721466,22.191475,88.143364,-3.2259703,-5.858797,1.9022369,-2.8273635,-0.24333048,-0.097141355,-2.09424,-3.638217,1.262477,-2.803988,-0.318899,0.324894
39,521091515,-13.718849,22.183624,88.135,-3.223201,-5.8570604,1.9023111,-2.725554,-0.21555448,-0.113738924,-2.14796,-3.735835,1.294182,-2.849414,-0.322492,0.322998
40,521108182,-13.716011,22.17549,88.125626,-3.2189453,-5.855591,1.9016426,-2.647748,-0.17800844,-0.13137239,-2.201609,-3.833428,1.325876,-2.893543,-0.325459,0.320808
41,521124849,-13.714989,22.167257,88.11471,-3.2126126,-5.8533754,1.8998737,-2.6081507,-0.12486875,-0.15367842,-2.255153,-3.930984,1.357541,-2.937012,-0.32754,0.318247
42,521141516,-13.709526,22.158655,88.10235,-3.2070243,-5.8509007,1.8982787,-2.5857363,-0.06795156,-0.1724619,-2.308603,-4.028499,1.389179,-2.980108,-0.328673,0.315373
43,521158183,-13.699211,22.149683,88.08855,-3.2021637,-5.8485203,1.8968236,-2.579862,-0.007749319,-0.18702132,-2.361972,-4.125974,1.420793,-3.023106,-0.328802,0.312256
44,521174850,-13.688904,22.140646,88.07279,-3.1961198,-5.845113,1.8945458,-2.6144614,0.066927195,-0.20454457,-2.415241,-4.223393,1.452369,-3.06668,-0.327687,0.308847
45,521191517,-13.677223,22.131516,88.05503,-3.189451,-5.8408537,1.8916686,-2.6863816,0.15390015,-0.22323811,-2.468399,-4.320741,1.483897,-3.111453,-0.325122,0.305126
46,521208184,-13.666595,22.12266,88.0397,-3.1835341,-5.838152,1.8913314,-2.7177038,0.19473135,-0.22156483,-2.521458,-4.418044,1.515419,-3.156748,-0.321876,0.301433
47,521224851,-13.657822,22.114187,88.02708,-3.1782918,-5.837057,1.8937135,-2.7052987,0.18528163,-0.19827056,-2.57443,-4.515328,1.546981,-3.201836,-0.318788,0.298128
48,521241518,-13.648781,22.105923,88.01499,-3.1734457,-5.8365545,1.8974586,-2.6852322,0.15186107,-0.16225493,-2.627321,-4.612604,1.578605,-3.24659,-0.316257,0.295424
49,521258185,-13.640305,22.098007,88.00464,-3.1693344,-5.8372517,1.9034214,-2.6374125,0.07831037,-0.1075899,-2.680143,-4.709892,1.610329,-3.290547,-0.314952,0.293631
50,521274852,-13.63224,22.090351,87.99325,-3.1645977,-5.837596,1.909472,-2.6149452,0.0015815496,-0.048415422,-2.732886,-4.807185,1.642154,-3.334129,-0.314926,0.292824
51,521291519,-13.624481,22.08299,87.98064,-3.1592052,-5.837489,1.9155064,-2.6218188,-0.0765425,0.014753282,-2.785539,-4.904476,1.674079,-3.377826,-0.316202,0.29307
52,521308186,-13.617943,22.076118,87.96918,-3.1541286,-5.8382196,1.9233367,-2.6147826,-0.18883502,0.09426868,-2.838108,-5.00178,1.706135,-3.421406,-0.319349,0.294641
53,521324853,-13.6126175,22.06976,87.95828,-3.1490843,-5.8394566,1.9325318,-2.6056442,-0.32802165,0.18741143,-2.890593,-5.099104,1.738344,-3.464833,-0.324816,0.297765
54,521341520,-13.606392,22.06528,87.94701,-3.1463363,-5.840109,1.9385257,-2.6129355,-0.4183836,0.25756556,-2.943032,-5.196439,1.770653,-3.508382,-0.331789,0.302058
55,521358187,-13.599281,22.062891,87.93559,-3.1462278,-5.8402348,1.9411058,-2.6333396,-0.45709693,0.30285525,-2.995469,-5.293776,1.803005,-3.552271,-0.339407,0.307106
56,521374854,-13.59243,22.062006,87.92408,-3.147509,-5.840128,1.9421496,-2.6663294,-0.4755274,0.3389325,-3.047927,-5.391111,1.835374,-3.59671,-0.347332,0.312755
57,521391521,-13.585388,22.063072,87.91232,-3.1508691,-5.839531,1.9404278,-2.7157042,-0.45370185,0.35593408,-3.100441,-5.488437,1.867714,-3.641972,-0.354894,0.318687
58,521408188,-13.579773,22.065422,87.90148,-3.1552804,-5.839404,1.9390676,-2.7602673,-0.44458568,0.37855613,-3.153029,-5.58576,1.900032,-3.687976,-0.362304,0.324996
59,521424855,-13.57579,22.069086,87.891594,-3.1606944,-5.8397884,1.9382069,-2.7997031,-0.45091438,0.40802318,-3.205707,-5.68309,1.932335,-3.734638,-0.369819,0.331796
60,521441522,-13.572334,22.074844,87.882034,-3.1682677,-5.8399887,1.9352067,-2.8475578,-0.42903543,0.4233938,-3.258511,-5.780423,1.964588,-3.782097,-0.37697,0.338853
61,521458189,-13.569847,22.082624,87.873055,-3.1778345,-5.840211,1.930695,-2.8992696,-0.38996637,0.42968982,-3.311475,-5.87776,1.996766,-3.830418,-0.383469,0.346014
62,521474856,-13.567345,22.08789,87.86336,-3.1823401,-5.8398876,1.9280076,-2.9395769,-0.3838644,0.44312602,-3.364514,-5.975091,2.028899,-3.879411,-0.389867,0.353399
63,521491523,-13.564644,22.090357,87.85277,-3.1812866,-5.8388824,1.9271119,-2.9680953,-0.41004717,0.46241283,-3.417535,-6.072406,2.061018,-3.928879,-0.396701,0.361106
64,521508190,-13.56263,22.092186,87.84215,-3.1779358,-5.8376102,1.9268188,-2.9886007,-0.45201468,0.4829862,-3.470501,-6.1697,2.093132,-3.978689,-0.404235,0.369156
65,521524857,-13.56102,22.092155,87.83113,-3.170352,-5.835887,1.9279544,-2.9967685,-0.52226746,0.5084235,-3.52334,-6.266965,2.125265,-4.028635,-0.412939,0.37763
66,521541524,-13.560303,22.093182,87.82036,-3.1629646,-5.8338623,1.9278502,-3.0048256,-0.58014524,0.52352375,-3.576056,-6.364196,2.157396,-4.078715,-0.422608,0.386355
67,521558191,-13.560623,22.095459,87.80991,-3.1560183,-5.8315554,1.926367,-3.0126073,-0.62392867,0.5274218,-3.628656,-6.461389,2.189502,-4.128925,-0.433007,0.395145
68,521574858,-13.561523,22.09649,87.799194,-3.1455998,-5.828722,1.9255185,-3.0099251,-0.68442965,0.53042024,-3.681083,-6.558534,2.221594,-4.17909,-0.444414,0.403985
69,521591525,-13.563171,22.096895,87.78836,-3.132601,-5.8253803,1.9247217,-2.99887,-0.7529999,0.5289834,-3.733293,-6.655624,2.253673,-4.229071,-0.456964,0.412801
70,521608192,-13.565231,22.100594,87.77922,-3.1255405,-5.8234377,1.9242878,-3.0039265,-0.8098649,0.5459742,-3.785385,-6.752681,2.285744,-4.279136,-0.470462,0.421901
71,521624859,-13.567596,22.107653,87.77189,-3.1247165,-5.823037,1.9244757,-3.0259397,-0.8566275,0.5845817,-3.837464,-6.849732,2.317819,-4.329568,-0.484739,0.431644
72,521641526,-13.57061,22.116625,87.76561,-3.1266596,-5.8232775,1.9247313,-3.0543878,-0.8966742,0.63137335,-3.889575,-6.946787,2.349898,-4.380474,-0.499684,0.442167
73,521658193,-13.574188,22.128534,87.76087,-3.133614,-5.8246784,1.9252064,-3.0956392,-0.9253185,0.6930415,-3.941802,-7.043865,2.381985,-4.432068,-0.515106,0.453718
74,521674860,-13.578468,22.140461,87.75652,-3.1395874,-5.826069,1.9262283,-3.1321406,-0.962028,0.7587305,-3.994128,-7.140966,2.414089,-4.48427,-0.53114,0.466364
75,521691527,-13.5835495,22.152287,87.7525,-3.1442823,-5.8273754,1.9277735,-3.1628022,-1.0071583,0.8275152,-4.046533,-7.238089,2.446219,-4.536983,-0.547926,0.480156
76,521708194,-13.589218,22.166344,87.74988,-3.1526282,-5.829646,1.9298317,-3.2017705,-1.0470418,0.9108096,-4.099077,-7.33525,2.478383,-4.590346,-0.565377,0.495336
77,521724861,-13.59552,22.18203,87.748375,-3.1633847,-5.8326435,1.9324882,-3.2452455,-1.0857239,1.0065212,-4.1518,-7.432461,2.510591,-4.644433,-0.583472,0.512111
78,521741528,-13.601273,22.196074,87.74575,-3.1697886,-5.834751,1.9331653,-3.275967,-1.1122198,1.067445,-4.20463,-7.529707,2.54281,-4.699032,-0.602009,0.529902
79,521758195,-13.606285,22.208454,87.741875,-3.1718063,-5.8359556,1.9316423,-3.293912,-1.1238859,1.0906906,-4.257493,-7.626973,2.575004,-4.753931,-0.62074,0.54808
80,521774862,-13.611214,22.220306,87.73773,-3.171821,-5.8368797,1.9292142,-3.3045979,-1.1286161,1.0973659,-4.310357,-7.724254,2.607158,-4.809008,-0.63955,0.566369
81,521791529,-13.615646,22.230795,87.73271,-3.168102,-5.8371124,1.9251685,-3.3035593,-1.1228175,1.074646,-4.363159,-7.821539,2.639244,-4.864067,-0.658264,0.58428
82,521808196,-13.620354,22.242435,87.72846,-3.1658795,-5.8378773,1.9210007,-3.304305,-1.108998,1.0529175,-4.415924,-7.918837,2.671261,-4.919139,-0.676747,0.601829
83,521824863,-13.625336,22.255327,87.72505,-3.1653738,-5.839239,1.916812,-3.3072262,-1.087461,1.0337863,-4.46868,-8.016158,2.703208,-4.974259,-0.694871,0.619059
84,521841530,-13.629913,22.267485,87.721176,-3.1624959,-5.840249,1.9112318,-3.3016887,-1.0535519,0.9908522,-4.521388,-8.113495,2.735062,-5.029287,-0.71243,0.635573
85,521858197,-13.634216,22.279428,87.717155,-3.1583397,-5.8411713,1.9045637,-3.2904077,-1.0075037,0.9302543,-4.574027,-8.210848,2.766805,-5.084127,-0.729222,0.651077
86,521874864,-13.638191,22.292027,87.714294,-3.1562996,-5.840605,1.9010799,-3.2915182,-0.9904274,0.89873487,-4.626632,-8.308191,2.79849,-5.138986,-0.745729,0.666056
87,521891531,-13.641701,22.30511,87.712524,-3.15621,-5.838295,1.9010143,-3.3054688,-1.0053947,0.89726895,-4.679235,-8.405496,2.830174,-5.194077,-0.762486,0.68101
88,521908198,-13.644867,22.318615,87.71145,-3.1571991,-5.8350735,1.9025414,-3.325459,-1.0328588,0.90760213,-4.731855,-8.502747,2.861883,-5.249501,-0.7797,0.696137
89,521924865,-13.647591,22.332705,87.711395,-3.1600852,-5.8305025,1.9068205,-3.3562598,-1.0841118,0.9418163,-4.784523,-8.599922,2.893663,-5.305439,-0.797769,0.711834
90,521941532,-13.649696,22.346317,87.71132,-3.1618116,-5.825136,1.9110203,-3.3844204,-1.1339036,0.96564573,-4.83722,-8.697008,2.925513,-5.361846,-0.816667,0.727928
91,521958199,-13.651154,22.359426,87.711174,-3.1622782,-5.819001,1.9150085,-3.4093883,-1.1807292,0.9773739,-4.889925,-8.793991,2.95743,-5.418669,-0.836346,0.744218
92,521974866,-13.651978,22.372656,87.71174,-3.1636944,-5.811405,1.9212167,-3.4420204,-1.2470945,1.0044112,-4.942653,-8.890848,2.98945,-5.476036,-0.857131,0.760958
93,521991533,-13.652039,22.38577,87.71276,-3.1654105,-5.8024254,1.9290779,-3.4795628,-1.3278886,1.0395358,-4.99541,-8.987555,3.021601,-5.534029,-0.879262,0.778284
94,522008200,-13.677818,22.397606,87.71628,-3.1658967,-5.7984734,1.9307024,-3.6771069,-1.4392052,1.0257759,-5.048175,-9.084196,3.053779,-5.595314,-0.903249,0.79538
95,522024867,-13.731995,22.408081,87.72258,-3.1652415,-5.800061,1.9256318,-4.0520678,-1.5860349,0.960764,-5.100929,-9.180864,3.085873,-5.662848,-0.929683,0.811393
96,522041534,-13.802116,22.41754,87.73052,-3.1637096,-5.8041897,1.9172235,-4.5302362,-1.757907,0.86642426,-5.153657,-9.2776,3.117827,-5.738352,-0.958981,0.825833
97,522058201,-13.895805,22.425632,87.740746,-3.160919,-5.812645,1.9033208,-5.157321,-1.9608729,0.72733647,-5.206339,-9.374477,3.149549,-5.824307,-0.991662,0.837955
98,522074868,-13.997917,22.433155,87.75237,-3.1583288,-5.821519,1.8891413,-5.847643,-2.1921122,0.5834605,-5.258978,-9.471502,3.181035,-5.921768,-1.028197,0.847679
99,522091535,-14.107826,22.440088,87.765305,-3.1559505,-5.8306046,1.8749125,-6.598422,-2.4520755,0.43616062,-5.311577,-9.568679,3.212284,-6.031742,-1.069065,0.854948
100,522108202,-14.240166,22.44569,87.78059,-3.15272,-5.8434467,1.856123,-7.49465,-2.7484438,0.25181538,-5.364122,-9.66607,3.243219,-6.156653,-1.114872,0.859145
101,522124869,-14.392212,22.450083,87.798065,-3.1489253,-5.859273,1.8338034,-8.521539,-3.081751,0.038250804,-5.416604,-9.763725,3.273782,-6.298679,-1.166235,0.859783
102,522141536,-14.516808,22.48053,87.81797,-3.1467578,-5.8687534,1.812998,-9.654788,-3.3515096,0.30333912,-5.46905,-9.861538,3.303999,-6.459592,-1.222093,0.864839
103,522158203,-14.61161,22.539703,87.84054,-3.1463084,-5.8714705,1.7935579,-10.907195,-3.5498576,1.0944438,-5.521488,-9.959396,3.333892,-6.641379,-1.281257,0.88308
104,522174870,-14.697472,22.614883,87.86565,-3.1467361,-5.871374,1.7737098,-12.28467,-3.725535,2.178642,-5.573934,-10.057252,3.363454,-6.846123,-1.343349,0.919391
105,522191537,-14.761856,22.713945,87.89343,-3.1486351,-5.8659773,1.7546504,-13.787618,-3.8508887,3.7019093,-5.626411,-10.155018,3.392698,-7.075917,-1.40753,0.981089
106,522208204,-14.8364105,22.821003,87.924126,-3.1504338,-5.8616686,1.7321696,-15.458141,-3.987327,5.363672,-5.678918,-10.252712,3.421567,-7.333553,-1.473985,1.070484
107,522224871,-14.9229965,22.935457,87.95781,-3.1520774,-5.858775,1.7060122,-17.303053,-4.1387196,7.153035,-5.731453,-10.350358,3.450001,-7.621937,-1.542964,1.189701
108,522241538,-14.994995,23.072435,87.99458,-3.1548762,-5.8519564,1.6792321,-19.306355,-4.250211,9.353067,-5.784034,-10.447891,3.477988,-7.94371,-1.613801,1.345585
109,522258205,-15.059006,23.229046,88.034615,-3.1585205,-5.8425283,1.650872,-21.482124,-4.3343296,11.909025,-5.836676,-10.545266,3.505503,-8.301745,-1.68604,1.544069
110,522274872,-15.53376,23.388363,88.05235,-3.1734579,-5.8176355,1.5505681,-27.4908,-4.532979,13.423513,-5.889567,-10.642227,3.531346,-8.759925,-1.76159,1.767794
111,522291539,-16.45871,23.55122,88.04528,-3.200953,-5.775221,1.3713768,-37.713017,-4.852689,13.80044,-5.942916,-10.738481,3.554202,-9.388475,-1.842468,1.997801
112,522308206,-17.642365,23.724257,88.02551,-3.2359426,-5.722108,1.1454747,-50.452946,-5.2344384,13.6682415,-5.996848,-10.833849,3.573293,-10.229357,-1.929709,2.225605
113,522324873,-19.20533,23.903744,87.985695,-3.281545,-5.654272,0.852417,-66.78137,-5.7162905,12.641984,-6.05154,-10.928087,3.5875,-11.34238,-2.024981,2.436305
114,522341540,-20.900894,24.104197,87.94062,-3.3321693,-5.57759,0.53316116,-84.60844,-6.2016606,11.611304,-6.107076,-11.021047,3.596386,-12.752521,-2.128342,2.629827
115,522358207,-22.720482,24.326883,87.89089,-3.3876545,-5.4921885,0.18897963,-103.871155,-6.686045,10.620236,-6.163537,-11.112583,3.599536,-14.483707,-2.239776,2.806831
116,522374874,-24.897507,24.561857,87.82247,-3.453696,-5.3913183,-0.21936607,-126.60022,-7.2509193,8.88436,-6.221099,-11.202438,3.59588,-16.593711,-2.360625,2.954904
117,522391541,-27.38736,24.812721,87.73806,-3.5293624,-5.2758217,-0.6846304,-152.43126,-7.8767385,6.580097,-6.279922,-11.290368,3.584469,-19.134232,-2.491904,3.064572
118,522408208,-29.68908,25.038021,87.711426,-3.5884755,-5.140583,-1.0416093,-167.99405,-8.545415,5.125635,-6.33973,-11.376044,3.567109,-21.934133,-2.634328,3.149999
119,522424875,-31.79078,25.232807,87.74777,-3.6294003,-4.9836655,-1.2801213,-172.27176,-9.266604,4.5493784,-6.40022,-11.459105,3.545774,-24.805329,-2.788771,3.225822
120,522441542,-33.907005,25.419409,87.81388,-3.6640809,-4.807502,-1.4743986,-171.37164,-10.037076,4.2876997,-6.461288,-11.53923,3.521201,-27.661523,-2.956056,3.297284
121,522458209,-35.910378,25.585838,87.930115,-3.6854227,-4.6098375,-1.5795612,-161.5721,-10.856027,4.7050333,-6.522712,-11.616061,3.494875,-30.354391,-3.13699,3.375701
122,522474876,-38.16239,25.754023,88.049866,-3.7103364,-4.391142,-1.702951,-151.19293,-11.757024,4.7611585,-6.584551,-11.689247,3.466492,-32.874273,-3.33294,3.455054
123,522491543,-40.687325,25.925432,88.17085,-3.7397947,-4.15077,-1.850389,-140.63573,-12.742602,4.399929,-6.646881,-11.758427,3.435652,-35.218202,-3.545317,3.528386
124,522508210,-43.198845,26.078342,88.334465,-3.7591755,-3.8859174,-1.9290609,-122.43619,-13.797508,4.4492273,-6.709534,-11.823192,3.403501,-37.258805,-3.775275,3.60254
125,522524877,-45.776955,26.216959,88.531494,-3.7719495,-3.5959547,-1.960804,-98.21947,-14.931,4.6869836,-6.7724,-11.883125,3.370821,-38.895796,-4.024125,3.680656
126,522541544,-47.88642,26.372576,88.661064,-3.7867372,-3.3462288,-2.036735,-81.31782,-15.426212,4.6867204,-6.835512,-11.938895,3.336875,-40.251093,-4.281229,3.758768
127,522558211,-49.438545,26.544785,88.71906,-3.802346,-3.1422904,-2.1528978,-71.953415,-15.210468,4.5077205,-6.898884,-11.991267,3.300993,-41.450317,-4.534737,3.833897
128,522574878,-50.739037,26.720972,88.74754,-3.8168325,-2.952366,-2.2796597,-64.77473,-14.627727,4.201874,-6.962498,-12.040473,3.262999,-42.529896,-4.778532,3.903928
129,522591545,-51.62214,26.908588,88.71974,-3.8318956,-2.7946684,-2.4382973,-63.175213,-13.471118,3.6783903,-7.026363,-12.087051,3.222361,-43.582816,-5.003051,3.965235
130,522608212,-52.323418,27.0832,88.705536,-3.8385227,-2.629861,-2.550469,-57.312077,-12.150263,3.3990018,-7.090338,-12.130882,3.179853,-44.538017,-5.205555,4.021885
131,522624879,-52.854378,27.242985,88.70845,-3.8361547,-2.4556172,-2.6117435,-46.615444,-10.682556,3.3767502,-7.154274,-12.171809,3.136324,-45.314941,-5.383598,4.078164
132,522641546,-52.94227,27.406002,88.6705,-3.8304458,-2.3076642,-2.6781,-38.845024,-8.675395,3.310669,-7.218115,-12.21027,3.091689,-45.962358,-5.528188,4.133342
133,522658213,-52.624092,27.566559,88.606064,-3.8192081,-2.1781452,-2.731758,-31.86738,-6.2037706,3.3026655,-7.281768,-12.246572,3.04616,-46.493481,-5.631584,4.188386
134,522674880,-52.659462,27.68778,88.57127,-3.8154705,-2.0722592,-2.795895,-25.212849,-4.474624,3.168167,-7.345359,-12.28111,2.999562,-46.913695,-5.706161,4.241189
135,522691547,-53.071632,27.767616,88.563965,-3.820889,-1.9959815,-2.8782635,-19.768536,-3.5455399,2.8624055,-7.40904,-12.314376,2.951591,-47.243171,-5.765253,4.288896
136,522708214,-53.511543,27.818987,88.56692,-3.827566,-1.9425108,-2.954795,-14.304554,-2.8860168,2.548018,-7.472833,-12.346751,2.902344,-47.48158,-5.813353,4.331363
137,522724881,-54.171486,27.831446,88.59353,-3.8391895,-1.9156535,-3.0331192,-8.970265,-2.8165739,2.1690836,-7.536819,-12.378679,2.851792,-47.631084,-5.860296,4.367514
138,522741548,-54.522957,27.830027,88.59567,-3.8493497,-1.9227388,-3.1129446,-6.0217104,-2.522652,1.7576699,-7.600975,-12.410725,2.79991,-47.731446,-5.90234,4.396808
139,522758215,-54.5243,27.814873,88.57108,-3.857349,-1.9650586,-3.1921911,-5.471828,-1.9569275,1.3287835,-7.665264,-12.443476,2.746707,-47.822643,-5.934955,4.418954
140,522774882,-54.5971,27.7638,88.55476,-3.86959,-2.043688,-3.277773,-6.4295187,-1.8018384,0.81814724,-7.729757,-12.477537,2.692077,-47.929802,-5.964986,4.43259
141,522791549,-54.621452,27.681156,88.536156,-3.8847036,-2.1617076,-3.3694801,-9.450662,-1.8867072,0.23413342,-7.794502,-12.513565,2.635919,-48.087313,-5.996431,4.436492
142,522808216,-54.63996,27.641928,88.522964,-3.8998542,-2.2252672,-3.4337044,-10.42899,-1.9124537,-0.13198334,-7.8595,-12.550653,2.578691,-48.26113,-6.028305,4.434292
143,522824883,-54.70504,27.650091,88.51969,-3.9157338,-2.2268264,-3.468711,-9.009308,-1.9403578,-0.26280108,-7.924762,-12.587767,2.520879,-48.411285,-6.060644,4.429912
144,522841550,-54.711555,27.672462,88.51514,-3.932877,-2.214153,-3.4905605,-7.621974,-2.002587,-0.29113674,-7.99031,-12.62467,2.462703,-48.538318,-6.09402,4.42506
145,522858217,-54.685005,27.72915,88.51238,-3.950874,-2.1616566,-3.490469,-5.1873636,-2.0455892,-0.13858032,-8.056158,-12.660698,2.404529,-48.624774,-6.128113,4.42275
146,522874884,-54.700188,27.769756,88.51574,-3.973033,-2.1258428,-3.4892626,-3.9450126,-2.4253538,0.013832271,-8.122375,-12.696129,2.346375,-48.690524,-6.168536,4.422981
147,522891551,-54.752205,27.791431,88.524475,-3.9996421,-2.1109936,-3.4884987,-4.1756434,-3.15983,0.15570068,-8.189036,-12.731312,2.288233,-48.760118,-6.2212,4.425576
148,522908218,-54.830284,27.836731,88.53937,-4.0288935,-2.0668218,-3.4703684,-3.8764296,-4.0375376,0.4456433,-8.256184,-12.765759,2.230394,-48.824725,-6.288492,4.433003
149,522924885,-54.95266,27.89519,88.561424,-4.061676,-2.0052812,-3.4393702,-3.5803761,-5.1444216,0.84683937,-8.323879,-12.79918,2.173071,-48.884398,-6.374232,4.447117
150,522941552,-55.01104,27.937025,88.56706,-4.083615,-1.9755375,-3.422039,-3.4615202,-5.7360644,1.1551547,-8.391939,-12.832106,2.116037,-48.94209,-6.469833,4.46637
151,522958219,-55.00141,27.965014,88.55462,-4.0932436,-1.9755485,-3.4187393,-3.2924147,-5.726315,1.3726287,-8.46016,-12.865032,2.059058,-48.996964,-6.565272,4.489247
152,522974886,-54.992836,27.986588,88.536255,-4.098093,-1.9897015,-3.4199972,-3.3706694,-5.5347657,1.5730197,-8.528462,-12.898194,2.002058,-49.053142,-6.657518,4.515464
153,522991553,-54.960503,27.995255,88.50566,-4.0941076,-2.0295756,-3.4326973,-3.6705735,-4.95044,1.7060809,-8.596697,-12.93202,1.944846,-49.114318,-6.740025,4.543899
154,523008220,-54.967567,28.01973,88.476746,-4.0893397,-2.0536292,-3.4370708,-3.6570253,-4.360242,1.9333541,-8.664853,-12.966247,1.887561,-49.175268,-6.812696,4.576122
155,523024887,-55.025642,28.06148,88.450676,-4.0843525,-2.0597122,-3.4323664,-3.3333695,-3.7975006,2.26361,-8.732926,-13.000576,1.830355,-49.230824,-6.875988,4.613849
156,523041554,-55.085915,28.101242,88.41519,-4.07154,-2.0778716,-3.4344215,-2.9196842,-2.8836484,2.5747929,-8.800785,-13.035207,1.773115,-49.279485,-6.924049,4.656762
157,523058221,-55.166557,28.145636,88.373344,-4.0525146,-2.0988462,-3.4392014,-2.289125,-1.697639,2.902381,-8.868327,-13.070188,1.715795,-49.317637,-6.952343,4.705135
158,523074888,-54.9909,28.198923,88.35817,-4.050871,-2.1351607,-3.441514,1.2379484,-1.4006166,2.9644117,-8.935842,-13.105774,1.658436,-49.297005,-6.975687,4.754542
159,523091555,-54.52758,28.259983,88.37141,-4.0678487,-2.1911576,-3.442936,7.9477606,-2.0523853,2.7182333,-9.003639,-13.142293,1.601054,-49.164542,-7.009893,4.799846
160,523108222,-53.92205,28.33193,88.39955,-4.0932946,-2.2542398,-3.4433813,16.70094,-3.1533208,2.3205893,-9.071861,-13.179864,1.543664,-48.886193,-7.062448,4.838522
161,523124889,-53.09455,28.415947,88.45163,-4.133569,-2.328676,-3.4420948,28.301554,-5.0157104,1.6857629,-9.140754,-13.218675,1.486296,-48.4145,-7.146043,4.866618
162,523141556,-52.198387,28.505337,88.505615,-4.1729913,-2.4145443,-3.4465313,41.18015,-6.8695474,0.9446241,-9.210304,-13.258917,1.428854,-47.728164,-7.260535,4.882362
163,523158223,-51.243248,28.600914,88.56068,-4.2107835,-2.5109518,-3.457076,55.327072,-8.67617,0.103797734,-9.280484,-13.300766,1.371236,-46.806046,-7.405138,4.884092
164,523174890,-50.08117,28.707373,88.635826,-4.2603292,-2.6217735,-3.4696693,72.28615,-11.092556,-0.98157614,-9.351489,-13.344462,1.313408,-45.601277,-7.590014,4.867732
165,523191557,-48.741768,28.823841,88.72677,-4.318454,-2.7471163,-3.4861727,91.807175,-13.96248,-2.2898328,-9.423463,-13.390247,1.255305,-44.071157,-7.822722,4.829568
166,523208224,-47.620644,28.929054,88.8261,-4.359855,-2.843294,-3.4394941,100.727684,-15.560456,-3.1359804,-9.496127,-13.437635,1.19798,-42.392362,-8.082063,4.777302
167,523224891,-46.734276,29.021683,88.93591,-4.3838406,-2.9069154,-3.322669,97.9831,-15.802432,-3.4775183,-9.569191,-13.486084,1.142602,-40.75931,-8.345437,4.719343
168,523241558,-45.91268,29.11147,89.0573,-4.4003477,-2.9589021,-3.1686773,89.6553,-15.401797,-3.6290128,-9.64253,-13.535399,1.089791,-39.265055,-8.602134,4.658859
169,523258225,-45.260185,29.192646,89.18927,-4.402755,-2.9872153,-2.958191,72.05641,-13.892454,-3.4053047,-9.715909,-13.585186,1.040488,-38.064115,-8.833675,4.602104
170,523274892,-44.506386,29.27953,89.34178,-4.4093413,-3.0180233,-2.7289748,53.26433,-12.447953,-3.2468672,-9.789398,-13.635486,0.995005,-37.176376,-9.041141,4.54799
171,523291559,-43.63604,29.372976,89.515686,-4.420972,-3.05287,-2.482829,33.665672,-11.119667,-3.1797917,-9.863081,-13.686367,0.953625,-36.615281,-9.226469,4.494993
172,523308226,-42.87365,29.460842,89.70577,-4.4228168,-3.0681021,-2.1833978,5.9351444,-8.912113,-2.823318,-9.936795,-13.737502,0.917235,-36.516362,-9.375004,4.447938
173,523324893,-42.16253,29.54612,89.91475,-4.4186697,-3.068958,-1.837678,-28.362652,-6.060141,-2.2682734,-10.010439,-13.788651,0.886607,-36.989073,-9.476006,4.410133
174,523341560,-41.92936,29.59491,90.04668,-4.422227,-3.072479,-1.6496782,-51.212,-3.8749995,-1.8520565,-10.084143,-13.839859,0.859112,-37.842606,-9.540589,4.379265
175,523358227,-42.2481,29.60207,90.0918,-4.432936,-3.0768392,-1.6342659,-61.904854,-2.348496,-1.5555055,-10.158025,-13.89114,0.831874,-38.874354,-9.579731,4.35334
176,523374894,-42.883247,29.585302,90.097466,-4.4468026,-3.0770113,-1.699295,-68.03417,-1.0053425,-1.2758917,-10.232138,-13.942424,0.803552,-40.008257,-9.596487,4.332075
177,523391561,-43.969917,29.534115,90.036194,-4.467119,-3.0764635,-1.9013577,-64.84807,-0.1708622,-1.0906098,-10.30659,-13.993698,0.771863,-41.089058,-9.599335,4.313898
178,523408228,-45.32473,29.4646,89.962456,-4.4819694,-3.0586421,-2.1123962,-64.84722,1.1931015,-0.70112014,-10.381289,-14.044675,0.736656,-42.169845,-9.57945,4.302213
179,523424895,-46.94323,29.377163,89.87902,-4.490858,-3.0223277,-2.3263226,-68.70723,3.1416717,-0.09111357,-10.456137,-14.095047,0.697884,-43.314965,-9.527089,4.300694
180,523441562,-49.045876,29.253843,89.73391,-4.502445,-2.9781582,-2.6573472,-66.10119,4.8869634,0.5296349,-10.531178,-14.144683,0.653595,-44.416651,-9.44564,4.309521
181,523458229,-51.60746,29.097057,89.53735,-4.5141487,-2.9220479,-3.0804071,-59.64228,6.6558,1.229085,-10.606414,-14.193384,0.602255,-45.410689,-9.33471,4.330006
182,523474896,-53.18746,28.94905,89.39363,-4.5140686,-2.8682916,-3.3462324,-53.100246,8.168444,1.6128516,-10.681648,-14.241189,0.546484,-46.295693,-9.198569,4.356887
183,523491563,-53.684883,28.810528,89.30483,-4.501915,-2.8189595,-3.4466486,-45.485416,9.306816,1.6209581,-10.75668,-14.288172,0.48904,-47.053783,-9.043455,4.383903
184,523508230,-53.774498,28.662054,89.22714,-4.481426,-2.763974,-3.4844913,-36.691494,10.359955,1.4888198,-10.83137,-14.334238,0.430965,-47.665308,-8.870789,4.408717
185,523524897,-53.06266,28.514004,89.187004,-4.4493613,-2.7073042,-3.3945532,-27.321606,11.222166,1.0988696,-10.905526,-14.37936,0.374389,-48.120668,-8.683753,4.427031
186,523541564,-52.454918,28.335777,89.1088,-4.4147377,-2.6426427,-3.353279,-12.41014,11.854942,0.6286345,-10.979105,-14.423404,0.318501,-48.327504,-8.486171,4.437508
187,523558231,-52.004723,28.124723,88.987625,-4.3776712,-2.5688694,-3.3701315,8.285405,12.26975,0.09266579,-11.052066,-14.466218,0.262332,-48.189414,-8.281675,4.439052
188,523574898,-50.91584,27.904367,88.8832,-4.3307247,-2.4924295,-3.3012075,31.956291,12.382601,-0.70420927,-11.124245,-14.507758,0.207312,-47.656809,-8.075298,4.427315
189,523591565,-49.372902,27.667507,88.77888,-4.27558,-2.4117596,-3.183628,59.818005,12.175722,-1.7293513,-11.195505,-14.547954,0.154252,-46.659842,-7.872369,4.398492
190,523608232,-48.16082,27.436422,88.65839,-4.2386456,-2.3940208,-3.084278,78.183815,12.304288,-2.4191232,-11.266149,-14.587854,0.102847,-45.356778,-7.667298,4.358173
191,523624899,-47.24459,27.215786,88.52711,-4.221516,-2.4469898,-2.9912472,85.56079,12.802547,-2.7510164,-11.336508,-14.628637,0.052993,-43.930765,-7.453922,4.312323
192,523641566,-46.366096,26.989773,88.38109,-4.2127457,-2.538192,-2.8971634,89.38291,13.334353,-2.9759455,-11.40672,-14.67094,0.004707,-42.44105,-7.231683,4.262724
193,523658233,-45.70762,26.765343,88.21766,-4.2195563,-2.6875012,-2.8149576,85.77745,14.067749,-2.9471655,-11.477046,-14.715732,-0.042209,-41.011426,-6.997221,4.213605
194,523674900,-44.596214,26.534803,88.06096,-4.224481,-2.8578336,-2.6676025,82.09588,14.589785,-3.0472825,-11.547454,-14.763363,-0.086669,-39.643161,-6.754058,4.162817
195,523691567,-42.992485,26.29711,87.9111,-4.2267017,-3.0479467,-2.4519267,78.904465,14.860998,-3.301391,-11.617899,-14.814162,-0.127534,-38.328087,-6.506375,4.107794
196,523708234,-41.376106,26.062439,87.75417,-4.2413073,-3.2947295,-2.2154193,69.11648,15.225208,-3.3943732,-11.688587,-14.869074,-0.164458,-37.176146,-6.252622,4.051221
197,523724901,-39.593468,25.829397,87.59547,-4.2648134,-3.5917747,-1.9401288,54.21108,15.587093,-3.4087675,-11.759667,-14.928937,-0.196793,-36.272628,-5.992837,3.994408
198,523741568,-38.19793,25.559385,87.40158,-4.2536173,-3.80386,-1.7227287,44.56167,16.470964,-3.4844801,-11.830561,-14.992335,-0.225505,-35.529934,-5.718321,3.936333
199,523758235,-37.29171,25.250444,87.168175,-4.2054424,-3.9237115,-1.5761147,40.116158,17.971128,-3.5956762,-11.900652,-15.05773,-0.251774,-34.861331,-5.418802,3.876405
200,523774902,-36.50094,24.920267,86.915,-4.138661,-4.0121737,-1.4407144,36.823303,19.774755,-3.7315123,-11.96963,-15.1246,-0.275786,-34.247609,-5.089223,3.814213
201,523791569,-35.99375,24.558657,86.63244,-4.041463,-4.033102,-1.3440638,37.216633,22.046234,-3.9192107,-12.036988,-15.191818,-0.298187,-33.627332,-4.721786,3.748893
202,523808236,-35.563057,24.1908,86.33619,-3.9431705,-4.076085,-1.2408285,33.346054,24.564137,-3.9972737,-12.102708,-15.259753,-0.318867,-33.071564,-4.312384,3.682272
203,523824903,-35.18316,23.818348,86.02775,-3.8451202,-4.146476,-1.1259131,24.698494,27.315935,-3.9603715,-12.166793,-15.328861,-0.337632,-32.659922,-3.857118,3.616266
204,523841570,-35.109077,23.420025,85.690834,-3.722297,-4.168377,-1.0459547,17.299843,30.566275,-3.9086761,-12.228831,-15.398334,-0.355065,-32.371591,-3.34768,3.551121
205,523858237,-35.302025,23.001188,85.328575,-3.580577,-4.1605186,-0.991385,9.362396,34.280643,-3.8053727,-12.288507,-15.467676,-0.371588,-32.215551,-2.776336,3.487698
206,523874904,-35.130043,22.568113,84.91067,-3.4695072,-4.195236,-0.938272,4.252677,37.067043,-3.7171268,-12.346332,-15.537597,-0.387226,-32.144673,-2.158552,3.425746
207,523891571,-34.576286,22.118603,84.431274,-3.3905787,-4.269595,-0.8915534,2.9656994,38.83625,-3.657681,-12.402842,-15.608757,-0.402085,-32.095245,-1.511281,3.364785
208,523908238,-33.922966,21.653154,83.90616,-3.324069,-4.3614864,-0.85710764,2.6398947,40.23434,-3.5669692,-12.458243,-15.681448,-0.41637,-32.051247,-0.840709,3.305336
209,523924905,-33.010384,21.17257,83.32521,-3.2829776,-4.4881268,-0.8311968,4.4110746,40.884563,-3.463668,-12.512959,-15.75625,-0.430223,-31.977729,-0.1593,3.247608
210,523941572,-32.276237,20.66762,82.70115,-3.2317386,-4.587509,-0.83997774,7.786915,41.674267,-3.3320544,-12.566821,-15.832708,-0.444223,-31.847947,0.535271,3.192074
211,523958239,-31.752953,20.137856,82.03368,-3.1686366,-4.6567297,-0.8858881,12.606959,42.65717,-3.1649303,-12.619632,-15.91032,-0.458988,-31.637831,1.246224,3.139325
212,523974906,-31.090324,19.588165,81.30652,-3.1226275,-4.7407494,-0.95418835,20.18046,43.06301,-2.985075,-12.671676,-15.989332,-0.474891,-31.30149,1.963941,3.089574
213,523991573,-30.3863,19.016247,80.52092,-3.086327,-4.825924,-1.0519233,30.464703,43.07492,-2.787172,-12.723115,-16.069764,-0.492423,-30.793745,2.681856,3.043121
214,524008240,-29.731743,18.479252,79.84327,-2.9952335,-4.9416685,-1.0977149,35.63795,42.801914,-3.0591376,-12.773036,-16.152125,-0.510718,-30.199779,3.395221,2.992135
215,524024907,-29.095062,17.983105,79.28685,-2.8465476,-5.0957174,-1.0831809,35.23091,42.14588,-3.8542242,-12.820478,-16.237054,-0.528771,-29.612597,4.097652,2.927898
216,524041574,-28.502365,17.499054,78.77299,-2.6657424,-5.264535,-1.0527725,33.00462,41.166576,-4.940174,-12.864907,-16.324796,-0.546317,-29.06252,4.783762,2.845562
217,524058241,-27.96833,17.043465,78.34791,-2.4353943,-5.457741,-0.98376083,26.880737,39.853226,-6.460183,-12.905497,-16.415758,-0.562713,-28.614508,5.447982,2.737892
218,524074908,-27.356422,16.58435,77.90969,-2.200369,-5.669653,-0.9212723,21.783499,37.930325,-8.137853,-12.94217,-16.510252,-0.578068,-28.25145,6.080154,2.602261
219,524091575,-26.666817,16.119951,77.45271,-1.962369,-5.898919,-0.86908054,18.068686,35.37564,-9.963648,-12.974876,-16.608567,-0.592553,-27.950305,6.669748,2.4362
220,524108242,-25.97786,15.680937,77.06881,-1.6836128,-6.157305,-0.7848568,11.505491,32.29571,-12.207365,-13.002936,-16.711189,-0.605634,-27.758547,7.20801,2.232744
221,524124909,-25.26004,15.26124,76.73775,-1.3729787,-6.4440975,-0.6780205,3.1481483,28.610975,-14.820325,-13.025819,-16.818591,-0.616934,-27.706078,7.68486,1.985739
222,524141576,-24.775085,14.855658,76.42751,-1.1052752,-6.6619015,-0.6290593,-2.2954326,25.216026,-16.285587,-13.04424,-16.929623,-0.627418,-27.744335,8.105127,1.714313
223,524158243,-24.555115,14.468725,76.14883,-0.8827362,-6.803527,-0.63992023,-4.9107676,22.186453,-16.494549,-13.058952,-17.043015,-0.638083,-27.826181,8.474901,1.439404
224,524174910,-24.455193,14.099924,75.9054,-0.6755314,-6.915084,-0.6784835,-6.2239,19.02423,-16.136833,-13.070211,-17.158266,-0.649391,-27.929913,8.791971,1.170457
225,524191577,-24.55085,13.750048,75.6938,-0.5032754,-6.969842,-0.7655835,-5.070506,15.968681,-14.793386,-13.078599,-17.27443,-0.662151,-28.014421,9.058116,0.923901
226,524208244,-24.712372,13.431391,75.55901,-0.31206036,-7.0274563,-0.8436756,-5.251933,12.501383,-13.42028,-13.0838,-17.391554,-0.676212,-28.101953,9.266472,0.70023
227,524224911,-24.930267,13.145737,75.50525,-0.099252224,-7.0914392,-0.90978813,-6.9277544,8.569128,-12.065526,-13.085454,-17.509745,-0.691375,-28.217416,9.409291,0.499138
228,524241578,-25.33693,12.889011,75.510086,0.09135914,-7.1085587,-1.0104289,-7.2239676,4.631311,-9.88101,-13.083931,-17.628221,-0.708215,-28.337815,9.48648,0.334454
229,524258245,-25.907585,12.665302,75.58605,0.27100182,-7.0908575,-1.1334925,-6.9493723,0.5703393,-7.055943,-13.079414,-17.746402,-0.727107,-28.453638,9.495986,0.216855
230,524274912,-26.251099,12.536842,75.67092,0.3549676,-7.0469294,-1.1885653,-6.809827,-3.3275332,-4.760714,-13.073498,-17.863851,-0.746916,-28.567135,9.440527,0.13751
231,524291579,-26.349792,12.511284,75.75934,0.32876635,-6.969743,-1.1723547,-6.5397778,-6.973388,-2.9878173,-13.068019,-17.980013,-0.766455,-28.676131,9.324304,0.087713
232,524308246,-26.375153,12.56398,75.89237,0.2391367,-6.862194,-1.1192961,-6.357749,-10.580531,-1.2958372,-13.064033,-18.094383,-0.78511,-28.782093,9.147962,0.066116
233,524324913,-26.223763,12.714428,76.05428,0.059361935,-6.7235336,-1.0051184,-6.370143,-14.045251,0.02766937,-13.063044,-18.206442,-0.801862,-28.888262,8.913874,0.066577
234,524341580,-26.159256,12.928385,76.27977,-0.17408371,-6.5336885,-0.89408255,-5.4130487,-17.421926,1.9002302,-13.065945,-18.315337,-0.816763,-28.978479,8.623509,0.098248
235,524358247,-26.197105,13.206875,76.57467,-0.4602275,-6.290654,-0.7884755,-3.4764795,-20.712797,4.376551,-13.073615,-18.420181,-0.829904,-29.03642,8.278296,0.171191
236,524374914,-26.117058,13.5861,76.90966,-0.8427253,-6.002057,-0.63480806,-1.2068245,-23.787537,6.7633004,-13.08766,-18.520215,-0.840484,-29.056534,7.881837,0.283913
237,524391581,-25.97451,14.061659,77.294075,-1.3165035,-5.661871,-0.4458022,1.6569355,-26.6445,9.264668,-13.109602,-18.61458,-0.847914,-29.028918,7.437762,0.438324
238,524408248,-26.00547,14.531345,77.648766,-1.673996,-5.385826,-0.3036294,2.6043503,-29.377598,11.726653,-13.137502,-18.704344,-0.852974,-28.985512,6.948135,0.633768
239,524424915,-26.204689,14.99234,77.96296,-1.9031577,-5.1844425,-0.20909023,1.3448775,-31.959064,14.057734,-13.169221,-18.790751,-0.856459,-28.963097,6.415484,0.868064
240,524441582,-26.49701,15.492664,78.28124,-2.101169,-4.9974546,-0.13120222,-0.7393848,-34.32526,16.47557,-13.20424,-18.874042,-0.858646,-28.97542,5.843396,1.142657
241,524458249,-26.940521,16.00676,78.58027,-2.212658,-4.8568716,-0.090886116,-4.364648,-36.4801,18.916533,-13.241118,-18.95499,-0.860161,-29.048164,5.235394,1.457933
242,524474916,-27.340813,16.607447,78.90084,-2.3723912,-4.6955843,-0.02540636,-8.243528,-38.313385,21.300241,-13.280658,-19.03325,-0.860584,-29.185556,4.596838,1.812937
243,524491583,-27.689682,17.301014,79.24587,-2.5893874,-4.508503,0.06842327,-12.277353,-39.796875,23.639023,-13.323814,-19.108392,-0.859444,-29.390179,3.933557,2.206921
244,524508250,-28.132652,18.030472,79.573906,-2.748919,-4.3570004,0.14162636,-17.744667,-40.972385,25.911358,-13.369629,-19.181009,-0.857084,-29.685923,3.250684,2.638777
245,524524917,-28.628136,18.812817,79.89272,-2.8796077,-4.2271223,0.20762968,-24.392328,-41.79735,28.096565,-13.417622,-19.251461,-0.853624,-30.092462,2.554061,3.107053
246,524541584,-29.154617,19.627703,80.200455,-3.0518556,-4.0606966,0.26778364,-29.492718,-42.834003,30.1957,-13.468486,-19.319139,-0.849161,-30.584007,1.840161,3.610315
247,524558251,-29.726624,20.46702,80.48982,-3.25744,-3.8607743,0.31628227,-32.975094,-44.12636,32.191593,-13.522777,-19.383485,-0.84389,-31.133592,1.104722,4.146842
248,524574918,-30.325668,21.35281,80.76531,-3.481664,-3.6463025,0.36152172,-35.986805,-45.36371,34.05947,-13.580805,-19.444257,-0.837865,-31.733372,0.34866,4.7145
249,524591585,-30.950165,22.277784,81.02307,-3.7394068,-3.4039962,0.40205002,-37.828224,-46.695053,35.786327,-13.643128,-19.50099,-0.831164,-32.363842,-0.429591,5.310939
250,524608252,-31.65055,23.240978,81.25167,-3.9599571,-3.183913,0.42426586,-40.432407,-47.77804,37.359955,-13.709127,-19.554055,-0.824093,-33.037715,-1.225892,5.933605
251,524624919,-32.426567,24.24396,81.44869,-4.1400185,-2.9890893,0.4280324,-43.918167,-48.577198,38.763927,-13.778127,-19.603873,-0.816959,-33.769684,-2.035512,6.57967
252,524641586,-33.252983,25.280443,81.614334,-4.326005,-2.7842133,0.4181466,-46.732174,-49.38706,39.982464,-13.850227,-19.650277,-0.80999,-34.548554,-2.85863,7.246044
253,524658253,-34.14115,26.350069,81.74383,-4.501647,-2.5808232,0.39114046,-49.292797,-50.128433,41.00054,-13.925254,-19.693291,-0.803471,-35.370101,-3.694104,7.929386
254,524674920,-34.99595,27.409008,81.89588,-4.6641493,-2.4296267,0.36699867,-51.279377,-50.6205,41.54034,-14.00299,-19.733785,-0.797354,-36.224757,-4.537779,8.621725
255,524691587,-35.807,28.450851,82.07374,-4.816824,-2.33265,0.34714127,-52.466915,-50.880547,41.559498,-14.08327,-19.772662,-0.791568,-37.099206,-5.385788,9.314383
256,524708254,-36.62809,29.495085,82.24414,-4.9483285,-2.2749574,0.3189187,-53.286385,-50.93755,41.16549,-14.165742,-19.810578,-0.786253,-37.987312,-6.234747,10.000474
257,524724921,-37.432625,30.52773,82.42181,-5.057851,-2.2709339,0.28729153,-53.58304,-50.749943,40.266518,-14.25004,-19.848427,-0.781465,-38.880363,-7.080579,10.671583
258,524741588,-38.269417,31.571945,82.56933,-5.1572304,-2.2837088,0.24113274,-53.141296,-50.488598,38.99668,-14.335994,-19.886489,-0.777446,-39.766051,-7.922056,11.321528
259,524758255,-39.142937,32.627308,82.682045,-5.2441907,-2.3135893,0.17864275,-51.961338,-50.156303,37.345657,-14.423397,-19.925049,-0.774469,-40.632073,-8.757994,11.943956
260,524774922,-40.0057,33.66862,82.790115,-5.311299,-2.392494,0.109161854,-49.985985,-49.633137,35.1533,-14.511919,-19.964924,-0.77265,-41.465173,-9.585213,12.529844
261,524791589,-40.86785,34.69891,82.88418,-5.359778,-2.5141928,0.02973032,-47.14182,-48.95438,32.430664,-14.601249,-20.006827,-0.772154,-42.25087,-10.401119,13.070355
262,524808256,-41.649864,35.65061,82.98015,-5.409838,-2.6167686,-0.082816124,-44.562054,-47.7098,30.159208,-14.691413,-20.05044,-0.773534,-42.993571,-11.196282,13.573008
263,524824923,-42.336205,36.511406,83.08257,-5.4620657,-2.69927,-0.23000765,-42.30542,-45.843758,28.400826,-14.782447,-20.095428,-0.777367,-43.698661,-11.960345,14.046355
264,524841590,-42.96978,37.312702,83.17669,-5.5069404,-2.7880766,-0.40342236,-39.75055,-43.57194,26.684963,-14.874229,-20.141896,-0.784091,-44.36117,-12.686544,14.491104
265,524858257,-43.524254,38.031887,83.26762,-5.549546,-2.8676894,-0.6097045,-37.181713,-40.771282,25.274532,-14.966721,-20.189691,-0.794253,-44.980865,-13.366065,14.912346
266,524874924,-44.03225,38.69777,83.351875,-5.5741973,-2.9846656,-0.8341236,-33.889706,-37.643047,23.536627,-15.059624,-20.239435,-0.808155,-45.545693,-13.993449,15.304623
267,524891591,-44.493416,39.308678,83.428085,-5.579534,-3.1423194,-1.0766587,-29.791916,-34.195755,21.426794,-15.152616,-20.291807,-0.826099,-46.042225,-14.563378,15.661736
268,524908258,-44.865654,39.82745,83.5025,-5.5774574,-3.3047493,-1.3508763,-25.467705,-30.214888,19.486101,-15.245574,-20.346886,-0.848614,-46.466687,-15.066959,15.986504
269,524924925,-45.152428,40.256355,83.57422,-5.564246,-3.482506,-1.6543312,-20.74357,-25.734066,17.579302,-15.338311,-20.404928,-0.876186,-46.812413,-15.49586,16.279492
270,524941592,-45.425545,40.686485,83.60857,-5.588185,-3.6006753,-1.8905821,-16.894867,-21.943981,15.850517,-15.431447,-20.464939,-0.907696,-47.093994,-15.861593,16.543667
271,524958259,-45.682518,41.118,83.603165,-5.6554003,-3.6476367,-2.052115,-14.112757,-18.926529,14.387296,-15.525704,-20.525733,-0.941898,-47.329207,-16.177035,16.783455
272,524974926,-45.887764,41.50538,83.57384,-5.740498,-3.6660178,-2.1831193,-11.669232,-16.134989,13.035738,-15.621379,-20.586833,-0.978283,-47.523694,-16.445951,17.000717
273,524991593,-46.05645,41.869698,83.51103,-5.8577433,-3.6330311,-2.256671,-9.948442,-13.895604,11.864177,-15.719008,-20.647384,-1.015894,-47.689501,-16.677544,17.198453
274,525008260,-46.130516,42.142593,83.43605,-5.982028,-3.583113,-2.3326797,-8.336365,-11.455165,10.932311,-15.818708,-20.707103,-1.054772,-47.82844,-16.868463,17.380658
275,525024927,-46.102592,42.31628,83.34997,-6.112055,-3.5182445,-2.4140162,-6.7933073,-8.772495,10.246078,-15.920576,-20.76574,-1.095006,-47.941662,-17.014671,17.551426
276,525041594,-46.011696,42.440384,83.23377,-6.2734027,-3.4001667,-2.4467802,-5.977751,-6.51016,9.850233,-16.025133,-20.822409,-1.135786,-48.041291,-17.123174,17.715597
277,525058261,-45.842033,42.497356,83.0917,-6.461573,-3.2346885,-2.4426413,-5.780132,-4.516428,9.772674,-16.132826,-20.87632,-1.176497,-48.137627,-17.198448,17.878475
278,525074928,-45.76937,42.55144,82.97004,-6.574144,-3.1451347,-2.4566832,-5.318838,-2.4491897,9.135178,-16.242395,-20.928739,-1.217442,-48.226274,-17.239268,18.030728
279,525091595,-45.813393,42.61281,82.87067,-6.6051273,-3.136863,-2.4862328,-4.6236696,-0.37080514,7.876088,-16.35248,-20.98102,-1.258879,-48.303335,-17.245448,18.161996
280,525108262,-45.878,42.636932,82.77429,-6.6006155,-3.1538546,-2.5118175,-4.0668063,1.6464862,6.445096,-16.46249,-21.033584,-1.300743,-48.371115,-17.218007,18.269414
281,525124929,-46.01319,42.64226,82.69317,-6.532978,-3.228288,-2.545907,-3.4510136,3.662704,4.608056,-16.571373,-21.087389,-1.343175,-48.428632,-17.156962,18.346215
282,525141596,-46.122993,42.600166,82.59524,-6.4689784,-3.276971,-2.5409431,-3.4899144,5.2927027,2.9045112,-16.679189,-21.142005,-1.385524,-48.486797,-17.06875,18.394624
283,525158263,-46.199944,42.506187,82.47886,-6.4123936,-3.2942135,-2.4935536,-4.2503285,6.5079203,1.3798652,-16.786062,-21.196909,-1.427083,-48.557636,-16.960285,18.417622
284,525174930,-46.336052,42.390392,82.37067,-6.305868,-3.3487213,-2.4369535,-5.2316556,7.5350103,-0.43339923,-16.89116,-21.252721,-1.467699,-48.64483,-16.834701,18.410399
285,525191597,-46.51194,42.246143,82.264,-6.1631246,-3.422446,-2.359859,-6.611744,8.27565,-2.416811,-16.993879,-21.309762,-1.50703,-48.755026,-16.696773,18.370119
286,525208264,-46.59919,42.06172,82.18187,-6.0599484,-3.4599006,-2.3210158,-7.124282,9.147397,-4.2174206,-17.094878,-21.367427,-1.545714,-48.873764,-16.544316,18.299829
287,525224931,-46.599037,41.840374,82.13023,-5.996039,-3.4641073,-2.3292046,-6.6028957,10.1994705,-5.860491,-17.194812,-21.425162,-1.584534,-48.983812,-16.374325,18.202154
288,525241598,-46.56089,41.583393,82.09425,-5.944272,-3.4490068,-2.3481388,-5.7844343,11.151086,-7.4330745,-17.293883,-21.482645,-1.62367,-49.080219,-16.188474,18.078269
289,525258265,-46.453545,41.289177,82.08195,-5.923592,-3.4013493,-2.3950644,-4.302538,12.114112,-8.854004,-17.39261,-21.539334,-1.663588,-49.151928,-15.986572,17.930702
290,525274932,-46.376457,40.971466,82.08754,-5.8746686,-3.3704755,-2.443225,-2.792523,12.882397,-10.442742,-17.490521,-21.595509,-1.704308,-49.19847,-15.771865,17.756656
291,525291599,-46.33596,40.63128,82.11109,-5.794571,-3.357962,-2.4899182,-1.3100436,13.421961,-12.211483,-17.587097,-21.651475,-1.745807,-49.220304,-15.548166,17.553131
292,525308266,-46.257286,40.26114,82.16353,-5.728763,-3.3281605,-2.5638585,0.78718424,13.926483,-13.93531,-17.682576,-21.706944,-1.788538,-49.207184,-15.316058,17.320876
293,525324933,-46.162804,39.864635,82.24473,-5.664469,-3.2915437,-2.6597428,3.372028,14.343788,-15.683976,-17.776984,-21.761803,-1.832867,-49.150984,-15.076995,17.059476
294,525341600,-46.05645,39.459835,82.299644,-5.618756,-3.2548106,-2.7548313,5.14114,14.8493595,-16.995405,-17.87063,-21.81605,-1.878781,-49.065298,-14.829506,16.776219
295,525358267,-45.930687,39.048595,82.3256,-5.598722,-3.2146885,-2.851694,6.065604,15.484312,-17.799232,-17.963942,-21.869628,-1.926309,-48.964205,-14.571434,16.479565
296,525374934,-45.79995,38.625706,82.349815,-5.5876594,-3.175275,-2.9584427,6.6894445,16.127985,-18.361668,-18.05707,-21.922549,-1.975616,-48.852714,-14.302634,16.173537
297,525391601,-45.66352,38.19693,82.35809,-5.5921,-3.1374881,-3.0707483,6.680416,16.838266,-18.543467,-18.150272,-21.97484,-2.026795,-48.741374,-14.021996,15.864479
298,525408268,-45.501488,37.751064,82.38672,-5.61405,-3.088022,-3.2098646,6.9674435,17.552187,-18.552477,-18.243839,-22.026307,-2.080293,-48.62525,-13.72946,15.555271
299,525424935,-45.315117,37.288868,82.43885,-5.653077,-3.0270302,-3.377904,7.6080475,18.264288,-18.402174,-18.338057,-22.076758,-2.136591,-48.498449,-13.425055,15.248568
300,525441602,-45.11355,36.821754,82.48468,-5.7146726,-2.9617412,-3.5616245,7.860235,19.060766,-17.860888,-18.433302,-22.12612,-2.195951,-48.367445,-13.107376,14.950887
301,525458269,-44.892784,36.348454,82.532486,-5.800019,-2.889294,-3.7666311,7.9259367,19.93236,-16.9644,-18.529969,-22.174275,-2.258728,-48.235346,-12.77517,14.668147
302,525474936,-44.70527,35.902878,82.53515,-5.8655376,-2.8360784,-3.8986893,7.7568226,20.343407,-15.818647,-18.627728,-22.221543,-2.323706,-48.106066,-12.436113,14.404503
303,525491603,-44.55677,35.49103,82.48429,-5.9089394,-2.8052146,-3.9476776,7.257429,20.257433,-14.390526,-18.72621,-22.268297,-2.389501,-47.985109,-12.098489,14.164661
304,525508270,-44.41973,35.09736,82.4078,-5.9526315,-2.7821505,-3.962572,6.587145,19.925354,-12.641312,-18.825421,-22.314666,-2.455544,-47.875323,-11.7664,13.953972
305,525524937,-44.30915,34.733143,82.290924,-5.985434,-2.7744443,-3.9164429,5.7036514,19.20138,-10.579524,-18.925178,-22.360907,-2.520818,-47.780262,-11.446377,13.777647
306,525541604,-44.198006,34.383846,82.15364,-6.0349855,-2.7688615,-3.8615122,4.4455013,18.421692,-8.0692625,-19.025761,-22.407055,-2.585177,-47.70617,-11.139349,13.643159
307,525558271,-44.08454,34.050316,81.99702,-6.10394,-2.7644088,-3.8010798,2.8122952,17.60651,-5.089003,-19.127493,-22.453128,-2.648528,-47.659298,-10.845907,13.558342
308,525574938,-43.995735,33.751156,81.79727,-6.169352,-2.77443,-3.6850204,0.8357837,16.46091,-1.700357,-19.230316,-22.499369,-2.709945,-47.645368,-10.571558,13.530003
309,525591605,-43.92646,33.4852,81.55749,-6.2376184,-2.796364,-3.5234776,-1.5282643,15.053734,2.1403706,-19.334276,-22.545975,-2.76867,-47.670839,-10.320662,13.565676
310,525608272,-43.86167,33.29222,81.326805,-6.255266,-2.8238943,-3.4096098,-3.207068,13.619433,5.410547,-19.43853,-22.59304,-2.825497,-47.72429,-10.093671,13.655852
311,525624939,-43.80433,33.180916,81.1054,-6.214119,-2.85861,-3.3448687,-4.1065354,12.139543,8.013525,-19.542099,-22.640683,-2.881245,-47.792732,-9.891345,13.789411
312,525641606,-43.75921,33.134132,80.870705,-6.1437387,-2.902232,-3.2908592,-4.774131,10.545343,10.472471,-19.644495,-22.689054,-2.936093,-47.872301,-9.715589,13.963952
313,525658273,-43.723976,33.166176,80.63448,-6.0277877,-2.953954,-3.2710772,-4.913409,8.888208,12.5010395,-19.744958,-22.738287,-2.990611,-47.954191,-9.567452,14.172303
314,525674940,-43.715538,33.262417,80.36037,-5.8916483,-3.021341,-3.2173624,-5.1461353,6.9515553,14.692562,-19.843152,-22.788643,-3.044234,-48.03996,-9.451593,14.417179
315,525691607,-43.73574,33.42509,80.04498,-5.7365394,-3.1052682,-3.1253872,-5.5165997,4.722252,17.087221,-19.938761,-22.840397,-3.096324,-48.131903,-9.372889,14.701966
316,525708274,-43.775368,33.676567,79.715546,-5.5345917,-3.2018163,-3.0486784,-5.4554844,2.3470087,19.136612,-20.031004,-22.893761,-3.147135,-48.222828,-9.333772,15.02091
317,525724941,-43.839165,34.016964,79.36327,-5.290005,-3.3131669,-2.9722252,-5.0903625,-0.22500134,20.960604,-20.119171,-22.94898,-3.196672,-48.307667,-9.337522,15.370253
318,525741608,-43.825813,34.259583,79.03809,-5.119567,-3.4151065,-2.8812585,-4.3615236,-1.7466807,22.147556,-20.204497,-23.005898,-3.244693,-48.380359,-9.366633,15.739379
319,525758275,-43.72512,34.391647,78.74759,-5.0299263,-3.5053256,-2.7805238,-3.1777897,-2.07807,22.571356,-20.288329,-23.06432,-3.291035,-48.433322,-9.401267,16.115568
320,525774942,-43.58889,34.50414,78.461624,-4.9676,-3.597245,-2.6665149,-1.640866,-1.8418705,22.491581,-20.371122,-23.124274,-3.335477,-48.46067,-9.431965,16.490428
321,525791609,-43.388405,34.54673,78.19504,-4.9638543,-3.684231,-2.5367403,0.30167484,-0.6745882,21.752974,-20.453853,-23.185678,-3.377756,-48.455642,-9.443208,16.852978
322,525808276,-43.181175,34.637547,77.92471,-4.9425077,-3.7800543,-2.4129567,2.7740695,0.7412199,20.435375,-20.536228,-23.248679,-3.417972,-48.409408,-9.430854,17.193568
323,525824943,-42.970818,34.784992,77.648605,-4.8988433,-3.88601,-2.295217,5.794647,2.3742337,18.52553,-20.617875,-23.313446,-3.456226,-48.312831,-9.391283,17.502327
324,525841610,-42.703087,34.886864,77.39166,-4.897848,-3.9895537,-2.170907,9.367874,4.8966393,15.821981,-20.699506,-23.379939,-3.492408,-48.1567,-9.309672,17.766027
325,525858277,-42.38923,34.968292,77.14945,-4.9235735,-4.093692,-2.0447526,13.541951,8.184866,12.3117075,-20.781566,-23.448167,-3.526487,-47.931001,-9.173258,17.971222
326,525874944,-42.11149,35.0243,76.89823,-4.9268093,-4.17706,-1.9410133,16.111591,10.255641,9.765675,-20.863679,-23.517785,-3.558837,-47.662474,-9.002331,18.133983
327,525891611,-41.86965,35.040398,76.63994,-4.9114203,-4.235711,-1.8613453,16.879389,11.021613,8.301579,-20.945536,-23.58838,-3.589859,-47.381151,-8.818637,18.272343
328,525908278,-41.63128,35.03478,76.3838,-4.8904657,-4.281543,-1.7980337,16.93511,11.357401,7.046055,-21.027044,-23.659739,-3.619826,-47.098899,-8.629347,18.389777
329,525924945,-41.41648,35.00081,76.12498,-4.852945,-4.3076696,-1.7582545,15.661455,10.740751,6.472905,-21.107926,-23.731533,-3.64913,-46.837875,-8.450334,18.497659
330,525941612,-41.162407,34.914276,75.88454,-4.844631,-4.323127,-1.7249508,14.35746,10.520091,5.4657655,-21.18867,-23.803585,-3.677879,-46.598584,-8.274999,18.588755
331,525958279,-40.864952,34.773354,75.664566,-4.8678064,-4.3280764,-1.6983681,13.101631,10.777875,3.940182,-21.2698,-23.87572,-3.706185,-46.380223,-8.095368,18.654425
332,525974946,-40.571877,34.58164,75.4514,-4.8910913,-4.3113766,-1.6938915,10.699103,10.394887,2.857515,-21.351318,-23.947576,-3.734417,-46.201905,-7.92212,18.70205
333,525991613,-40.269035,34.331352,75.2505,-4.9249,-4.274193,-1.7087846,7.4079514,9.6574745,1.9769442,-21.4334,-24.018813,-3.762897,-46.078439,-7.761162,18.734999
334,526008280,-40.01522,34.132812,75.12223,-4.935807,-4.2665997,-1.7051463,5.3774185,8.779514,0.3249964,-21.515663,-24.089923,-3.791316,-45.988815,-7.614837,18.740416
335,526024947,-39.8216,33.99386,75.07218,-4.9176073,-4.291294,-1.6818447,4.6440907,7.635928,-2.0698745,-21.597623,-24.161445,-3.819347,-45.911413,-7.487572,18.705918
336,526041614,-39.65052,33.85423,75.076866,-4.89382,-4.324667,-1.6556845,4.344553,6.3114967,-4.908038,-21.679187,-24.233523,-3.846942,-45.839004,-7.38238,18.624117
337,526058281,-39.52038,33.74281,75.15425,-4.8544216,-4.379937,-1.6169829,5.026039,4.81682,-8.426791,-21.760094,-24.306522,-3.873892,-45.755237,-7.3021,18.48367
338,526074948,-39.408867,33.593075,75.26784,-4.8113613,-4.4242516,-1.5929871,5.11246,2.7325988,-11.820396,-21.840283,-24.38026,-3.900442,-45.670029,-7.256557,18.286663
339,526091615,-39.31411,33.398087,75.41778,-4.766469,-4.455264,-1.5856438,4.512985,0.039764166,-15.055832,-21.919724,-24.454514,-3.926869,-45.594813,-7.255894,18.035732
340,526108282,-39.26429,33.214886,75.63938,-4.7048755,-4.500593,-1.5733266,4.473811,-3.0650787,-18.732864,-21.998139,-24.529524,-3.953091,-45.520249,-7.306979,17.723518
341,526124949,-39.255806,33.02803,75.92692,-4.6289883,-4.5531273,-1.5621243,4.6541147,-6.6897926,-22.679111,-22.075289,-24.605409,-3.979126,-45.44268,-7.418476,17.345533
342,526141616,-39.181984,32.823235,76.27804,-4.5830193,-4.606597,-1.5662122,5.4096785,-9.579086,-25.949078,-22.151673,-24.682186,-4.00523,-45.352519,-7.578127,16.913048
343,526158283,-39.03759,32.605923,76.69914,-4.568801,-4.663946,-1.5845408,6.9284153,-11.61095,-28.513983,-22.22782,-24.759918,-4.031639,-45.237045,-7.771643,16.437815
344,526174950,-38.872017,32.371887,77.189835,-4.5666676,-4.723439,-1.6147523,8.813442,-13.471046,-30.697248,-22.303931,-24.838642,-4.058552,-45.090154,-7.99616,15.926194
345,526191617,-38.65728,32.119064,77.75279,-4.588164,-4.7844877,-1.6602659,11.2152815,-14.8129225,-32.242386,-22.3804,-24.918383,-4.086223,-44.903233,-8.243042,15.388821
346,526208284,-38.4638,31.868591,78.40215,-4.603838,-4.857785,-1.707736,14.250883,-16.333738,-33.847366,-22.457131,-24.999346,-4.114685,-44.665718,-8.515271,14.824698
347,526224951,-38.296425,31.620537,79.14109,-4.611807,-4.9437447,-1.7570281,17.915352,-18.094534,-35.52721,-22.533994,-25.081742,-4.143969,-44.367129,-8.816847,14.232578
348,526241618,-38.09632,31.363094,79.96722,-4.6365786,-5.0370064,-1.8177509,22.305037,-19.447922,-36.703293,-22.61127,-25.165692,-4.174265,-43.995378,-9.140979,13.620856
349,526258285,-37.8787,31.100922,80.88617,-4.6718645,-5.140229,-1.8872266,27.466824,-20.541864,-37.508778,-22.689134,-25.251362,-4.205719,-43.537598,-9.483343,12.99571
350,526274952,-37.669197,30.87239,81.61762,-4.7161136,-5.1838093,-1.9421706,29.86317,-20.958757,-37.27998,-22.767736,-25.337759,-4.238089,-43.039878,-9.832656,12.374377
351,526291619,-37.4629,30.680786,82.135414,-4.7723737,-5.160615,-1.9813476,29.183516,-20.561066,-35.862766,-22.847276,-25.423769,-4.271111,-42.553486,-10.17534,11.776664
352,526308286,-37.257744,30.511858,82.5773,-4.837289,-5.1055326,-2.013916,27.147379,-19.633183,-33.64075,-22.927897,-25.508861,-4.304676,-42.10103,-10.50256,11.215985
353,526324953,-37.058617,30.376999,82.864105,-4.9115267,-4.9986687,-2.0334535,22.763659,-18.015512,-30.385307,-23.009756,-25.592172,-4.338567,-41.721636,-10.802819,10.709563
354,526341620,-36.835625,30.251415,83.15993,-5.0024166,-4.8790646,-2.0560946,18.118267,-15.775142,-26.29757,-23.09313,-25.67349,-4.372835,-41.419665,-11.065738,10.27127
355,526358287,-36.587685,30.135204,83.47395,-5.110293,-4.7488556,-2.0823507,13.329099,-12.901465,-21.368439,-23.178302,-25.752638,-4.407541,-41.197513,-11.280762,9.915129
356,526374954,-36.33309,30.05156,83.653694,-5.2325892,-4.5706806,-2.0984168,6.4746075,-9.195394,-15.268334,-23.265512,-25.828816,-4.442515,-41.089603,-11.434019,9.660657
357,526391621,-36.064903,29.996487,83.731125,-5.3713193,-4.3519535,-2.107397,-2.035752,-4.6418757,-8.004083,-23.355034,-25.901349,-4.477638,-41.123532,-11.511384,9.527256
358,526408288,-35.916893,29.942722,83.853386,-5.4355707,-4.2178755,-2.0899553,-7.6492558,-1.6295501,-2.8675578,-23.445627,-25.971647,-4.512471,-41.25102,-11.538543,9.479463
359,526424955,-35.90397,29.891697,84.01146,-5.4164286,-4.175172,-2.0420194,-10.1977825,-0.33932042,-0.108549744,-23.535901,-26.041233,-4.546505,-41.420983,-11.544198,9.477654
360,526441622,-35.95809,29.854874,84.153366,-5.358386,-4.168934,-1.9743252,-11.590212,0.3923589,1.8517406,-23.625207,-26.110715,-4.57941,-41.614153,-11.537659,9.508516
361,526458289,-36.11802,29.82641,84.311386,-5.235507,-4.232836,-1.8803697,-10.630199,-0.08780527,2.1088989,-23.712465,-26.181262,-4.610749,-41.791323,-11.539122,9.543664
362,526474956,-36.311104,29.83018,84.35608,-5.099883,-4.2838936,-1.7670183,-10.4876995,-0.31182647,2.6931252,-23.797463,-26.25266,-4.640199,-41.966118,-11.544319,9.588549
363,526491623,-36.53367,29.868587,84.27748,-4.954164,-4.317667,-1.6340938,-11.33484,-0.18287075,3.729308,-23.880032,-26.324621,-4.667434,-42.155032,-11.547367,9.650704
364,526508290,-36.856926,29.925697,84.16397,-4.749016,-4.4048815,-1.4717216,-10.562577,-1.0023599,3.4123623,-23.959182,-26.398036,-4.691963,-42.331075,-11.564073,9.707577
365,526524957,-37.26751,30.007673,83.98409,-4.4943023,-4.528536,-1.2804122,-8.835416,-2.466959,2.1560628,-24.034087,-26.473512,-4.713303,-42.478332,-11.605189,9.743511
366,526541624,-37.523125,30.067303,83.855774,-4.3361177,-4.582979,-1.1734905,-8.001381,-3.009858,1.9019108,-24.106356,-26.549895,-4.732861,-42.611688,-11.655353,9.77521
367,526558291,-37.611015,30.098879,83.79755,-4.2813983,-4.5672894,-1.1601329,-7.9051476,-2.6576815,2.58473,-24.177713,-26.626016,-4.752197,-42.74344,-11.699648,9.818289
368,526574958,-37.638466,30.129713,83.729034,-4.266673,-4.520568,-1.1865335,-8.106423,-1.961544,3.5387175,-24.248824,-26.701359,-4.771973,-42.878547,-11.73234,9.877268
369,526591625,-37.54055,30.14639,83.68416,-4.3308334,-4.4158726,-1.2842255,-9.020672,-0.5395448,5.2222514,-24.321005,-26.774957,-4.793377,-43.028892,-11.741332,9.964306
370,526608292,-37.478157,30.173512,83.61245,-4.375224,-4.3334417,-1.3841858,-8.884001,0.35274374,6.016914,-24.393925,-26.847181,-4.816447,-43.176959,-11.735453,10.064588
371,526624959,-37.46041,30.21336,83.50634,-4.394372,-4.2771053,-1.4826117,-7.621051,0.6479522,5.827632,-24.467165,-26.918466,-4.841157,-43.303977,-11.724654,10.161715
372,526641626,-37.350777,30.241913,83.42034,-4.471113,-4.183957,-1.6418738,-6.4391184,1.2860028,5.8278146,-24.541684,-26.988199,-4.868522,-43.411296,-11.703221,10.258845
373,526658293,-37.18258,30.264288,83.34312,-4.5849447,-4.0709906,-1.8482981,-4.9434147,1.9903041,5.650755,-24.6181,-27.056049,-4.899327,-43.493686,-11.670049,10.353024
374,526674960,-37.13497,30.287485,83.23774,-4.6426144,-3.9998868,-1.978301,-4.411004,2.5123062,5.5327444,-24.695477,-27.122714,-4.932299,-43.567203,-11.628177,10.445236
375,526691627,-37.207436,30.30851,83.108894,-4.645834,-3.9692013,-2.0286965,-5.083638,2.9294457,5.6140018,-24.772908,-27.188867,-4.966111,-43.65193,-11.579353,10.538803
376,526708294,-37.3368,30.32698,82.96722,-4.6254225,-3.961367,-2.0497026,-6.0697327,3.161923,5.5129795,-24.849998,-27.25489,-5.000273,-43.753092,-11.526654,10.630686
377,526724961,-37.568077,30.34335,82.80558,-4.5584054,-3.9918501,-2.0093474,-7.7557516,3.163187,5.319841,-24.925971,-27.321421,-5.033762,-43.882355,-11.473934,10.71935
378,526741628,-37.76124,30.347061,82.6586,-4.520855,-4.0085955,-1.9965134,-9.698045,3.3083224,5.1725903,-25.001319,-27.388231,-5.067037,-44.043989,-11.418795,10.80556
379,526758295,-37.909737,30.337048,82.52895,-4.5162287,-4.010067,-2.0160651,-11.832179,3.5905466,5.036192,-25.076589,-27.455065,-5.100638,-44.241192,-11.358953,10.889497
380,526774962,-38.1215,30.318136,82.39475,-4.4874244,-4.035493,-1.9964647,-14.726136,3.7847395,4.921578,-25.151379,-27.522323,-5.133912,-44.486628,-11.295874,10.971523
381,526791629,-38.366646,30.287277,82.26463,-4.4508357,-4.074135,-1.9566021,-18.294857,3.96702,4.8527784,-25.22556,-27.590225,-5.166522,-44.791542,-11.229757,11.052403
382,526808296,-38.56626,30.268532,82.13885,-4.4288073,-4.093954,-1.9426436,-20.14426,3.9920712,4.669421,-25.299373,-27.658458,-5.198899,-45.12728,-11.163222,11.130227
383,526824963,-38.72515,30.26395,82.01631,-4.417116,-4.0964727,-1.9502559,-20.135893,3.8248358,4.3701606,-25.372992,-27.726733,-5.231403,-45.462878,-11.099475,11.203063
384,526841630,-38.86013,30.25927,81.904236,-4.4166393,-4.089637,-1.9702673,-19.359488,3.5871482,4.0523467,-25.446603,-27.794894,-5.264241,-45.785536,-11.039689,11.270602
385,526858297,-38.95211,30.260809,81.80323,-4.432087,-4.065646,-2.0130906,-17.172232,3.2342587,3.6813147,-25.520471,-27.862655,-5.297793,-46.07174,-10.985785,11.331957
386,526874964,-39.074776,30.254723,81.70955,-4.435917,-4.0537624,-2.0333648,-15.109478,2.7836046,3.3428218,-25.594403,-27.930218,-5.331682,-46.323565,-10.939392,11.387671
387,526891631,-39.2297,30.23928,81.625114,-4.428031,-4.0548477,-2.0295858,-13.262198,2.2440515,3.0531921,-25.668204,-27.997799,-5.365508,-46.544602,-10.901991,11.438558
388,526908298,-39.36405,30.22653,81.55315,-4.426007,-4.0477295,-2.0327315,-10.307009,1.5669843,2.746239,-25.741971,-28.065261,-5.399387,-46.716385,-10.875875,11.484329
389,526924965,-39.49314,30.213127,81.49407,-4.4240823,-4.038576,-2.032878,-6.5610332,0.75529253,2.44694,-25.815706,-28.132571,-5.433268,-46.825736,-10.863287,11.525111
390,526941632,-39.61367,30.203604,81.43244,-4.4276056,-4.031603,-2.0365028,-4.438813,0.18040264,2.1956477,-25.889499,-28.199764,-5.46721,-46.899716,-10.86028,11.561705
391,526958299,-39.719322,30.199825,81.36791,-4.4387712,-4.0248566,-2.0472417,-4.002412,-0.1310463,1.9929309,-25.963479,-28.266845,-5.501331,-46.966423,-10.862464,11.594921
392,526974966,-39.821877,30.197227,81.30896,-4.45096,-4.02059,-2.054819,-4.31603,-0.35453558,1.8421652,-26.037662,-28.333855,-5.535578,-47.038357,-10.868373,11.625624
393,526991633,-39.918724,30.197525,81.25194,-4.4659796,-4.0193872,-2.0616117,-6.011177,-0.38852882,1.7564998,-26.112095,-28.400845,-5.569938,-47.138543,-10.874848,11.654899
394,527008300,-39.99711,30.200645,81.20858,-4.4855833,-4.0131407,-2.071653,-7.3406477,-0.45969832,1.7066038,-26.186855,-28.467731,-5.604466,-47.260887,-10.88251,11.683342
395,527024967,-40.057274,30.206364,81.18035,-4.509226,-4.0018883,-2.083994,-8.224915,-0.5815047,1.6979299,-26.262009,-28.534429,-5.639199,-47.397969,-10.892202,11.711641
396,527041634,-40.102654,30.216368,81.158775,-4.5376263,-3.9900444,-2.0987,-10.080836,-0.551896,1.7597609,-26.337636,-28.60093,-5.674177,-47.565983,-10.9014,11.74097
397,527058301,-40.129997,30.230766,81.14694,-4.5711246,-3.9758327,-2.1164765,-12.547443,-0.41671646,1.8905921,-26.413821,-28.667194,-5.709452,-47.775107,-10.908345,11.77248
398,527074968,-40.231285,30.240479,81.117775,-4.598813,-3.959376,-2.1264691,-14.435789,-0.34836757,1.997226,-26.490468,-28.733184,-5.744893,-48.015703,-10.914151,11.805767
399,527091635,-40.415154,30.245094,81.06794,-4.6199408,-3.940914,-2.1279368,-15.811724,-0.33463728,2.0776823,-26.567467,-28.798866,-5.780359,-48.279232,-10.919728,11.840395
400,527108302,-40.635414,30.24917,81.01272,-4.639989,-3.918997,-2.126593,-17.003475,-0.3213601,2.1789365,-26.6448,-28.864183,-5.815802,-48.562623,-10.925084,11.876711
401,527124969,-40.91796,30.250399,80.944305,-4.6560464,-3.893566,-2.1195898,-17.732,-0.34650362,2.2784617,-26.722401,-28.929076,-5.851128,-48.858156,-10.930859,11.914685
402,527141636,-41.210182,30.25462,80.87695,-4.6744823,-3.8656423,-2.1129007,-19.070173,-0.2540437,2.4451811,-26.800309,-28.993503,-5.886343,-49.175992,-10.935093,11.955438
403,527158303,-41.508858,30.262383,80.81179,-4.695798,-3.8349001,-2.1070876,-21.064451,-0.033806443,2.6864376,-26.878572,-29.057418,-5.921461,-49.527066,-10.935656,12.000212
404,527174970,-41.86315,30.268883,80.73483,-4.714324,-3.800638,-2.0967703,-22.953619,0.20788038,2.9505575,-26.957144,-29.120762,-5.956407,-49.909626,-10.932191,12.049388
405,527191637,-42.262657,30.27547,80.648926,-4.731418,-3.7628806,-2.0832644,-24.97417,0.5079292,3.2547228,-27.036001,-29.183477,-5.991128,-50.325862,-10.923726,12.103633
406,527208304,-42.61419,30.28494,80.58256,-4.7387466,-3.7208765,-2.095553,-26.03896,0.5596739,3.361932,-27.11498,-29.245492,-6.026054,-50.759845,-10.914398,12.159665
407,527224971,-42.91584,30.297028,80.53638,-4.7346563,-3.6743495,-2.1358857,-25.959393,0.32321894,3.2434204,-27.193891,-29.306731,-6.061652,-51.192502,-10.909011,12.213722
408,527241638,-43.205696,30.311394,80.498604,-4.7238874,-3.623524,-2.1915598,-25.415066,-0.029041171,3.0236697,-27.272622,-29.367123,-6.098178,-51.616086,-10.909495,12.264116
409,527258305,-43.45997,30.328701,80.47652,-4.7037067,-3.568054,-2.2707467,-24.074049,-0.5865091,2.6333432,-27.351017,-29.426591,-6.136024,-52.01732,-10.91927,12.308005
410,527274972,-43.74642,30.34626,80.44986,-4.6773863,-3.5078666,-2.3555126,-22.370604,-1.1956836,2.1985412,-27.428973,-29.485055,-6.175283,-52.390163,-10.939198,12.344647
411,527291639,-44.069023,30.364063,80.4174,-4.6449575,-3.4428089,-2.445211,-20.342236,-1.8451922,1.7263215,-27.506389,-29.542435,-6.216037,-52.7292,-10.969951,12.373419
412,527308306,-44.37397,30.384026,80.39541,-4.6021347,-3.3725007,-2.5561771,-17.467701,-2.6919632,1.0907934,-27.583091,-29.598643,-6.25864,-53.020328,-11.014817,12.391599
413,527324973,-44.676003,30.405613,80.3795,-4.5492887,-3.2967799,-2.6850634,-13.821378,-3.7066822,0.3152367,-27.658912,-29.653589,-6.303391,-53.250684,-11.076595,12.396853
414,527341640,-44.919167,30.428698,80.37468,-4.5137854,-3.241336,-2.777254,-11.195502,-4.359564,-0.19742274,-27.734142,-29.707611,-6.349679,-53.437276,-11.149254,12.393563
415,527358307,-45.091225,30.453503,80.383484,-4.49745,-3.208607,-2.829773,-9.672365,-4.6228886,-0.4274514,-27.809099,-29.761088,-6.396842,-53.598482,-11.226302,12.386439
416,527374974,-45.228157,30.479748,80.40062,-4.48732,-3.1863167,-2.8665056,-8.4329,-4.730766,-0.5529935,-27.883888,-29.814193,-6.444617,-53.73903,-11.305148,12.377222
417,527391641,-45.3117,30.50747,80.428215,-4.4908,-3.1817973,-2.8727279,-7.9463005,-4.5414066,-0.46694434,-27.958735,-29.867223,-6.492496,-53.871468,-11.380838,12.36944
418,527408308,-45.359962,30.537315,80.46762,-4.4905586,-3.1800082,-2.8847885,-7.0194407,-4.4049706,-0.43902478,-28.033578,-29.920223,-6.540576,-53.988459,-11.454254,12.362123
419,527424975,-45.37394,30.569302,80.518814,-4.4854803,-3.180247,-2.9045992,-5.5709524,-4.341081,-0.48501593,-28.108336,-29.973227,-6.588986,-54.081308,-11.526605,12.354039
420,527441642,-45.327003,30.603172,80.58329,-4.4906316,-3.1966355,-2.9011784,-4.5938234,-4.052103,-0.3780605,-28.18318,-30.026504,-6.637339,-54.157872,-11.59414,12.347738
421,527458309,-45.221275,30.639097,80.66167,-4.5024023,-3.226341,-2.8819566,-3.8304865,-3.610371,-0.17460155,-28.25822,-30.080276,-6.685372,-54.221713,-11.654313,12.344828
422,527474976,-45.17492,30.667395,80.71035,-4.51381,-3.244026,-2.8715806,-3.1053555,-3.3078523,-0.0515877,-28.33345,-30.134343,-6.733232,-54.273469,-11.709444,12.343968
423,527491643,-45.193886,30.687094,80.72563,-4.5262566,-3.249398,-2.8682199,-2.528482,-3.1332002,0.0035370886,-28.408888,-30.1885,-6.781036,-54.31561,-11.761664,12.344027
424,527508310,-45.221718,30.70288,80.7288,-4.5407944,-3.2529252,-2.8648262,-2.012486,-2.9943,0.03802842,-28.484568,-30.242715,-6.828783,-54.349151,-11.811569,12.344661
425,527524977,-45.28927,30.711971,80.70769,-4.5562057,-3.248274,-2.866889,-1.5499982,-2.9604912,0.011639178,-28.560505,-30.296853,-6.876564,-54.374984,-11.860911,12.344855
426,527541644,-45.31887,30.71988,80.68821,-4.580599,-3.254289,-2.8516083,-1.4979149,-2.7824197,0.087174356,-28.636848,-30.351091,-6.924091,-54.399949,-11.907285,12.346308
427,527558311,-45.30459,30.72686,80.671906,-4.6144733,-3.2722242,-2.8177028,-1.8693007,-2.4475827,0.27228135,-28.713756,-30.405628,-6.971053,-54.431104,-11.948078,12.350846
428,527574978,-45.311028,30.72764,80.63512,-4.653059,-3.2874658,-2.7807608,-2.4972358,-2.136534,0.453959,-28.791307,-30.460419,-7.017399,-54.472725,-11.983687,12.358412
429,527591645,-45.321068,30.723238,80.583015,-4.69837,-3.3042238,-2.735506,-3.4718442,-1.7939147,0.668791,-28.869613,-30.515489,-7.062991,-54.530589,-12.013586,12.369559
430,527608312,-45.32392,30.723526,80.55284,-4.7282076,-3.3160655,-2.705523,-3.992525,-1.546883,0.7876664,-28.948416,-30.570757,-7.108083,-54.597131,-12.039367,12.382687
431,527624979,-45.32656,30.72863,80.544785,-4.7401175,-3.320686,-2.6945481,-3.982013,-1.4270673,0.78678864,-29.027418,-30.626102,-7.152992,-54.663498,-12.063151,12.3958
432,527641646,-45.32247,30.734413,80.54431,-4.7461977,-3.3240726,-2.6874952,-3.8962698,-1.3349311,0.753779,-29.106521,-30.681503,-7.197784,-54.728436,-12.0854,12.408363
433,527658313,-45.311134,30.74334,80.56069,-4.7401543,-3.3239138,-2.6913195,-3.5175495,-1.311419,0.6495208,-29.185524,-30.736902,-7.242639,-54.787062,-12.107257,12.419188
434,527674980,-45.314842,30.748112,80.56581,-4.7339077,-3.320359,-2.6959496,-3.283325,-1.3277106,0.5212228,-29.264422,-30.792241,-7.287571,-54.841784,-12.129386,12.427875
435,527691647,-45.33407,30.748226,80.55802,-4.7283783,-3.313678,-2.700252,-3.2388892,-1.377703,0.37493855,-29.343228,-30.847469,-7.332575,-54.895765,-12.152348,12.434124
436,527708314,-45.35824,30.749348,80.55908,-4.712061,-3.3015788,-2.715447,-2.9810865,-1.513484,0.15186077,-29.421762,-30.902495,-7.377832,-54.94545,-12.177573,12.436655
437,527724981,-45.392754,30.74984,80.5628,-4.6873517,-3.2839162,-2.7395363,-2.6070495,-1.7307272,-0.13915741,-29.499885,-30.957227,-7.423491,-54.988901,-12.206418,12.434336
438,527741648,-45.410072,30.74876,80.567444,-4.6780863,-3.2767322,-2.7506113,-2.4459195,-1.901103,-0.38026732,-29.577853,-31.011839,-7.469335,-55.029666,-12.238103,12.427998
439,527758315,-45.40754,30.746647,80.57533,-4.6848974,-3.2809641,-2.748375,-2.4758773,-2.023277,-0.5705202,-29.655935,-31.066522,-7.515141,-55.070931,-12.271824,12.418489
440,527774982,-45.40278,30.742771,80.58299,-4.6979346,-3.288677,-2.7421513,-2.6056848,-2.1584704,-0.76203036,-29.734234,-31.121333,-7.560844,-55.114359,-12.307799,12.405788
441,527791649,-45.38862,30.737028,80.59061,-4.7233467,-3.304083,-2.7264872,-2.9103765,-2.2759976,-0.9261293,-29.812956,-31.176401,-7.606285,-55.162865,-12.345732,12.390353
442,527808316,-45.379112,30.731304,80.60462,-4.7442255,-3.317106,-2.717124,-3.1017783,-2.4660485,-1.1477675,-29.892026,-31.231686,-7.65157,-55.214561,-12.386833,12.371224
443,527824983,-45.376427,30.725561,80.62492,-4.7595997,-3.3269231,-2.7151742,-3.166405,-2.7375305,-1.4339256,-29.971353,-31.287135,-7.696823,-55.267334,-12.432459,12.347325
444,527841650,-45.36776,30.71878,80.648674,-4.7831182,-3.3421147,-2.7083206,-3.3076117,-3.0216503,-1.7193508,-30.051072,-31.342837,-7.741962,-55.322461,-12.48282,12.318669
445,527858317,-45.35668,30.711367,80.677345,-4.8111696,-3.360461,-2.7000957,-3.4611902,-3.3403149,-2.0238378,-30.131258,-31.398845,-7.786964,-55.380148,-12.538492,12.284938
446,527874984,-45.371544,30.70861,80.71536,-4.8263416,-3.3684313,-2.701365,-3.6944442,-3.6286945,-2.27406,-30.211697,-31.454986,-7.831987,-55.441722,-12.59897,12.247037
447,527891651,-45.413857,30.710999,80.76319,-4.828569,-3.3657382,-2.711853,-4.034151,-3.8737073,-2.455762,-30.292173,-31.511082,-7.877185,-55.508958,-12.663532,12.206108
448,527908318,-45.472954,30.716358,80.82004,-4.8236065,-3.3572252,-2.728994,-4.401676,-4.122638,-2.6179276,-30.372566,-31.567036,-7.922668,-55.582319,-12.732243,12.162476
449,527924985,-45.55671,30.726246,80.887405,-4.806955,-3.3393252,-2.7555785,-4.82014,-4.3557014,-2.7377937,-30.452682,-31.622691,-7.968594,-55.662655,-12.804838,12.116846
450,527941652,-45.646385,30.737354,80.96218,-4.792161,-3.321924,-2.7824473,-5.299984,-4.596318,-2.8429165,-30.532551,-31.678056,-8.014968,-55.750988,-12.881443,12.069464
451,527958319,-45.74163,30.749641,81.044685,-4.779665,-3.3053515,-2.8095155,-5.8346243,-4.8482847,-2.9362452,-30.612212,-31.733145,-8.061793,-55.848232,-12.962248,12.020527
452,527974986,-45.858955,30.766216,81.138084,-4.758802,-3.2815464,-2.8438349,-6.4395037,-5.082293,-2.9831614,-30.691525,-31.787837,-8.10919,-55.955557,-13.046953,11.970808
453,527991653,-45.994957,30.786518,81.24209,-4.7323217,-3.2524793,-2.8836432,-7.1164494,-5.303155,-2.9884715,-30.770397,-31.842045,-8.157251,-56.074164,-13.135339,11.921
454,528008320,-46.0924,30.808834,81.32737,-4.719354,-3.2355225,-2.9073954,-7.3420963,-5.4769483,-2.9136708,-30.849053,-31.89597,-8.205708,-56.196532,-13.226621,11.872439
455,528024987,-46.14814,30.83354,81.39166,-4.720463,-3.2313402,-2.9138422,-7.067648,-5.594872,-2.7479548,-30.927727,-31.949826,-8.254272,-56.314326,-13.319869,11.82664
456,528041654,-46.18725,30.861225,81.44883,-4.728427,-3.2329876,-2.9120188,-6.5407515,-5.674867,-2.510493,-31.006534,-32.003709,-8.302806,-56.423339,-13.41445,11.784798
457,528058321,-46.194237,30.891659,81.49074,-4.7483206,-3.2450964,-2.8960104,-5.612224,-5.7044587,-2.1865072,-31.085673,-32.057794,-8.351073,-56.516876,-13.509524,11.748356
458,528074988,-46.20719,30.926882,81.53565,-4.766158,-3.2553742,-2.8803167,-4.5849104,-5.695017,-1.7871144,-31.165109,-32.11205,-8.399078,-56.593291,-13.604441,11.718571
459,528091655,-46.22811,30.967155,81.584564,-4.781392,-3.2632782,-2.8655353,-3.472177,-5.6452293,-1.3099145,-31.244799,-32.166438,-8.446837,-56.651161,-13.698528,11.696739
460,528108322,-46.224495,31.011414,81.62123,-4.805438,-3.2789848,-2.8391838,-1.9880377,-5.536433,-0.73353606,-31.32489,-32.221088,-8.494157,-56.684295,-13.790802,11.684513
461,528124989,-46.204124,31.060265,81.64931,-4.835467,-3.2999928,-2.804119,-0.18883562,-5.368577,-0.056851685,-31.405481,-32.276088,-8.540892,-56.687442,-13.880278,11.683565
462,528141656,-46.17713,31.106247,81.68562,-4.856785,-3.3099287,-2.7808623,1.0111187,-5.276553,0.35988468,-31.486427,-32.331253,-8.58724,-56.67059,-13.968221,11.689563
463,528158323,-46.13996,31.148655,81.72949,-4.8694477,-3.3085134,-2.7696738,1.5652506,-5.268919,0.48634464,-31.567584,-32.386395,-8.633401,-56.644502,-14.056036,11.697669
464,528174990,-46.092567,31.191553,81.775116,-4.8785944,-3.3018763,-2.762579,1.8743265,-5.279699,0.49564606,-31.648894,-32.441426,-8.679444,-56.613263,-14.144031,11.70593
465,528191657,-46.036095,31.232895,81.8264,-4.880532,-3.2857792,-2.7647996,1.6937644,-5.344849,0.2872265,-31.730236,-32.496189,-8.725524,-56.585034,-14.233112,11.710717
466,528208324,-45.95562,31.27694,81.86907,-4.8869267,-3.2724717,-2.7609124,1.6357279,-5.3781505,0.07865125,-31.811685,-32.55073,-8.771539,-56.557772,-14.322748,11.712028
467,528224991,-45.85003,31.324059,81.90223,-4.8983173,-3.2625039,-2.7500796,1.7341015,-5.3731074,-0.11783412,-31.893324,-32.605105,-8.817374,-56.52887,-14.4123,11.710064
468,528241658,-45.727074,31.370369,81.936035,-4.905771,-3.2461245,-2.7443943,1.4714665,-5.4033494,-0.4999358,-31.975087,-32.659207,-8.863114,-56.504346,-14.502356,11.701732
469,528258325,-45.58271,31.416782,81.9672,-4.91178,-3.2258856,-2.7405314,0.9744952,-5.4501987,-1.0245676,-32.05695,-32.712972,-8.90879,-56.488104,-14.593193,11.684656
470,528274992,-45.487724,31.467968,82.00495,-4.918191,-3.2241604,-2.7380219,0.74405646,-5.528526,-1.2588329,-32.13892,-32.766708,-8.954424,-56.475703,-14.685335,11.663675
471,528291659,-45.449287,31.52385,82.05116,-4.9241323,-3.2419937,-2.738277,0.7602508,-5.64958,-1.188539,-32.220989,-32.820741,-9.000062,-56.463032,-14.779495,11.643866
472,528308326,-45.43064,31.58282,82.09903,-4.9304314,-3.2705772,-2.7392702,0.86708045,-5.7942414,-0.9923688,-32.303163,-32.875251,-9.045717,-56.448581,-14.876066,11.627327
473,528324993,-45.451805,31.646027,82.151405,-4.9373074,-3.3159978,-2.741313,1.1835775,-5.970275,-0.5571084,-32.385451,-32.930518,-9.091406,-56.428855,-14.975571,11.618042
474,528341660,-45.472984,31.709782,82.20522,-4.941361,-3.3627923,-2.747809,1.2803898,-6.188096,-0.18804228,-32.467807,-32.986565,-9.137203,-56.407515,-15.078706,11.614908
475,528358327,-45.49151,31.773903,82.25995,-4.9425583,-3.4104173,-2.75878,1.1365023,-6.448355,0.09846592,-32.550183,-33.043405,-9.183183,-56.388573,-15.186179,11.616549
476,528374994,-45.544945,31.841183,82.31964,-4.9426956,-3.471998,-2.7729716,1.0626874,-6.7544527,0.5517506,-32.632561,-33.101272,-9.229399,-56.370862,-15.298753,11.625745
477,528391661,-45.625313,31.910824,82.38366,-4.9409943,-3.544515,-2.7912378,0.96388793,-7.1103897,1.107647,-32.714911,-33.160347,-9.27592,-56.354797,-15.417259,11.644206
478,528408328,-45.673485,31.979855,82.439445,-4.9493923,-3.5721219,-2.814546,0.17714095,-7.385081,1.3479795,-32.797401,-33.219882,-9.322829,-56.351845,-15.540344,11.666672
479,528424995,-45.689247,32.04829,82.48646,-4.9691772,-3.551008,-2.8431287,-1.3337287,-7.5682964,1.2623541,-32.880221,-33.279065,-9.370214,-56.374074,-15.666482,11.687711
480,528441662,-45.696037,32.116966,82.53036,-4.9941273,-3.5055735,-2.8773384,-3.3275228,-7.7264714,1.0050194,-32.963456,-33.337491,-9.41817,-56.429533,-15.795257,11.704461
481,528458329,-45.67916,32.185112,82.56782,-5.0276537,-3.4203408,-2.917655,-5.9905357,-7.823994,0.46557552,-33.04725,-33.394497,-9.466798,-56.529375,-15.925657,11.712221
482,528474996,-45.68331,32.255127,82.60721,-5.0633087,-3.3311784,-2.9634104,-8.867437,-7.93973,-0.04947561,-33.131638,-33.450017,-9.516188,-56.677166,-16.057986,11.711396
483,528491663,-45.711296,32.32706,82.64903,-5.100688,-3.2396257,-3.0149164,-11.951561,-8.079666,-0.52872515,-33.216649,-33.504011,-9.566437,-56.876359,-16.192647,11.702584
484,528508330,-45.728737,32.399017,82.686356,-5.146058,-3.113983,-3.0731316,-15.641026,-8.173756,-1.2215884,-33.302417,-33.555911,-9.617656,-57.137043,-16.328876,11.682224
485,528524997,-45.745567,32.471466,82.72097,-5.19818,-2.961223,-3.1381626,-19.853748,-8.238705,-2.0662634,-33.389053,-33.605265,-9.669959,-57.467939,-16.466188,11.647786
486,528541664,-46.045296,32.57145,82.82292,-5.251024,-2.8167436,-3.2258635,-25.1694,-9.025574,-2.9267778,-33.47657,-33.652211,-9.723723,-57.887429,-16.616614,11.599006
487,528558331,-46.653236,32.701477,82.998535,-5.3050017,-2.6793363,-3.338211,-31.71229,-10.601806,-3.8233824,-33.564987,-33.696867,-9.77936,-58.415967,-16.793311,11.535283
488,528574998,-47.443916,32.849197,83.21621,-5.362324,-2.5362422,-3.4681168,-39.17255,-12.626689,-4.782056,-33.654359,-33.739138,-9.837162,-59.068843,-17.003756,11.455582
489,528591665,-48.498894,33.022392,83.496025,-5.421705,-2.3957164,-3.6204338,-47.748135,-15.315239,-5.776006,-33.744721,-33.779067,-9.897503,-59.864645,-17.25901,11.359315
490,528608332,-49.647575,33.205017,83.79611,-5.4884696,-2.2280295,-3.786768,-57.237335,-18.219122,-6.9546695,-33.836195,-33.816201,-9.960616,-60.818601,-17.562662,11.243404
491,528624999,-50.88485,33.396492,84.11501,-5.5630736,-2.0311906,-3.967126,-67.65101,-21.322271,-8.326371,-33.928913,-33.850054,-10.026735,-61.946118,-17.918033,11.104631
492,528641666,-52.370613,33.61194,84.49197,-5.6419463,-1.826493,-4.170336,-79.28889,-25.044151,-9.79815,-34.022945,-33.880496,-10.096241,-63.267599,-18.335436,10.941328
493,528658333,-54.074226,33.848427,84.91936,-5.7264156,-1.6070263,-4.3951797,-92.14046,-29.302801,-11.405907,-34.118385,-33.90728,-10.169494,-64.803273,-18.823816,10.75123
494,528675000,-55.650764,34.137943,85.33288,-5.7892923,-1.4282086,-4.565585,-100.41494,-32.56286,-12.7504,-34.214873,-33.931083,-10.245587,-66.476855,-19.36653,10.538723
495,528691667,-57.091896,34.48634,85.73251,-5.8275537,-1.2976882,-4.6755095,-103.59492,-34.736557,-13.78529,-34.311999,-33.952711,-10.323512,-68.203437,-19.945473,10.308968
496,528708334,-58.54548,34.877346,86.14488,-5.855005,-1.1843028,-4.7603493,-104.419205,-36.50397,-14.726621,-34.409582,-33.972449,-10.402851,-69.943757,-20.553873,10.063524
497,528725001,-59.92373,35.321472,86.55428,-5.8637714,-1.1044466,-4.798894,-101.248474,-37.450256,-15.459772,-34.507312,-33.990856,-10.482833,-71.631232,-21.178044,9.805861
498,528741668,-61.475746,35.80524,87.01011,-5.8687887,-1.0310788,-4.8379345,-97.52884,-38.58708,-16.195383,-34.605125,-34.008041,-10.563465,-73.256713,-21.821162,9.535938
499,528758335,-63.21824,36.328953,87.51592,-5.8708377,-0.9623685,-4.8798494,-93.42512,-39.968838,-16.948278,-34.702972,-34.02408,-10.644796,-74.813798,-22.487309,9.253467
500,528775002,-64.95396,36.909695,88.03452,-5.8553343,-0.92670226,-4.882415,-85.74539,-40.728783,-17.511002,-34.800561,-34.039525,-10.72617,-76.242888,-23.166122,8.961617
501,528791669,-66.73795,37.546104,88.57727,-5.8250537,-0.9191201,-4.854804,-75.14712,-41.073658,-17.924517,-34.897645,-34.054844,-10.807083,-77.49534,-23.850683,8.662875
502,528808336,-68.198784,38.119507,89.08253,-5.8160734,-0.8527045,-4.8381786,-67.06464,-41.14819,-18.300653,-34.99458,-34.069056,-10.887719,-78.613084,-24.536486,8.357864
503,528825003,-69.27509,38.62171,89.54014,-5.829632,-0.7235637,-4.830261,-61.54379,-40.84436,-18.616737,-35.091741,-34.081115,-10.968223,-79.638814,-25.217225,8.047585
504,528841670,-70.17872,39.109093,89.9873,-5.850129,-0.57031417,-4.8167887,-56.376835,-40.21871,-18.840834,-35.189243,-34.09062,-11.048503,-80.578428,-25.887537,7.733571
505,528858337,-70.79467,39.549397,90.40529,-5.886921,-0.3700812,-4.8069677,-52.91851,-39.2656,-18.99001,-35.287358,-34.096788,-11.128619,-81.460403,-26.541964,7.417071
506,528875004,-71.28681,40.017536,90.820984,-5.914841,-0.18142152,-4.764776,-47.08967,-37.65882,-18.939005,-35.385939,-34.099812,-11.208032,-82.245231,-27.169611,7.101421
507,528891671,-71.66306,40.518284,91.236465,-5.932313,-0.007977724,-4.6876507,-38.625412,-35.372486,-18.674654,-35.484811,-34.099945,-11.28616,-82.888988,-27.759152,6.790177
508,528908338,-71.73408,40.98624,91.62107,-5.959808,0.19900298,-4.6005,-30.675533,-32.54037,-18.266222,-35.584141,-34.096628,-11.362835,-83.400247,-28.301492,6.48574
509,528925005,-71.52555,41.43694,91.97955,-5.991899,0.42707443,-4.4947405,-22.330324,-29.069654,-17.678953,-35.684006,-34.08951,-11.437747,-83.772419,-28.785986,6.191091
510,528941672,-71.68142,41.858345,92.35011,-6.0377955,0.6014643,-4.4646378,-15.731644,-26.278095,-17.116388,-35.784636,-34.079486,-11.512158,-84.034613,-29.223954,5.905818
511,528958339,-72.22979,42.239933,92.73086,-6.101024,0.72089744,-4.5218716,-11.453189,-24.28475,-16.59849,-35.88632,-34.067471,-11.587523,-84.225499,-29.6287,5.629177
512,528975006,-72.873985,42.596756,93.105415,-6.1736736,0.81229603,-4.615612,-7.849394,-22.38181,-15.997764,-35.989215,-34.053933,-11.66445,-84.356322,-30.00173,5.362548
513,528991673,-73.781456,42.9217,93.48191,-6.259277,0.8561399,-4.7733555,-5.6375303,-20.929987,-15.368006,-36.093536,-34.039664,-11.744006,-84.450281,-30.350563,5.106415
514,529008340,-74.51858,43.203682,93.828766,-6.357859,0.908121,-4.9462233,-4.35588,-19.171831,-14.597613,-36.1995,-34.024529,-11.826443,-84.522879,-30.670094,4.863121
515,529025007,-75.05431,43.441246,94.1427,-6.4693794,0.9703387,-5.131133,-3.93042,-17.041874,-13.670907,-36.307323,-34.008357,-11.911962,-84.588386,-30.954125,4.635273
516,529041674,-75.74578,43.631607,94.44514,-6.5974016,0.9980482,-5.37733,-5.2709045,-15.228291,-12.68723,-36.41728,-33.991723,-12.001584,-84.676234,-31.20793,4.423819
517,529058341,-76.49798,43.770206,94.72793,-6.7424397,1.0025775,-5.6756697,-8.332133,-13.568526,-11.619004,-36.529654,-33.975013,-12.096178,-84.815103,-31.434072,4.230169
518,529075008,-76.1966,43.772503,94.891464,-6.8179865,0.93175435,-5.7585754,-0.10008955,-9.883269,-10.345439,-36.643287,-33.959484,-12.192154,-84.816771,-31.598793,4.057745
519,529091675,-74.77158,43.62634,94.92673,-6.816429,0.77420473,-5.6069727,20.53856,-4.0456743,-8.865539,-36.756894,-33.946581,-12.285604,-84.474462,-31.666221,3.909986
520,529108342,-72.67974,43.36538,94.873375,-6.7792788,0.5613396,-5.341838,47.438683,3.0265927,-7.215347,-36.869882,-33.937225,-12.374635,-83.683817,-31.615778,3.78973
521,529125009,-69.610985,42.96221,94.70199,-6.6822047,0.27577996,-4.889204,84.25831,11.930708,-5.3628273,-36.981252,-33.932629,-12.456122,-82.279512,-31.416933,3.70035
522,529141676,-66.29275,42.460815,94.47279,-6.5764837,-0.065327406,-4.417262,123.223236,21.240181,-3.3970063,-37.09086,-33.933718,-12.529743,-80.225791,-31.06293,3.643733
523,529158343,-62.7481,41.85897,94.18598,-6.4648213,-0.46183395,-3.934225,163.9456,30.896982,-1.3188467,-37.198607,-33.941415,-12.595313,-77.493364,-30.54798,3.621752
524,529175010,-58.334465,41.107334,93.78371,-6.2999144,-0.93928504,-3.2905703,213.575,42.143578,0.94491154,-37.303606,-33.95707,-12.650156,-73.933781,-29.845587,3.637501
525,529191677,-53.188744,40.21064,93.27568,-6.0917144,-1.4962108,-2.519405,270.61188,54.701763,3.3777404,-37.405135,-33.982007,-12.692146,-69.423583,-28.933891,3.693797
526,529208344,-48.90502,39.562695,92.87218,-6.0350637,-1.9990199,-2.0645413,302.8977,60.740124,5.209773,-37.505719,-34.015324,-12.726555,-64.375288,-27.921556,3.780627
527,529225011,-45.546104,39.192787,92.58414,-6.142539,-2.4402864,-1.9489441,308.25632,59.64001,6.3728614,-37.608095,-34.055995,-12.759037,-59.237683,-26.927556,3.886841
528,529241678,-42.437233,38.91491,92.31623,-6.328278,-2.8843372,-1.9834642,300.9405,54.908287,7.218104,-37.713566,-34.104067,-12.792095,-54.222008,-26.012418,4.007143
529,529258345,-39.998528,38.8374,92.12439,-6.645772,-3.295985,-2.287847,272.07907,44.3417,7.5258837,-37.824329,-34.159,-12.830226,-49.687357,-25.27339,4.132574
530,529275012,-37.118553,38.714222,91.86782,-6.9694424,-3.762037,-2.5641875,242.21808,32.79134,7.760023,-37.940486,-34.221701,-12.872962,-45.650389,-24.726868,4.261908
531,529291679,-33.735924,38.530968,91.53766,-7.2933455,-4.289077,-2.798071,212.31403,20.455992,7.938443,-38.062042,-34.293186,-12.919597,-42.111822,-24.385935,4.394215
532,529308346,-30.766273,38.505505,91.25211,-7.727459,-4.80406,-3.242999,164.24391,2.9330587,7.630516,-38.190833,-34.373254,-12.973647,-39.374423,-24.337051,4.52139
533,529325013,-27.97612,38.587948,90.98135,-8.24692,-5.3259745,-3.8387222,102.04772,-18.85673,6.922248,-38.328282,-34.46202,-13.037626,-37.673628,-24.65133,4.636761
534,529341680,-25.650131,38.686634,90.9136,-8.567612,-5.673148,-4.100836,58.943497,-33.615196,6.5142384,-38.471076,-34.556572,-13.105973,-36.691236,-25.211583,4.745332
535,529358347,-23.938652,38.824184,91.08395,-8.676712,-5.8175077,-4.01562,35.610798,-40.881092,6.407584,-38.615688,-34.65353,-13.1729,-36.097723,-25.892935,4.852125
536,529375014,-22.55957,39.01446,91.38538,-8.692998,-5.8565903,-3.7736912,18.763853,-45.46643,6.3157673,-38.760571,-34.75114,-13.235795,-35.784992,-26.650709,4.957388
537,529391681,-21.638817,39.24377,91.87837,-8.540478,-5.734296,-3.2480822,16.934044,-44.389305,6.4105606,-38.902912,-34.846712,-13.28993,-35.502758,-27.390531,5.064231
538,529408348,-21.260818,39.626274,92.486725,-8.413869,-5.5361023,-2.7881827,5.7726192,-45.463192,6.156162,-39.043143,-34.93898,-13.3364,-35.406548,-28.148251,5.166834
539,529425015,-21.43377,40.170853,93.20868,-8.322628,-5.2649,-2.4104238,-16.059477,-49.12135,5.515003,-39.181853,-35.026728,-13.376574,-35.674206,-28.96694,5.258751
540,529441682,-22.25026,40.814682,94.14031,-8.103381,-4.8252277,-1.8309431,-29.193033,-48.90139,4.893341,-39.316909,-35.107148,-13.40709,-36.160757,-29.781963,5.340307
541,529458349,-23.75396,41.58779,95.27185,-7.7958755,-4.230321,-1.1221385,-38.841156,-46.441574,4.169049,-39.44684,-35.177653,-13.425792,-36.80811,-30.555989,5.409791
542,529475016,-25.034111,42.219917,96.14387,-7.617091,-3.8915193,-0.70532227,-51.534817,-45.632122,3.3227208,-39.573792,-35.242512,-13.437547,-37.667024,-31.316524,5.46517
543,529491683,-26.048203,42.68314,96.730415,-7.5666013,-3.8320458,-0.5862169,-65.543434,-46.013515,2.3950312,-39.699902,-35.306379,-13.447317,-38.759415,-32.083416,5.505087
544,529508350,-27.286385,43.130833,97.248276,-7.567133,-3.861873,-0.6136608,-81.28883,-46.808956,1.305826,-39.826021,-35.370744,-13.457545,-40.114229,-32.863565,5.526851
545,529525017,-28.521141,43.488377,97.57553,-7.673232,-4.0907707,-0.89696646,-99.90071,-48.843884,0.05898702,-39.953908,-35.438924,-13.472494,-41.779241,-33.67763,5.527834
546,529541684,-30.34085,43.90328,98.01129,-7.7147503,-4.249937,-1.116787,-112.57334,-48.14313,-1.2404292,-40.082487,-35.509756,-13.491107,-43.655463,-34.480016,5.50716
547,529558351,-32.811897,44.38994,98.57645,-7.68357,-4.322027,-1.2604232,-119.08346,-44.52911,-2.600026,-40.210546,-35.58179,-13.512114,-45.640187,-35.222168,5.463826
548,529575018,-35.4609,44.81064,99.01781,-7.710479,-4.5354977,-1.5816145,-124.57072,-40.606,-4.068136,-40.339054,-35.657382,-13.538474,-47.716366,-35.898935,5.396024
549,529591685,-38.43174,45.197388,99.399574,-7.759052,-4.833557,-2.0146127,-127.01669,-35.462563,-5.624398,-40.468372,-35.737941,-13.572051,-49.833311,-36.489978,5.302284
550,529608352,-41.004616,45.50354,99.85037,-7.7550583,-4.8988886,-2.3038921,-129.59355,-31.030325,-7.590348,-40.597623,-35.819589,-13.610449,-51.993204,-37.00715,5.175778
551,529625019,-43.05767,45.704544,100.34991,-7.7064266,-4.7297773,-2.4562998,-132.9092,-27.711306,-10.001386,-40.726063,-35.898419,-13.651387,-54.208357,-37.469005,5.009088
552,529641686,-45.037315,45.842068,100.879654,-7.623169,-4.4386263,-2.5495615,-133.85963,-23.896227,-12.692221,-40.853116,-35.972396,-13.69388,-56.439351,-37.867275,4.797551
553,529658353,-46.724525,45.89477,101.46521,-7.4883227,-3.9443324,-2.520822,-133.26974,-20.149054,-15.755359,-40.977921,-36.038135,-13.735894,-58.660513,-38.203093,4.534962
554,529675020,-48.436943,45.85397,101.96704,-7.37858,-3.4895337,-2.5870452,-130.44374,-15.94482,-19.022945,-41.100897,-36.096294,-13.779011,-60.834575,-38.46884,4.217913
555,529691687,-50.202065,45.717167,102.37923,-7.2953377,-3.0844262,-2.7568493,-124.93697,-11.117845,-22.485682,-41.222486,-36.147701,-13.824958,-62.916858,-38.654137,3.843152
556,529708354,-51.661644,45.46536,102.789825,-7.1862955,-2.538593,-2.8693576,-117.69304,-6.4056816,-26.310907,-41.342258,-36.190011,-13.872781,-64.878409,-38.760898,3.404637
557,529725021,-52.873558,45.09175,103.166504,-7.0676174,-1.9026377,-2.9709425,-108.39806,-1.6683245,-30.467674,-41.460052,-36.221722,-13.922297,-66.685043,-38.788703,2.896842
558,529741688,-54.299767,44.693653,103.57581,-6.9002137,-1.4555228,-3.0655327,-100.41919,3.4826655,-33.934494,-41.575056,-36.245981,-13.973389,-68.358696,-38.730659,2.331267
559,529758355,-55.921516,44.271748,104.030655,-6.6746616,-1.2018373,-3.135212,-94.16843,8.967686,-36.635105,-41.6863,-36.266012,-14.025643,-69.92817,-38.581198,1.720682
560,529775022,-57.54374,43.769676,104.47432,-6.4205766,-1.0440533,-3.210042,-87.763565,14.692213,-39.033447,-41.79331,-36.283413,-14.079144,-71.390896,-38.336328,1.070125
561,529791689,-59.26803,43.209026,104.92553,-6.125403,-1.0553918,-3.2861357,-82.17667,20.716604,-40.84558,-41.8954,-36.301003,-14.133913,-72.760507,-37.991051,0.389365
562,529808356,-60.719246,42.52087,105.36513,-5.7974086,-1.0241923,-3.3190374,-75.45469,26.670788,-42.708096,-41.992023,-36.318073,-14.18923,-74.018085,-37.546538,-0.322437
563,529825023,-61.861076,41.69463,105.78651,-5.438164,-0.9432597,-3.3095703,-67.44156,32.52089,-44.65131,-42.082659,-36.333794,-14.24439,-75.142111,-37.004523,-1.066625
564,529841690,-62.95379,40.779366,106.21434,-5.031887,-0.9821713,-3.274952,-59.971176,38.480576,-46.104862,-42.166524,-36.350164,-14.298973,-76.141631,-36.36318,-1.835039
565,529858357,-63.90284,39.755745,106.64291,-4.5795913,-1.0982246,-3.2047634,-52.639698,44.45138,-47.19299,-42.242851,-36.368468,-14.352386,-77.018959,-35.622324,-2.621589
566,529875024,-64.75329,38.746685,107.105576,-4.2442527,-1.1281238,-3.1809464,-45.065136,49.123158,-48.348404,-42.313589,-36.38727,-14.405402,-77.770045,-34.803605,-3.427396
567,529891691,-65.5272,37.767105,107.609116,-4.038866,-1.0779808,-3.210864,-37.485485,52.363327,-49.527763,-42.380903,-36.405236,-14.458916,-78.394803,-33.930883,-4.252859
568,529908358,-66.12548,36.742405,108.133644,-3.8864918,-0.99790025,-3.246913,-29.847218,54.69569,-50.596073,-42.445678,-36.421868,-14.513031,-78.892257,-33.019288,-5.096127
569,529925025,-66.55883,35.70704,108.69004,-3.832421,-0.8487191,-3.310914,-22.154755,55.72621,-51.6419,-42.509552,-36.436013,-14.568213,-79.261503,-32.090518,-5.956825
570,529941692,-66.84582,34.59588,109.26299,-3.7780092,-0.77259827,-3.3589602,-15.131738,56.228,-52.248203,-42.572519,-36.44889,-14.624196,-79.513699,-31.153385,-6.827628
571,529958359,-66.96766,33.401623,109.85186,-3.7179306,-0.7761824,-3.385953,-8.851096,56.196846,-52.382683,-42.634485,-36.461826,-14.680629,-79.661217,-30.216771,-7.700673
572,529975026,-66.91808,32.186283,110.47478,-3.7415574,-0.7565491,-3.4319916,-3.016593,54.870922,-52.314205,-42.696844,-36.474435,-14.737829,-79.711494,-29.302256,-8.572576
573,529991693,-66.6914,30.935387,111.129395,-3.829443,-0.7450013,-3.48697,2.157314,52.368317,-51.93902,-42.760668,-36.486852,-14.795945,-79.675539,-28.429451,-9.438226
574,530008360,-66.56931,29.7398,111.762985,-3.865202,-0.7303369,-3.5472536,6.8082066,50.694992,-51.828056,-42.825088,-36.499024,-14.855066,-79.562069,-27.584534,-10.302027
575,530025027,-66.57499,28.617691,112.37385,-3.8506083,-0.7006686,-3.617733,10.907743,49.91072,-52.05491,-42.889265,-36.510702,-14.915362,-79.380273,-26.752689,-11.169609
576,530041694,-66.56588,27.517418,112.98646,-3.829441,-0.6837132,-3.6932564,14.175074,49.104805,-52.266136,-42.953089,-36.522097,-14.976916,-79.144022,-25.934276,-12.040711
577,530058361,-66.61935,26.468876,113.58745,-3.7736502,-0.67383814,-3.774602,16.593884,48.78617,-52.622837,-43.015983,-36.533328,-15.039826,-78.867457,-25.121173,-12.917758
578,530075028,-66.55665,25.435438,114.21341,-3.776017,-0.6519797,-3.8731823,18.063202,47.52858,-52.844543,-43.078917,-36.544194,-15.104379,-78.566404,-24.32903,-13.7985
579,530091695,-66.36454,24.416729,114.86723,-3.8424652,-0.6201956,-3.9893932,18.483185,45.22256,-52.898426,-43.142958,-36.554531,-15.170869,-78.258351,-23.575321,-14.68014
580,530108362,-66.19909,23.46008,115.519745,-3.9041266,-0.58264756,-4.118972,17.837692,42.998302,-53.06338,-43.208027,-36.564242,-15.239519,-77.961056,-22.858683,-15.56453
581,530125029,-66.02221,22.561249,116.179245,-3.9820485,-0.5353267,-4.264943,16.039026,40.5327,-53.27806,-43.274394,-36.573164,-15.310601,-77.693739,-22.183138,-16.452498
582,530141696,-65.91862,21.638554,116.90286,-3.9373336,-0.51159763,-4.386471,14.9957905,38.580807,-53.98291,-43.340016,-36.581691,-15.383709,-77.443809,-21.540125,-17.352213
583,530158363,-65.918465,20.694443,117.69316,-3.748627,-0.5138712,-4.4798975,14.845299,37.34831,-55.26506,-43.402493,-36.590256,-15.458374,-77.196387,-20.917653,-18.273297
584,530175030,-65.95821,19.768812,118.52934,-3.496283,-0.5229516,-4.567238,14.574549,36.25216,-56.88174,-43.460764,-36.598972,-15.534495,-76.953478,-20.31345,-19.221326
585,530191697,-66.0705,18.84404,119.42717,-3.1383698,-0.5474193,-4.637348,14.689367,35.54677,-58.978477,-43.51307,-36.608096,-15.611784,-76.708655,-19.721004,-20.204301
586,530208364,-66.248085,17.985262,120.34712,-2.7383037,-0.5693722,-4.713461,13.983484,35.06654,-61.374287,-43.558708,-36.617586,-15.690342,-76.475597,-19.136562,-21.227206
587,530225031,-66.49236,17.20045,121.28841,-2.3002744,-0.5865829,-4.7976217,12.343161,34.785282,-64.06938,-43.597046,-36.627362,-15.770302,-76.269878,-18.556807,-22.295029
588,530241698,-66.84077,16.44512,122.285,-1.7541199,-0.61495924,-4.868678,10.792342,35.027046,-67.29649,-43.626281,-36.637611,-15.851447,-76.090006,-17.973023,-23.416637
589,530258365,-67.29737,15.736708,123.32959,-1.1108842,-0.6502371,-4.9316235,9.056179,35.775467,-71.035576,-43.644796,-36.648448,-15.933641,-75.93907,-17.376765,-24.600563
590,530275032,-67.7288,14.944853,124.40242,-0.67750597,-0.614007,-4.921542,7.443612,35.938507,-73.38257,-43.656088,-36.658681,-16.015667,-75.81501,-16.77779,-25.823606
591,530291699,-68.13419,14.05397,125.50682,-0.47237396,-0.5001309,-4.8287582,6.111912,35.4842,-74.195366,-43.663961,-36.667017,-16.096146,-75.713145,-16.186387,-27.060195
592,530308366,-68.58619,13.140112,126.648254,-0.3555436,-0.34221172,-4.6867266,4.7258244,34.944912,-74.37384,-43.669887,-36.672721,-16.174258,-75.634381,-15.603972,-28.299759
593,530325033,-69.05447,12.16642,127.82329,-0.40977573,-0.11799955,-4.475376,3.414625,34.049877,-73.39409,-43.676717,-36.674688,-16.248848,-75.577471,-15.036474,-29.522994
594,530341700,-69.63476,11.201672,129.054,-0.43683434,0.12420082,-4.226347,2.2422597,33.540966,-72.43775,-43.683998,-36.672618,-16.319287,-75.5401,-14.477458,-30.73029
595,530358367,-70.33996,10.252552,130.34238,-0.42507458,0.38295746,-3.9403934,1.2021587,33.48809,-71.57377,-43.691083,-36.666235,-16.38496,-75.520064,-13.919323,-31.923186
596,530375034,-71.10088,9.252655,131.6756,-0.54529667,0.7026448,-3.582737,0.39414215,33.304577,-69.75232,-43.700171,-36.654524,-16.444672,-75.513495,-13.364247,-33.085725
597,530391701,-71.943214,8.216587,133.05951,-0.7565956,1.0744771,-3.158187,-0.15136409,33.165726,-67.21232,-43.712781,-36.636616,-16.497308,-75.516018,-12.811485,-34.20593
598,530408368,-72.71522,7.320694,134.34187,-0.8427272,1.3501697,-2.8417678,-0.22546697,32.735363,-64.934204,-43.726826,-36.614113,-16.544671,-75.519776,-12.265896,-35.288167
599,530425035,-73.39706,6.573139,135.50688,-0.80551815,1.5218402,-2.6445098,0.2384088,31.91739,-62.863594,-43.740251,-36.588749,-16.588746,-75.515803,-11.733939,-36.335894
600,530441702,-74.081764,5.900036,136.6309,-0.72120905,1.654741,-2.4853487,1.1901033,30.99949,-60.68007,-43.752271,-36.56117,-16.630168,-75.495968,-11.217281,-37.347228
601,530458369,-74.72616,5.3486214,137.67033,-0.5360985,1.7090598,-2.4115891,2.7224667,29.870138,-58.605854,-43.761206,-36.532686,-16.670361,-75.450594,-10.719445,-38.323992
602,530475036,-75.40769,4.80035,138.7108,-0.4211874,1.7838447,-2.3107004,4.770403,28.595572,-55.78155,-43.768226,-36.502955,-16.708873,-75.371087,-10.242852,-39.253685
603,530491703,-76.13494,4.249611,139.75693,-0.38493824,1.8845403,-2.1758318,7.3691454,27.195328,-52.152977,-43.774642,-36.471546,-16.745137,-75.248268,-9.789597,-40.122901
604,530508370,-76.83184,3.796772,140.72673,-0.2972455,1.9271495,-2.1041894,10.660383,25.533764,-48.320076,-43.779596,-36.439427,-16.780207,-75.070595,-9.364034,-40.928236
605,530525037,-77.51522,3.4178696,141.63641,-0.19507742,1.9321064,-2.0724568,14.664793,23.621527,-44.082645,-43.782847,-36.407225,-16.814748,-74.826182,-8.970342,-41.662947
606,530541704,-77.500725,2.9840736,142.60442,-0.17752266,1.9862837,-2.0546632,17.094034,22.178362,-40.614647,-43.785806,-36.37412,-16.848992,-74.541281,-8.600703,-42.339858
607,530558371,-76.70649,2.4963722,143.62938,-0.23973036,2.0869472,-2.061812,17.765757,21.247232,-38.088676,-43.789802,-36.339338,-16.883356,-74.245185,-8.246582,-42.974669
608,530575038,-75.46256,2.0006676,144.66382,-0.3608508,2.2060146,-2.091823,17.799585,20.488497,-35.801872,-43.795816,-36.302571,-16.91822,-73.948525,-7.905107,-43.571367
609,530591705,-73.56486,1.4649963,145.73607,-0.56548786,2.3643641,-2.1423945,16.56529,20.09424,-34.100693,-43.805241,-36.263165,-16.953927,-73.672437,-7.570203,-44.139712
610,530608372,-71.38534,0.99165726,146.75339,-0.7635164,2.4890132,-2.2551317,15.466955,19.611078,-32.443405,-43.817966,-36.221681,-16.991513,-73.414654,-7.243352,-44.680435
611,530625039,-68.93479,0.5858879,147.70901,-0.95361567,2.5763478,-2.4329267,14.595585,19.008532,-30.782448,-43.83386,-36.178742,-17.032062,-73.171394,-6.926543,-45.193476
612,530641706,-65.837776,0.17002487,148.6717,-1.2021284,2.67983,-2.6554713,12.699501,18.677866,-29.699614,-43.853895,-36.134078,-17.07632,-72.959736,-6.615245,-45.68847
613,530658373,-62.156807,-0.23368454,149.61987,-1.490963,2.7833738,-2.933898,10.066956,18.523521,-29.091513,-43.878744,-36.087688,-17.125218,-72.791953,-6.30652,-46.173329
614,530675040,-62.192955,-0.58782196,149.82628,-1.6991625,2.8727522,-3.1342697,8.615842,17.752005,-28.437098,-43.907063,-36.039809,-17.177456,-72.648356,-6.010653,-46.647281
615,530691707,-66.31968,-0.8973961,149.22275,-1.8225212,2.952169,-3.2435808,8.360764,16.33558,-27.784914,-43.937438,-35.990606,-17.231516,-72.50901,-5.738393,-47.110363
616,530708374,-72.547325,-1.1644936,148.13306,-1.906013,3.016763,-3.334817,8.575216,14.585421,-27.33343,-43.969205,-35.940327,-17.287096,-72.36609,-5.495303,-47.56592
617,530725041,-82.09434,-1.3806496,146.34653,-1.9170799,3.0636978,-3.370984,9.744429,12.290574,-26.979725,-44.001156,-35.889265,-17.343279,-72.203683,-5.29046,-48.015582
618,530741708,-92.37325,-1.5870361,144.29443,-1.9442735,3.1143258,-3.4271317,10.422629,10.009978,-27.195518,-44.033561,-35.83736,-17.400398,-72.029973,-5.123627,-48.468841
619,530758375,-103.27116,-1.7838631,141.98872,-1.9905701,3.168055,-3.5097733,10.534458,7.7669315,-28.028622,-44.066737,-35.784559,-17.458894,-71.854399,-4.994178,-48.935985
620,530775042,-117.177376,-1.9435005,139.02032,-1.9829903,3.2117743,-3.5494747,11.209629,5.0981917,-29.178144,-44.099787,-35.731029,-17.518052,-71.667572,-4.909208,-49.422287
621,530791709,-133.60303,-2.0743866,135.46538,-1.9390807,3.249661,-3.562171,12.137885,2.1165705,-30.76808,-44.132105,-35.676868,-17.577422,-71.465274,-4.873932,-49.935088
622,530808376,-135.65533,-2.156559,135.84447,-1.9130297,3.2907276,-3.5784445,12.003522,-0.37593734,-31.76542,-44.163989,-35.622023,-17.637063,-71.265215,-4.880198,-50.464512
623,530825043,-121.98231,-2.1850357,140.55199,-1.9000716,3.3345764,-3.591343,10.807846,-2.3614159,-32.05228,-44.195657,-35.566447,-17.696919,-71.085084,-4.919555,-50.998717
624,530841710,-100.23673,-2.1749344,147.5066,-1.8851957,3.3798053,-3.5962067,8.956617,-4.14678,-32.219543,-44.227077,-35.510117,-17.756856,-70.935807,-4.988668,-51.535709
625,530858377,-65.67034,-2.1197548,157.99161,-1.8801603,3.4287658,-3.597909,6.1087112,-5.5230656,-31.976494,-44.258413,-35.452971,-17.816821,-70.833995,-5.080719,-52.068651
626,530875044,-28.682236,-2.023098,169.28656,-1.8325043,3.4722228,-3.5605354,3.3112519,-7.081771,-31.873844,-44.288955,-35.395101,-17.876163,-70.778807,-5.198749,-52.599882
627,530891711,10.279037,-1.8856468,181.2771,-1.7390995,3.5101552,-3.4815426,0.5914357,-8.849938,-31.962938,-44.31794,-35.336598,-17.934189,-70.76895,-5.346248,-53.132598
628,530908378,60.665913,-1.6994934,196.4795,-1.6348734,3.5492885,-3.3813152,-2.8718793,-10.352597,-31.715853,-44.345188,-35.277443,-17.990544,-70.816815,-5.518791,-53.661196
629,530925045,120.49455,-1.4649124,214.38278,-1.5074501,3.5878186,-3.2506409,-6.8694286,-11.712723,-31.24876,-44.370312,-35.217646,-18.044721,-70.931305,-5.714003,-54.182009
630,530941712,164.54736,-1.3277702,215.90746,-1.3495765,3.6228533,-3.1063766,-9.23676,-11.683932,-31.373234,-44.392805,-35.157265,-18.096494,-71.085251,-5.908735,-54.704896
631,530958379,191.73022,-1.3010445,199.49936,-1.1631107,3.654953,-2.9506044,-9.861002,-10.075973,-32.09322,-44.41219,-35.096349,-18.145671,-71.249601,-6.076668,-55.239783
632,530975046,212.81137,-1.3159103,173.82573,-0.9416518,3.6843529,-2.767336,-9.625445,-7.5499825,-33.09731,-44.427884,-35.034943,-18.191793,-71.410025,-6.202501,-55.791405
633,530991713,221.10434,-1.4136429,133.51253,-0.68299484,3.7105012,-2.5604186,-7.939371,-3.7212589,-34.588882,-44.439267,-34.973101,-18.234467,-71.542348,-6.264522,-56.367886
634,531008380,233.91684,-1.5079193,90.25377,-0.39851093,3.737102,-2.3229961,-6.2807837,0.82755744,-35.96234,-44.445909,-34.910816,-18.273184,-71.647028,-6.250729,-56.967258
635,531025047,252.18954,-1.5946617,44.549877,-0.08640289,3.7643132,-2.0521636,-4.7076883,6.07905,-37.1841,-44.447349,-34.848077,-18.307387,-71.725489,-6.149411,-57.586993
636,531041714,261.51694,-1.7540588,-14.26565,0.2617116,3.789914,-1.7536635,-1.9586866,12.686882,-38.72611,-44.442987,-34.784912,-18.336615,-71.758134,-5.937963,-58.232428
637,531058381,265.50403,-1.9697037,-83.96961,0.64462805,3.81478,-1.4246826,1.6752212,20.562536,-40.45714,-44.432243,-34.721332,-18.36036,-71.730214,-5.595254,-58.906714
638,531075048,271.52478,-2.1946144,-132.81812,0.98529434,3.8236365,-1.1404724,2.8976047,25.878103,-41.102676,-44.415821,-34.657605,-18.379368,-71.681921,-5.163952,-59.591759
639,531091715,278.39334,-2.4369202,-159.24718,1.2775269,3.814795,-0.9086523,1.5546417,28.371786,-40.58762,-44.394529,-34.594025,-18.394512,-71.65601,-4.691089,-60.268219
640,531108382,284.92667,-2.710369,-176.96329,1.5574837,3.796111,-0.6911082,-0.97842777,29.82035,-39.418056,-44.368571,-34.530756,-18.40603,-71.672317,-4.194083,-60.925187
641,531125049,292.5625,-3.007084,-177.4714,1.8036737,3.7631826,-0.50925636,-5.586588,29.178675,-37.239418,-44.33851,-34.468036,-18.414518,-71.765427,-3.707772,-61.545844
642,531141716,293.14316,-3.3784103,-182.194,2.0644217,3.724306,-0.319314,-10.011227,28.86852,-34.901707,-44.304103,-34.405964,-18.41984,-71.932281,-3.22663,-62.127539
643,531158383,286.26227,-3.8293686,-192.26709,2.342309,3.6799524,-0.11863947,-14.145594,29.029856,-32.4288,-44.265065,-34.344631,-18.421817,-72.168041,-2.742799,-62.668019
644,531175050,276.9845,-4.33041,-189.62442,2.5941677,3.6220117,0.05181074,-19.890032,27.539698,-29.076176,-44.221829,-34.284264,-18.420953,-72.499542,-2.283804,-63.152622
645,531191717,263.3754,-4.895397,-178.67754,2.829606,3.5520444,0.20063257,-26.785898,24.89115,-25.003149,-44.174669,-34.225063,-18.417609,-72.945974,-1.868952,-63.569341
646,531208384,255.12015,-5.3908195,-175.54883,2.996934,3.5421093,0.35414362,-31.268816,23.63252,-21.552834,-44.12472,-34.166028,-18.411707,-73.467121,-1.475077,-63.928555
647,531225051,253.51547,-5.8027725,-179.39432,3.0843143,3.5982585,0.5085807,-33.2389,23.71779,-18.746426,-44.073315,-34.106057,-18.403231,-74.021103,-1.07978,-64.240995
648,531241718,252.46414,-6.2062798,-185.38388,3.1212788,3.6875398,0.6561866,-34.086098,24.246162,-16.037706,-44.021294,-34.044598,-18.392295,-74.589205,-0.675677,-64.50829
649,531258385,254.7081,-6.5642815,-197.26802,3.090045,3.8303144,0.8017993,-32.87477,25.836746,-13.766928,-43.969793,-33.980759,-18.378932,-75.137118,-0.245065,-64.737739
650,531275052,255.71579,-6.9502716,-200.80106,3.0076437,3.982872,0.91833353,-32.183224,26.43328,-10.93292,-43.919666,-33.914378,-18.363626,-75.673505,0.19549,-64.919954
651,531291719,254.93253,-7.37109,-195.26093,2.873434,4.143354,1.003407,-32.128826,25.9222,-7.4743223,-43.871775,-33.845322,-18.346903,-76.208985,0.627527,-65.044526
652,531308386,256.98883,-7.7581024,-190.74628,2.6611147,4.3519087,1.0734062,-30.616215,25.835413,-4.1742873,-43.827423,-33.77279,-18.329013,-76.719255,1.058117,-65.114097
653,531325053,260.89893,-8.127064,-184.05806,2.3715773,4.600274,1.1212778,-28.177422,25.717052,-0.8130176,-43.787897,-33.696119,-18.310325,-77.188879,1.486735,-65.127647
654,531341720,262.23343,-8.499092,-179.71489,2.1774216,4.764049,1.138274,-26.284761,25.145628,1.7005181,-43.751607,-33.616718,-18.291354,-77.626958,1.905829,-65.099305
655,531358387,261.24875,-8.866398,-179.15924,2.089511,4.836902,1.1239614,-24.810371,24.242598,3.1810806,-43.716782,-33.536103,-18.272621,-78.040464,2.309872,-65.046287
656,531375054,259.4377,-9.228741,-177.91455,2.024373,4.872849,1.0762453,-23.400438,22.879074,4.205632,-43.683042,-33.454889,-18.254684,-78.430471,2.69119,-64.976193
657,531391721,255.81131,-9.588272,-177.46408,2.0281048,4.8385334,0.9918823,-22.383427,20.971756,4.4828434,-43.64924,-33.374247,-18.238153,-78.803528,3.040719,-64.901479
658,531408388,254.09213,-9.915009,-177.61458,1.9904594,4.8174725,0.8780689,-20.335274,19.13644,4.336842,-43.616066,-33.293956,-18.223519,-79.142449,3.35966,-64.829198
659,531425055,254.53021,-10.206661,-178.0018,1.9034462,4.8141117,0.7330866,-17.191517,17.3584,3.7882884,-43.584342,-33.213721,-18.211301,-79.428974,3.648967,-64.76606
660,531441722,254.51556,-10.478252,-180.04813,1.8614635,4.7577863,0.5495014,-13.918698,15.259457,2.3999221,-43.553318,-33.134425,-18.202143,-79.660952,3.903291,-64.726061
661,531458389,254.92163,-10.721706,-183.70625,1.8408432,4.6656704,0.32743979,-10.194859,12.961329,0.21611196,-43.522637,-33.056664,-18.196686,-79.830866,4.119313,-64.722459
662,531475056,254.96994,-10.964951,-185.19337,1.7989035,4.6116605,0.16484737,-7.244484,11.211011,-1.031904,-43.492655,-32.979803,-18.193939,-79.951607,4.306163,-64.739657
663,531491723,254.3573,-11.210373,-184.47574,1.7438831,4.593525,0.06971359,-5.278367,10.047965,-1.2624254,-43.46359,-32.903244,-18.192777,-80.03958,4.473629,-64.760697
664,531508390,254.12381,-11.437393,-183.39899,1.6805067,4.5872126,-0.004963875,-3.480773,9.205975,-1.2915819,-43.435582,-32.82679,-18.19286,-80.097593,4.627062,-64.782223
665,531525057,254.0252,-11.652721,-181.06973,1.6008863,4.6105113,-0.031963825,-2.2169065,8.895454,-0.66872126,-43.408901,-32.749948,-18.193393,-80.134541,4.77532,-64.793368
666,531541724,253.95242,-11.841545,-180.01749,1.5540581,4.6014624,-0.07162523,-1.0104234,8.573512,-0.54082704,-43.383,-32.673257,-18.194587,-80.151381,4.918212,-64.802382
667,531558391,254.03299,-12.000473,-180.50974,1.5422735,4.5569773,-0.12746096,0.19872856,8.231356,-0.9942964,-43.357295,-32.597307,-18.196711,-80.148069,5.055401,-64.818954
668,531575058,254.12878,-12.141674,-180.59827,1.5358305,4.5225024,-0.14533997,0.84666514,8.332627,-1.0785427,-43.331698,-32.521932,-18.199133,-80.133958,5.194278,-64.83693
669,531591725,254.2565,-12.260616,-180.90411,1.5463543,4.484378,-0.13738012,1.0265222,8.777301,-1.0462644,-43.305925,-32.447192,-18.201423,-80.116849,5.340566,-64.854368
670,531608392,254.31943,-12.373402,-180.96097,1.5408926,4.460336,-0.1526742,1.4502068,8.63587,-1.2680874,-43.280243,-32.372853,-18.203968,-80.092679,5.484497,-64.875503
671,531625059,254.28424,-12.482384,-180.54034,1.5144491,4.457028,-0.18815136,2.0885766,7.8853674,-1.6633937,-43.255002,-32.298569,-18.207104,-80.057869,5.61592,-64.903226
672,531641726,254.21954,-12.575939,-180.34474,1.4919386,4.4563966,-0.22773886,2.6471212,6.9096603,-2.229744,-43.230136,-32.224296,-18.2109,-80.01375,5.731081,-64.940388
673,531658393,254.087,-12.6585045,-180.21387,1.4643583,4.4647255,-0.28237057,3.2830474,5.469617,-3.0365794,-43.20573,-32.149884,-18.215606,-79.959033,5.822241,-64.990998
674,531675060,253.97171,-12.721817,-180.03746,1.444704,4.4831,-0.30844784,3.4263246,4.245473,-3.6348503,-43.181652,-32.075166,-18.220747,-79.901928,5.892999,-65.051579
675,531691727,253.87827,-12.764378,-179.89952,1.4359417,4.5104523,-0.30306387,3.0239184,3.277567,-4.0135465,-43.15772,-31.999992,-18.225798,-79.851529,5.947625,-65.118471
676,531708394,253.72665,-12.793968,-179.72466,1.424304,4.5521474,-0.29623413,2.474704,2.0249162,-4.446322,-43.133982,-31.924123,-18.230735,-79.810284,5.981374,-65.192576
677,531725061,253.53333,-12.808399,-179.5147,1.4132938,4.6087227,-0.2776537,1.636693,0.63480985,-4.832193,-43.110427,-31.847311,-18.235363,-79.783006,5.991954,-65.273113
678,531741728,253.3649,-12.817478,-179.31389,1.3987236,4.649197,-0.26742077,0.8510525,-0.23772824,-5.3672266,-43.087115,-31.769824,-18.23982,-79.768822,5.987992,-65.362567
679,531758395,253.2153,-12.823086,-179.11053,1.3784294,4.672145,-0.2700181,0.18145609,-0.5912901,-6.0903273,-43.064141,-31.691955,-18.24432,-79.765798,5.978137,-65.464072
680,531775062,253.06195,-12.818993,-178.8911,1.3569946,4.693213,-0.2679758,-0.64734733,-0.6325213,-6.831085,-43.041524,-31.613735,-18.248786,-79.776587,5.967595,-65.577923
681,531791729,252.91852,-12.808277,-178.65997,1.3326426,4.704526,-0.26722145,-1.5381281,-0.19122493,-7.6445465,-43.019313,-31.535326,-18.25324,-79.802222,5.964408,-65.705332
682,531808396,252.7229,-12.786743,-178.4138,1.3053703,4.7257347,-0.26248598,-2.6150408,0.21898997,-8.481863,-42.997557,-31.456564,-18.257615,-79.845806,5.968058,-65.846696
683,531825063,252.46988,-12.754047,-178.15042,1.2753515,4.7586975,-0.25190926,-3.9097555,0.58437693,-9.323349,-42.976301,-31.377252,-18.261813,-79.910969,5.977798,-66.002085
684,531841730,252.1998,-12.715141,-177.87236,1.2408037,4.787181,-0.2430973,-5.2801337,1.3102967,-10.237944,-42.955621,-31.297466,-18.265865,-79.998971,5.999636,-66.172717
685,531858397,251.89703,-12.669312,-177.57793,1.2015581,4.815728,-0.23456478,-6.7599897,2.2942724,-11.210329,-42.935595,-31.217204,-18.269774,-80.111637,6.037874,-66.359556
686,531875064,251.59479,-12.631008,-177.2757,1.2080317,4.842575,-0.23857117,-7.5236835,2.980238,-12.264943,-42.915461,-31.136494,-18.27375,-80.237032,6.087545,-66.563972
687,531891731,251.29868,-12.60268,-176.9662,1.2648239,4.865658,-0.25757885,-7.467067,3.3656764,-13.414013,-42.894381,-31.0554,-18.278043,-80.361483,6.14364,-66.787539
688,531908398,250.97998,-12.577385,-176.64343,1.3479633,4.8890495,-0.2848878,-7.0005627,3.6480064,-14.634661,-42.871915,-30.973916,-18.282791,-80.478159,6.20444,-67.03145
689,531925065,250.64758,-12.55983,-176.30934,1.4717531,4.911708,-0.3245859,-5.876784,3.6852908,-15.937663,-42.847386,-30.892054,-18.288201,-80.576105,6.265862,-67.297078
690,531941732,250.28918,-12.543358,-175.95798,1.606597,4.930952,-0.371068,-4.542777,3.9141908,-17.319061,-42.820609,-30.809871,-18.294385,-80.651818,6.331099,-67.585729
691,531958399,249.90073,-12.528137,-175.58813,1.7510881,4.9469614,-0.42432022,-3.013894,4.354009,-18.77874,-42.791424,-30.727422,-18.301457,-80.70205,6.403666,-67.898708
692,531975066,249.49509,-12.522121,-175.20424,1.9328623,4.9599843,-0.49114466,-0.8372971,4.6660714,-20.3299,-42.75921,-30.644756,-18.309643,-80.716005,6.481434,-68.23754
693,531991733,249.0682,-12.524563,-174.80449,2.146306,4.969347,-0.57084703,1.9107473,4.9425817,-21.973217,-42.723438,-30.561934,-18.319157,-80.684159,6.56381,-68.60376
694,532008400,248.63034,-12.401295,-173.86699,2.292078,4.9293413,-0.615695,5.23674,3.4512777,-22.809849,-42.685237,-30.479778,-18.329419,-80.59688,6.621331,-68.983924
695,532025067,248.18362,-12.140335,-172.33818,2.3644419,4.834955,-0.6222887,9.224273,-0.027746916,-22.751366,-42.64583,-30.399195,-18.33979,-80.443142,6.620869,-69.363113
696,532041734,247.71982,-11.804691,-170.46033,2.4070578,4.706856,-0.6130996,13.844069,-4.623648,-22.220488,-42.605712,-30.320747,-18.350008,-80.212408,6.543808,-69.733454
697,532058401,247.24191,-11.3563,-168.08124,2.3930016,4.5314474,-0.5750704,19.139101,-10.854274,-20.95798,-42.565829,-30.245223,-18.359593,-79.893423,6.362903,-70.082754
698,532075068,246.74524,-10.875175,-165.49974,2.3875628,4.334775,-0.5381427,25.256796,-17.819357,-19.484125,-42.526036,-30.172977,-18.368562,-79.472476,6.065914,-70.407489
699,532091735,246.22879,-10.364983,-162.72539,2.3940935,4.117337,-0.50410175,32.232464,-25.487211,-17.819221,-42.486134,-30.104355,-18.376964,-78.935268,5.641127,-70.704476
700,532108402,245.69748,-9.751549,-159.46893,2.3564472,3.8534274,-0.4465866,40.057705,-34.787872,-15.467368,-42.44686,-30.040131,-18.384407,-78.26764,5.061329,-70.962265
701,532125069,245.15018,-9.050037,-155.7829,2.2878428,3.5473695,-0.3717065,48.795162,-45.570084,-12.523232,-42.408729,-29.981008,-18.390602,-77.454387,4.301828,-71.170986
702,532141736,246.07785,-8.474747,-155.8533,2.229807,3.258298,-0.296587,56.243607,-51.110588,-8.595415,-42.371566,-29.926703,-18.395545,-76.516994,3.449985,-71.314243
703,532158403,248.63464,-8.035728,-160.06017,2.1785421,2.9875727,-0.21915483,62.211437,-50.89071,-3.5593379,-42.335257,-29.87691,-18.399198,-75.480137,2.601807,-71.373565
704,532175070,252.12274,-7.640377,-166.46806,2.1224651,2.7089684,-0.13500595,67.804375,-48.005123,2.3599508,-42.299883,-29.831761,-18.401448,-74.350064,1.801722,-71.334232
705,532191737,256.9767,-7.345749,-176.27216,2.0704842,2.437361,-0.047595024,72.41185,-40.58214,9.315863,-42.265375,-29.791138,-18.402241,-73.1432,1.125353,-71.178968
706,532208404,262.34457,-7.006569,-186.98271,1.9828835,2.1300967,0.060280323,77.34299,-32.781128,17.24227,-42.232327,-29.755636,-18.401236,-71.85415,0.579001,-70.891597
707,532225071,268.19757,-6.614876,-198.49927,1.8572321,1.7839698,0.18975401,82.68592,-24.807663,26.162407,-42.201373,-29.725903,-18.398073,-70.476051,0.16554,-70.455557
708,532241738,275.36038,-6.2925186,-213.14735,1.7199125,1.432449,0.32985067,87.2521,-12.92124,36.273785,-42.172708,-29.702029,-18.392575,-69.021849,-0.049814,-69.850994
709,532258405,283.68228,-6.0093346,-230.46509,1.561513,1.065861,0.48476076,91.30886,2.06433,47.59847,-42.146683,-29.684265,-18.384496,-67.500035,-0.015408,-69.057686
710,532275072,278.40198,-6.0106163,-233.593,1.3948412,0.8362831,0.52916765,88.46947,13.608463,56.645172,-42.123436,-29.670327,-18.375677,-66.025544,0.2114,-68.1136
711,532291739,258.1443,-6.338249,-221.18054,1.2231398,0.76310015,0.449533,77.899376,21.614414,63.12363,-42.10305,-29.657609,-18.368185,-64.727221,0.57164,-67.061539
