PacketCounter,SampleTimeFine,Euler_X,Euler_Y,Euler_Z,Acc_X,Acc_Y,Acc_Z,Gyr_X,Gyr_Y,Gyr_Z,Velo_X,Velo_Y,Velo_Z,ANG_X,ANG_Y,ANG_Z
0,530134212,-97.80096,14.448727,-146.12167,-4.1784616,0.08049607,-1.6613424,-6.0293026,0.99789095,2.0477347,0.0,0.0,0.0,0.0,0.0,0.0
1,530150879,-97.76983,14.440971,-146.13724,-3.9152818,0.030488849,-1.8227198,-5.960124,1.0069858,2.0371983,-0.065255,0.000508,-0.030379,-0.099335,0.016783,0.033953
2,530167546,-97.737114,14.432816,-146.15372,-3.629541,-0.0238173,-1.9979563,-5.884628,1.0170122,2.026019,-0.125747,0.000111,-0.063678,-0.197412,0.033733,0.06772
3,530184213,-97.70333,14.424381,-146.17084,-3.325376,-0.08163071,-2.1845179,-5.803894,1.0277328,2.0143132,-0.18117,-0.00125,-0.100087,-0.294144,0.050862,0.101292
4,530200880,-97.65832,14.413139,-146.19357,-2.9186802,-0.15901613,-2.4338942,-5.6959677,1.0435765,1.9995646,-0.229815,-0.0039,-0.140652,-0.389077,0.068255,0.134618
5,530217547,-97.60429,14.399643,-146.22087,-2.42658,-0.25270367,-2.7356029,-5.5652666,1.0636489,1.9823124,-0.270258,-0.008112,-0.186245,-0.481831,0.085982,0.167657
6,530234214,-97.559715,14.388264,-146.24203,-2.1018896,-0.31436276,-2.9346142,-5.4739757,1.0845821,1.9743775,-0.305289,-0.013351,-0.235155,-0.573064,0.104058,0.200563
7,530250881,-97.525,14.37907,-146.25671,-1.9569817,-0.34162724,-3.0233288,-5.424902,1.1067519,1.9765829,-0.337905,-0.019045,-0.285544,-0.663479,0.122504,0.233506
8,530267548,-97.49264,14.370304,-146.26938,-1.8821754,-0.35546553,-3.069018,-5.391136,1.1312909,1.9836873,-0.369275,-0.024969,-0.336694,-0.753331,0.141359,0.266567
9,530284215,-97.46734,14.3630905,-146.27722,-1.9450016,-0.3429681,-3.0302649,-5.3891716,1.1575431,1.9989638,-0.401692,-0.030685,-0.387198,-0.843151,0.160651,0.299883
10,530300882,-97.435524,14.354137,-146.28784,-1.975029,-0.33671117,-3.011559,-5.376671,1.1887848,2.0148864,-0.434609,-0.036297,-0.437391,-0.932762,0.180464,0.333464
11,530317549,-97.396416,14.343277,-146.30168,-1.9630079,-0.3384626,-3.018569,-5.351259,1.2253146,2.0311139,-0.467326,-0.041938,-0.4877,-1.02195,0.200886,0.367316
12,530334216,-97.360725,14.333054,-146.31256,-2.0524998,-0.32077956,-2.9632683,-5.3482723,1.2650826,2.0543134,-0.501534,-0.047284,-0.537088,-1.111088,0.221971,0.401555
13,530350883,-97.32549,14.322754,-146.32214,-2.2082682,-0.29039693,-2.8672533,-5.358866,1.3089375,2.083015,-0.538338,-0.052124,-0.584876,-1.200402,0.243787,0.436272
14,530367550,-97.28884,14.3121605,-146.33963,-2.2820244,-0.2758354,-2.82135,-5.3596435,1.3311011,2.1023736,-0.576372,-0.056721,-0.631899,-1.289729,0.265972,0.471312
15,530384217,-97.251854,14.301537,-146.36517,-2.278287,-0.2762494,-2.822774,-5.3529625,1.3288423,2.111879,-0.614343,-0.061325,-0.678945,-1.378945,0.288119,0.50651
16,530400884,-97.2134,14.290508,-146.39552,-2.2446156,-0.2824638,-2.8424025,-5.344192,1.3149455,2.1176653,-0.651753,-0.066033,-0.726318,-1.468015,0.310035,0.541804
17,530417551,-97.17333,14.27911,-146.43312,-2.1452332,-0.3013686,-2.9021401,-5.3282547,1.2819712,2.1158373,-0.687507,-0.071056,-0.774687,-1.556819,0.331401,0.577068
18,530434218,-97.13555,14.268101,-146.47102,-2.1046476,-0.30906236,-2.9256973,-5.3281527,1.2443779,2.1168685,-0.722584,-0.076207,-0.823449,-1.645622,0.352141,0.612349
19,530450885,-97.10012,14.257488,-146.50897,-2.128829,-0.3044002,-2.9094105,-5.344974,1.2028737,2.1213138,-0.758064,-0.08128,-0.871939,-1.734705,0.372189,0.647704
20,530467552,-97.065056,14.246937,-146.55261,-2.1263113,-0.30496228,-2.9093032,-5.363373,1.1435039,2.1206036,-0.793503,-0.086363,-0.920427,-1.824095,0.391247,0.683047
21,530484219,-97.03123,14.23661,-146.60048,-2.1243935,-0.3055122,-2.9086447,-5.3886127,1.0689524,2.1169329,-0.82891,-0.091455,-0.968904,-1.913905,0.409063,0.718329
22,530500886,-96.995674,14.226685,-146.6358,-2.1270924,-0.3056177,-2.9060283,-5.4047337,1.0219097,2.114369,-0.864362,-0.096549,-1.017338,-2.003984,0.426095,0.753568
23,530517553,-96.958,14.217182,-146.65758,-2.1249876,-0.3071307,-2.9073272,-5.4088373,1.0044153,2.112202,-0.899778,-0.101668,-1.065793,-2.094131,0.442835,0.788771
24,530534220,-96.92036,14.208183,-146.67287,-2.1355991,-0.30653703,-2.901301,-5.4124336,0.99774957,2.1099346,-0.935371,-0.106777,-1.114148,-2.184338,0.459464,0.823937
25,530550887,-96.881966,14.199783,-146.67702,-2.1577415,-0.30416906,-2.888979,-5.410817,1.0132573,2.1083539,-0.971333,-0.111846,-1.162298,-2.274518,0.476352,0.859076
26,530567554,-96.84428,14.191814,-146.68124,-2.1662607,-0.3046726,-2.8851514,-5.4096746,1.0221732,2.102812,-1.007437,-0.116924,-1.210384,-2.364679,0.493388,0.894123
27,530584221,-96.80758,14.184334,-146.68602,-2.1623802,-0.30781388,-2.8890433,-5.4100065,1.022845,2.0931072,-1.043477,-0.122054,-1.258535,-2.454846,0.510435,0.929008
28,530600888,-96.770546,14.177528,-146.6816,-2.1572008,-0.31165278,-2.8944325,-5.4048624,1.0394052,2.082106,-1.07943,-0.127248,-1.306776,-2.544927,0.527758,0.96371
29,530617555,-96.73353,14.171402,-146.67018,-2.1454477,-0.3171761,-2.9044333,-5.3954763,1.065842,2.0687206,-1.115187,-0.132534,-1.355183,-2.634852,0.545522,0.998189
30,530634222,-96.69633,14.164604,-146.67914,-2.1411943,-0.31990921,-2.9085526,-5.391387,1.0761514,2.062467,-1.150874,-0.137866,-1.403659,-2.724708,0.563458,1.032563
31,530650889,-96.658745,14.157059,-146.70976,-2.1460552,-0.31939864,-2.9057074,-5.3923755,1.0709268,2.0644994,-1.186642,-0.143189,-1.452087,-2.814581,0.581307,1.066971
32,530667556,-96.62122,14.149441,-146.75058,-2.1492214,-0.31854486,-2.903335,-5.394602,1.0585477,2.0694935,-1.222462,-0.148498,-1.500476,-2.904491,0.598949,1.101463
33,530684223,-96.583626,14.141415,-146.80888,-2.15421,-0.31617677,-2.8987803,-5.4002814,1.0326383,2.0801814,-1.258366,-0.153768,-1.548789,-2.994496,0.61616,1.136133
34,530700890,-96.54598,14.133835,-146.86613,-2.1560287,-0.31433737,-2.8963475,-5.4021597,1.014639,2.0917108,-1.2943,-0.159007,-1.597061,-3.084532,0.633071,1.170995
35,530717557,-96.508354,14.126797,-146.92154,-2.1532125,-0.31336248,-2.897005,-5.399665,1.0055001,2.1036992,-1.330187,-0.16423,-1.645344,-3.174526,0.649829,1.206057
36,530734224,-96.47059,14.119549,-146.99069,-2.1508837,-0.31128478,-2.896553,-5.3981323,0.9892182,2.1209967,-1.366035,-0.169418,-1.69362,-3.264495,0.666316,1.241407
37,530750891,-96.43272,14.11232,-147.06984,-2.1474962,-0.30861342,-2.8961973,-5.39585,0.97041404,2.142648,-1.401827,-0.174562,-1.74189,-3.354426,0.68249,1.277118
38,530767558,-96.39506,14.105469,-147.13261,-2.145461,-0.30723596,-2.8957286,-5.3996153,0.95493025,2.1551688,-1.437585,-0.179683,-1.790152,-3.44442,0.698406,1.313037
39,530784225,-96.35758,14.098965,-147.17851,-2.1455164,-0.3070997,-2.894678,-5.410622,0.9415545,2.1579702,-1.473344,-0.184801,-1.838397,-3.534597,0.714099,1.349003
40,530800892,-96.32018,14.092762,-147.2176,-2.1452131,-0.30768907,-2.8941097,-5.424385,0.9307546,2.1568747,-1.509098,-0.189929,-1.886632,-3.625003,0.729612,1.384951
41,530817559,-96.28292,14.086956,-147.24312,-2.1453257,-0.30947435,-2.8938637,-5.442954,0.92374015,2.1483161,-1.544853,-0.195087,-1.934863,-3.715719,0.745008,1.420756
42,530834226,-96.24569,14.081131,-147.27454,-2.145012,-0.3109795,-2.8934336,-5.46357,0.91303325,2.1414194,-1.580603,-0.20027,-1.983087,-3.806779,0.760225,1.456446
43,530850893,-96.20843,14.075287,-147.31282,-2.1439743,-0.31217384,-2.8929515,-5.4859147,0.8986293,2.1366975,-1.616336,-0.205473,-2.031303,-3.898211,0.775202,1.492058
44,530867560,-96.1713,14.069683,-147.34236,-2.143281,-0.31420088,-2.8925338,-5.5132055,0.8852421,2.126527,-1.652057,-0.21071,-2.079512,-3.990098,0.789956,1.5275
45,530884227,-96.134315,14.064251,-147.36725,-2.1426744,-0.3167684,-2.892119,-5.544913,0.8713105,2.1128137,-1.687768,-0.215989,-2.127714,-4.082513,0.804478,1.562714
46,530900894,-96.09841,14.058483,-147.39018,-2.1423874,-0.31802678,-2.8923693,-5.5624943,0.8670869,2.0991464,-1.723474,-0.221289,-2.17592,-4.175221,0.818929,1.5977
47,530917561,-96.06368,14.052353,-147.40948,-2.142583,-0.31793892,-2.8933587,-5.5646276,0.87405926,2.0848641,-1.759184,-0.226588,-2.224143,-4.267965,0.833497,1.632448
48,530934228,-96.02973,14.046032,-147.4265,-2.1429482,-0.31719017,-2.8947458,-5.559766,0.8863171,2.0694883,-1.7949,-0.231875,-2.272389,-4.360628,0.848269,1.666939
49,530950895,-95.99679,14.039379,-147.44131,-2.1435976,-0.31529713,-2.89672,-5.5427966,0.9069067,2.0536876,-1.830627,-0.23713,-2.320668,-4.453008,0.863384,1.701167
50,530967562,-95.96436,14.032761,-147.44821,-2.1445446,-0.3136556,-2.8990092,-5.5252695,0.9312602,2.033333,-1.866369,-0.242358,-2.368985,-4.545096,0.878905,1.735056
51,530984229,-95.93246,14.026188,-147.44696,-2.1457777,-0.31232476,-2.9016,-5.507772,0.9590542,2.0082164,-1.902132,-0.247563,-2.417345,-4.636892,0.894889,1.768526
52,531000896,-95.90159,14.019352,-147.44022,-2.1474037,-0.31018996,-2.904801,-5.480012,0.9953454,1.9808398,-1.937922,-0.252733,-2.465758,-4.728226,0.911478,1.80154
53,531017563,-95.87165,14.012302,-147.42659,-2.149437,-0.30753946,-2.9085703,-5.444272,1.0393276,1.9502138,-1.973746,-0.257859,-2.514234,-4.818964,0.9288,1.834044
54,531034230,-95.839745,14.005024,-147.42757,-2.15055,-0.30570805,-2.9107113,-5.421118,1.0660177,1.9366658,-2.009588,-0.262954,-2.562746,-4.909316,0.946567,1.866322
55,531050897,-95.80558,13.997456,-147.44531,-2.1506462,-0.30468738,-2.9110599,-5.411105,1.0737889,1.9424165,-2.045432,-0.268032,-2.611264,-4.999501,0.964463,1.898696
56,531067564,-95.77059,13.989647,-147.46843,-2.1503687,-0.3040372,-2.9106336,-5.405889,1.074049,1.9571491,-2.081271,-0.273099,-2.659775,-5.089599,0.982364,1.931315
57,531084231,-95.733894,13.981575,-147.50291,-2.1493587,-0.3040954,-2.9088254,-5.4108057,1.0599935,1.9867293,-2.117094,-0.278167,-2.708255,-5.179779,1.000031,1.964427
58,531100898,-95.69744,13.973141,-147.53674,-2.1484203,-0.3037889,-2.9069996,-5.411076,1.0475277,2.0200047,-2.152901,-0.28323,-2.756705,-5.269964,1.01749,1.998094
59,531117565,-95.66129,13.964352,-147.56906,-2.1476078,-0.30307627,-2.9052267,-5.4059057,1.0375355,2.0563784,-2.188694,-0.288281,-2.805125,-5.360062,1.034782,2.032367
60,531134232,-95.62382,13.955185,-147.61111,-2.146205,-0.30278075,-2.9022903,-5.40722,1.016123,2.1067176,-2.224464,-0.293327,-2.853497,-5.450182,1.051717,2.067479
61,531150899,-95.585396,13.945629,-147.66042,-2.1443768,-0.3026774,-2.89846,-5.411887,0.9865165,2.1689394,-2.260204,-0.298372,-2.901805,-5.54038,1.068159,2.103628
62,531167566,-95.54836,13.937103,-147.69917,-2.1433935,-0.30298924,-2.8965416,-5.4146566,0.97168404,2.2041843,-2.295927,-0.303422,-2.950081,-5.630624,1.084354,2.140364
63,531184233,-95.512764,13.92976,-147.7272,-2.14328,-0.30384028,-2.896638,-5.4165134,0.97197,2.210288,-2.331648,-0.308486,-2.998358,-5.720899,1.100554,2.177202
64,531200900,-95.47764,13.922871,-147.75148,-2.1435442,-0.3049779,-2.8975906,-5.4178705,0.97853184,2.2044528,-2.367374,-0.313569,-3.046651,-5.811197,1.116863,2.213943
65,531217567,-95.44363,13.916847,-147.76758,-2.144515,-0.3064989,-2.9001398,-5.417714,0.9972519,2.17621,-2.403116,-0.318677,-3.094987,-5.901492,1.133484,2.250213
66,531234234,-95.40893,13.910831,-147.78885,-2.1452665,-0.3084997,-2.9023256,-5.422228,1.011053,2.1511471,-2.43887,-0.323819,-3.143359,-5.991862,1.150335,2.286065
67,531250901,-95.37342,13.904762,-147.81607,-2.1457548,-0.31098032,-2.9040475,-5.431632,1.0190655,2.1306577,-2.474633,-0.329002,-3.19176,-6.082389,1.167319,2.321576
68,531267568,-95.338524,13.899437,-147.83888,-2.14672,-0.31399417,-2.9069233,-5.442121,1.0348012,2.0928566,-2.510412,-0.334235,-3.240209,-6.173091,1.184566,2.356457
69,531284235,-95.30378,13.89468,-147.8601,-2.147972,-0.3175782,-2.910544,-5.4551196,1.0546315,2.0429873,-2.546212,-0.339528,-3.288718,-6.26401,1.202143,2.390507
70,531300902,-95.26957,13.888596,-147.88199,-2.1488228,-0.319453,-2.9121728,-5.459835,1.0684357,2.0135477,-2.582026,-0.344852,-3.337254,-6.355007,1.21995,2.424066
71,531317569,-95.236015,13.881119,-147.9035,-2.1493006,-0.31942022,-2.9117446,-5.4549093,1.0768558,2.0047934,-2.617848,-0.350176,-3.385783,-6.445922,1.237898,2.457479
72,531334236,-95.20272,13.873024,-147.92563,-2.1495981,-0.3185948,-2.9102845,-5.446517,1.0822194,2.0047014,-2.653675,-0.355486,-3.434288,-6.536697,1.255935,2.490891
73,531350903,-95.16984,13.8638115,-147.94868,-2.1495495,-0.31633997,-2.907073,-5.431555,1.0821242,2.0215442,-2.689501,-0.360758,-3.482739,-6.627223,1.27397,2.524583
74,531367570,-95.13755,13.854809,-147.96881,-2.149746,-0.31400108,-2.9041204,-5.415369,1.0859425,2.0306077,-2.72533,-0.365991,-3.531141,-6.717479,1.292069,2.558426
75,531384237,-95.10586,13.846077,-147.986,-2.1502104,-0.31165707,-2.9015074,-5.3984118,1.0939512,2.0307028,-2.761167,-0.371185,-3.579499,-6.807453,1.310302,2.592271
76,531400904,-95.07476,13.836517,-148.00229,-2.150508,-0.3080734,-2.8976073,-5.375259,1.099478,2.0411725,-2.797009,-0.37632,-3.627792,-6.897041,1.328627,2.626291
77,531417571,-95.044304,13.826416,-148.01682,-2.1507645,-0.30351615,-2.8928304,-5.346968,1.1045146,2.0567725,-2.832855,-0.381379,-3.676006,-6.986157,1.347036,2.660571
78,531434238,-95.01316,13.817711,-148.0303,-2.1509953,-0.3007995,-2.8898911,-5.335433,1.1024586,2.0679865,-2.868705,-0.386392,-3.724171,-7.075081,1.36541,2.695037
79,531450905,-94.98127,13.810448,-148.04286,-2.1511517,-0.30002213,-2.8888488,-5.3420076,1.0919056,2.0762196,-2.904558,-0.391392,-3.772318,-7.164114,1.383608,2.729641
80,531467572,-94.94924,13.803902,-148.05356,-2.1513147,-0.3000139,-2.8886905,-5.356988,1.077328,2.0824335,-2.940413,-0.396392,-3.820463,-7.253397,1.401563,2.764348
81,531484239,-94.91679,13.79858,-148.0625,-2.151476,-0.30151236,-2.8901262,-5.386342,1.0566233,2.0846152,-2.976271,-0.401417,-3.868632,-7.343169,1.419173,2.799092
82,531500906,-94.88467,13.79306,-148.06975,-2.1515112,-0.3025484,-2.8911433,-5.4159784,1.0318004,2.0933483,-3.01213,-0.406459,-3.916818,-7.433435,1.43637,2.833981
83,531517573,-94.85299,13.787296,-148.07515,-2.1514235,-0.30301607,-2.8916574,-5.445188,1.003058,2.1089084,-3.047987,-0.411509,-3.965012,-7.524188,1.453088,2.869129
84,531534240,-94.82101,13.782444,-148.0787,-2.1512632,-0.30453134,-2.89329,-5.486253,0.9674252,2.124452,-3.083841,-0.416585,-4.013234,-7.615626,1.469212,2.904537
85,531550907,-94.7889,13.7782135,-148.08035,-2.151001,-0.3066815,-2.895627,-5.536352,0.9251771,2.142311,-3.119691,-0.421696,-4.061494,-7.707899,1.484632,2.940242
86,531567574,-94.75965,13.773613,-148.08191,-2.1509762,-0.307935,-2.8972416,-5.5654182,0.89718115,2.143017,-3.155541,-0.426828,-4.109781,-7.800656,1.499585,2.975959
87,531584241,-94.73344,13.768681,-148.08351,-2.1512213,-0.30834782,-2.898201,-5.5721636,0.8849171,2.1239867,-3.191395,-0.431967,-4.158084,-7.893525,1.514334,3.011359
88,531600908,-94.70902,13.763721,-148.08423,-2.1515522,-0.30837166,-2.8989148,-5.5690165,0.87856495,2.096069,-3.227254,-0.437107,-4.206399,-7.986342,1.528977,3.046293
89,531617575,-94.68717,13.758507,-148.08449,-2.1520634,-0.30763626,-2.8990436,-5.547949,0.8838285,2.0535493,-3.263122,-0.442234,-4.254716,-8.078808,1.543707,3.080519
90,531634242,-94.66607,13.753918,-148.08311,-2.1525698,-0.30745506,-2.899856,-5.529707,0.8877307,2.0058877,-3.298998,-0.447358,-4.303047,-8.17097,1.558503,3.11395
91,531650909,-94.64564,13.75,-148.08002,-2.153059,-0.30788136,-2.9014077,-5.5152774,0.8895,1.9537256,-3.334882,-0.452489,-4.351404,-8.262891,1.573328,3.146512
92,531667576,-94.627525,13.746132,-148.07617,-2.1537008,-0.30795288,-2.90279,-5.487318,0.90060335,1.8871663,-3.370777,-0.457622,-4.399784,-8.354346,1.588338,3.177965
93,531684243,-94.61141,13.7424965,-148.07138,-2.154459,-0.30795252,-2.9042792,-5.45006,0.91840035,1.8079498,-3.406685,-0.462755,-4.448189,-8.44518,1.603645,3.208097
94,531700910,-94.59409,13.738621,-148.06636,-2.1545362,-0.3079431,-2.9052396,-5.430171,0.92014116,1.7602144,-3.442594,-0.467887,-4.49661,-8.535683,1.618981,3.237434
95,531717577,-94.57554,13.73439,-148.06134,-2.1538763,-0.3078245,-2.905509,-5.4279866,0.90516216,1.746747,-3.478492,-0.473017,-4.545035,-8.626149,1.634067,3.266546
96,531734244,-94.556984,13.730179,-148.05577,-2.1528301,-0.30776525,-2.9055882,-5.4336176,0.88255185,1.7476315,-3.514373,-0.478146,-4.593461,-8.716709,1.648776,3.295673
97,531750911,-94.53767,13.725849,-148.04988,-2.1511745,-0.30775666,-2.9052682,-5.4539185,0.8463589,1.7748785,-3.550226,-0.483275,-4.641882,-8.807608,1.662882,3.325254
98,531767578,-94.519936,13.721497,-148.0435,-2.149413,-0.30751324,-2.9046907,-5.4687443,0.8128318,1.8001658,-3.58605,-0.4884,-4.690294,-8.898754,1.676429,3.355257
99,531784245,-94.5039,13.717163,-148.03659,-2.1475677,-0.30704367,-2.903884,-5.477171,0.7827699,1.8219652,-3.621843,-0.493517,-4.738692,-8.99004,1.689475,3.385623
100,531800912,-94.487755,13.712654,-148.02956,-2.1451893,-0.30647552,-2.902588,-5.495103,0.7429453,1.8649329,-3.657596,-0.498625,-4.787068,-9.081625,1.701857,3.416705
101,531817579,-94.47199,13.708,-148.02231,-2.142376,-0.3057462,-2.9008226,-5.5183096,0.69674003,1.9233365,-3.693302,-0.503721,-4.835415,-9.173597,1.713469,3.448761
102,531834246,-94.45658,13.704811,-148.01491,-2.1403236,-0.30483937,-2.9009132,-5.5305257,0.67763746,1.9674449,-3.728974,-0.508802,-4.883764,-9.265772,1.724763,3.481552
103,531850913,-94.44132,13.703236,-148.00743,-2.1390877,-0.3037542,-2.903037,-5.5320873,0.68733585,1.9977797,-3.764625,-0.513865,-4.932148,-9.357973,1.736219,3.514848
104,531867580,-94.42654,13.702496,-147.99988,-2.1381607,-0.30244625,-2.9061003,-5.527833,0.7123335,2.0248785,-3.800261,-0.518906,-4.980583,-9.450104,1.748091,3.548596
105,531884247,-94.41221,13.703064,-147.99234,-2.1378613,-0.30090296,-2.9107447,-5.5136924,0.76176465,2.0415127,-3.835892,-0.523921,-5.029095,-9.541999,1.760787,3.582621
106,531900914,-94.39782,13.703926,-147.9849,-2.1373644,-0.2991644,-2.9155555,-5.50327,0.8128502,2.071702,-3.871515,-0.528907,-5.077688,-9.63372,1.774335,3.617149
107,531917581,-94.3834,13.705036,-147.97768,-2.13663,-0.29721498,-2.920452,-5.497019,0.8647425,2.1167781,-3.907126,-0.533861,-5.126362,-9.725337,1.788747,3.652429
108,531934248,-94.36912,13.707302,-147.97064,-2.1363468,-0.29501522,-2.9267125,-5.484679,0.9369251,2.1588507,-3.942732,-0.538778,-5.175141,-9.816748,1.804362,3.68841
109,531950915,-94.35482,13.710537,-147.96391,-2.136344,-0.29256272,-2.9340525,-5.4690866,1.0249455,2.2032483,-3.978338,-0.543654,-5.224042,-9.907899,1.821444,3.725131
110,531967582,-94.32673,13.70723,-147.97084,-2.1356163,-0.29165173,-2.9378762,-5.433843,1.162538,2.290788,-4.013932,-0.548515,-5.273007,-9.998463,1.84082,3.763311
111,531984249,-94.28341,13.696758,-147.99283,-2.134159,-0.29245353,-2.9379053,-5.3760195,1.3560666,2.4237487,-4.049501,-0.553389,-5.321972,-10.088063,1.863421,3.803707
112,532000916,-94.23118,13.682526,-148.0238,-2.1323338,-0.29411876,-2.93613,-5.305155,1.5872638,2.5868654,-4.08504,-0.558291,-5.370908,-10.176482,1.889875,3.846821
113,532017583,-94.16598,13.662411,-148.06761,-2.1298847,-0.2971611,-2.931294,-5.2160864,1.8671447,2.7915707,-4.120538,-0.563244,-5.419763,-10.263417,1.920994,3.893347
114,532034250,-94.09574,13.6409645,-148.11673,-2.127573,-0.30052614,-2.9263954,-5.1153812,2.1822183,3.0101438,-4.155998,-0.568253,-5.468536,-10.348673,1.957364,3.943516
115,532050917,-94.02067,13.618355,-148.17093,-2.1254349,-0.3041674,-2.9215727,-5.0033135,2.5325422,3.2420707,-4.191422,-0.573322,-5.517229,-10.432062,1.999573,3.997551
116,532067584,-93.9331,13.590397,-148.23767,-2.1228676,-0.30907702,-2.9142175,-4.8717203,2.935605,3.5116255,-4.226803,-0.578473,-5.565799,-10.513257,2.0485,4.056078
117,532084251,-93.83428,13.557953,-148.31566,-2.1200323,-0.31505787,-2.9049253,-4.721525,3.3899593,3.8137574,-4.262137,-0.583724,-5.614214,-10.591949,2.104999,4.119641
118,532100918,-93.74517,13.530094,-148.3854,-2.1200228,-0.32054722,-2.8963642,-4.634068,3.650219,3.993465,-4.297471,-0.589066,-5.662487,-10.669183,2.165836,4.186199
119,532117585,-93.66645,13.507076,-148.44624,-2.1230822,-0.32554793,-2.888424,-4.615968,3.6952128,4.0387034,-4.332856,-0.594492,-5.710627,-10.746116,2.227423,4.253511
120,532134252,-93.58895,13.485073,-148.50682,-2.1278677,-0.3306973,-2.8801932,-4.6291647,3.6404505,4.019475,-4.36832,-0.600004,-5.75863,-10.823269,2.288097,4.320502
121,532150919,-93.51804,13.466438,-148.5621,-2.1352587,-0.3356148,-2.8722906,-4.6963925,3.416791,3.8923678,-4.403908,-0.605598,-5.806502,-10.901542,2.345044,4.385375
122,532167586,-93.43929,13.444656,-148.62576,-2.1433182,-0.34150314,-2.8624258,-4.7681694,3.1716132,3.7538905,-4.43963,-0.61129,-5.854209,-10.981011,2.397904,4.44794
123,532184253,-93.35171,13.419342,-148.6987,-2.1519814,-0.34844792,-2.8504548,-4.8419867,2.912106,3.6083155,-4.475496,-0.617097,-5.901717,-11.061711,2.446439,4.508079
124,532200920,-93.26702,13.395699,-148.76996,-2.1630096,-0.3555435,-2.838006,-4.9627886,2.5028186,3.3686185,-4.511546,-0.623023,-5.949017,-11.144424,2.488153,4.564223
125,532217587,-93.18214,13.372345,-148.84247,-2.1760454,-0.36306524,-2.8245492,-5.120925,1.9721024,3.0533748,-4.547813,-0.629074,-5.996093,-11.229773,2.521021,4.615113
126,532234254,-93.11321,13.3536,-148.8963,-2.1832771,-0.36883044,-2.8161192,-5.2263985,1.6207703,2.8257337,-4.584201,-0.635221,-6.043028,-11.31688,2.548034,4.662209
127,532250921,-93.06332,13.340561,-148.92798,-2.1841888,-0.37252128,-2.8134837,-5.276943,1.4582593,2.6888478,-4.620604,-0.64143,-6.089919,-11.404829,2.572338,4.707023
128,532267588,-93.02285,13.330269,-148.94897,-2.1822557,-0.3753612,-2.8134222,-5.3094645,1.3586214,2.57622,-4.656975,-0.647686,-6.136809,-11.49332,2.594982,4.74996
129,532284255,-92.99694,13.324181,-148.95299,-2.175333,-0.3766948,-2.8177133,-5.3007593,1.4000274,2.5294607,-4.693231,-0.653964,-6.183771,-11.581666,2.618316,4.792118
130,532300922,-92.97939,13.321144,-148.94876,-2.1684427,-0.37756467,-2.8232656,-5.3156624,1.3695599,2.4289575,-4.729372,-0.660257,-6.230825,-11.67026,2.641142,4.832601
131,532317589,-92.969826,13.321121,-148.93663,-2.161829,-0.37803304,-2.8299055,-5.3578706,1.2549626,2.2676075,-4.765402,-0.666558,-6.27799,-11.759558,2.662058,4.870394
132,532334256,-92.9764,13.3260765,-148.90645,-2.1510897,-0.37697792,-2.840795,-5.3753843,1.2289597,2.1400108,-4.801253,-0.672841,-6.325337,-11.849148,2.682541,4.906061
133,532350923,-92.99821,13.335953,-148.85948,-2.1372223,-0.37458158,-2.8553739,-5.382092,1.2461622,2.0201886,-4.836873,-0.679084,-6.372927,-11.93885,2.70331,4.939731
134,532367590,-93.00143,13.336906,-148.83237,-2.1238556,-0.373814,-2.8638058,-5.3897066,1.26659,1.9384885,-4.872271,-0.685314,-6.420657,-12.028678,2.72442,4.972039
135,532384257,-92.98438,13.328011,-148.82678,-2.1107044,-0.37477255,-2.8656387,-5.392926,1.308167,1.9094484,-4.907449,-0.69156,-6.468418,-12.11856,2.746223,5.003863
136,532400924,-92.962975,13.315918,-148.82579,-2.0966425,-0.3761313,-2.865243,-5.395505,1.359791,1.9012189,-4.942393,-0.697829,-6.516172,-12.208485,2.768886,5.03555
137,532417591,-92.92832,13.2969055,-148.83888,-2.0824556,-0.37865233,-2.860024,-5.3987308,1.4172299,1.9261376,-4.977101,-0.70414,-6.563839,-12.298464,2.792506,5.067652
138,532434258,-92.90275,13.279663,-148.84155,-2.064785,-0.38027382,-2.8566093,-5.382308,1.5488979,1.9909846,-5.011514,-0.710478,-6.611449,-12.388169,2.818321,5.100835
139,532450925,-92.8879,13.264801,-148.83202,-2.0434046,-0.38085055,-2.8554082,-5.3456926,1.7571304,2.0952218,-5.045571,-0.716826,-6.659039,-12.477264,2.847607,5.135755
140,532467592,-92.86512,13.244755,-148.83057,-2.0205688,-0.3820461,-2.850892,-5.2993784,2.0069165,2.247992,-5.079247,-0.723193,-6.706554,-12.565587,2.881056,5.173222
141,532484259,-92.8393,13.221371,-148.8318,-1.9954777,-0.3834046,-2.8444676,-5.238497,2.3149962,2.4524002,-5.112505,-0.729583,-6.753962,-12.652895,2.919639,5.214095
142,532500926,-92.81007,13.200024,-148.83995,-1.9822521,-0.3848114,-2.8390412,-5.184907,2.5336328,2.5861535,-5.145543,-0.735997,-6.801279,-12.73931,2.961866,5.257198
143,532517593,-92.775,13.180233,-148.858,-1.9825153,-0.3864553,-2.8341818,-5.1410046,2.6474447,2.6409771,-5.178585,-0.742438,-6.848515,-12.824993,3.00599,5.301214
144,532534260,-92.73756,13.160622,-148.88033,-1.9890223,-0.38807738,-2.829432,-5.092393,2.7400918,2.6787543,-5.211735,-0.748906,-6.895672,-12.909866,3.051658,5.34586
145,532550927,-92.6968,13.142357,-148.909,-2.0058784,-0.38970482,-2.8253808,-5.0448685,2.7707071,2.6669462,-5.245166,-0.755401,-6.942762,-12.993947,3.097836,5.390309
146,532567594,-92.648186,13.120319,-148.94682,-2.0254498,-0.39181566,-2.8188915,-4.9877844,2.8181815,2.680698,-5.278923,-0.761931,-6.989744,-13.077077,3.144806,5.434987
147,532584261,-92.59159,13.094246,-148.99374,-2.0473318,-0.3944105,-2.8098311,-4.9194202,2.8901062,2.7261786,-5.313045,-0.768505,-7.036575,-13.159067,3.192974,5.480423
148,532600928,-92.52813,13.067574,-149.05066,-2.0790606,-0.3972969,-2.800189,-4.8497877,2.9118867,2.7383091,-5.347696,-0.775127,-7.083245,-13.239897,3.241505,5.526061
149,532617595,-92.45652,13.03915,-149.11847,-2.1192274,-0.4005903,-2.7892404,-4.7762127,2.9004426,2.7335079,-5.383016,-0.781804,-7.129732,-13.319501,3.289846,5.571619
150,532634262,-92.39495,13.0102005,-149.16914,-2.1439314,-0.40169275,-2.7814326,-4.7116613,2.9342813,2.7357998,-5.418748,-0.788499,-7.176089,-13.398029,3.338751,5.617216
151,532650929,-92.3449,12.981148,-149.20053,-2.1520033,-0.4003489,-2.7773619,-4.658677,3.010541,2.739035,-5.454615,-0.795171,-7.222378,-13.475674,3.388927,5.662867
152,532667596,-92.2965,12.950489,-149.227,-2.1539917,-0.39787912,-2.7743769,-4.609233,3.1027627,2.74272,-5.490515,-0.801802,-7.268618,-13.552495,3.44064,5.708579
153,532684263,-92.254616,12.91861,-149.24095,-2.1435452,-0.3935492,-2.7737598,-4.567472,3.2294087,2.7507963,-5.526241,-0.808361,-7.314847,-13.62862,3.494463,5.754426
154,532700930,-92.20869,12.885548,-149.25941,-2.1366863,-0.38881814,-2.773396,-4.527941,3.3260617,2.7330248,-5.561852,-0.814841,-7.36107,-13.704086,3.549897,5.799976
155,532717597,-92.15763,12.851135,-149.28368,-2.1343498,-0.38377678,-2.7730799,-4.490306,3.3890624,2.6881196,-5.597424,-0.821237,-7.407288,-13.778924,3.606381,5.844778
156,532734264,-92.11088,12.81562,-149.29883,-2.1230612,-0.37704384,-2.7750049,-4.4611835,3.4653177,2.6334903,-5.632808,-0.827521,-7.453538,-13.853277,3.664136,5.88867
157,532750931,-92.06603,12.778973,-149.30849,-2.1061754,-0.3689052,-2.7787437,-4.4397235,3.5403347,2.5618875,-5.667911,-0.833669,-7.49985,-13.927272,3.723142,5.931368
158,532767598,-92.01243,12.745186,-149.32849,-2.096962,-0.36549675,-2.777141,-4.431763,3.5678363,2.5580919,-5.70286,-0.839761,-7.546136,-14.001135,3.782606,5.974003
159,532784265,-91.95017,12.714706,-149.35837,-2.094964,-0.36722958,-2.769824,-4.4392624,3.5477924,2.6315238,-5.737776,-0.845881,-7.5923,-14.075123,3.841736,6.017862
160,532800932,-91.88273,12.685616,-149.39308,-2.096078,-0.3713839,-2.759922,-4.4593883,3.4912095,2.7364957,-5.772711,-0.852071,-7.638299,-14.149446,3.899923,6.06347
161,532817599,-91.807396,12.659119,-149.43643,-2.1035032,-0.37965024,-2.7455153,-4.494567,3.3855467,2.897145,-5.807769,-0.858399,-7.684058,-14.224355,3.956349,6.111756
162,532834266,-91.73261,12.632881,-149.47557,-2.1059828,-0.38810968,-2.731317,-4.543725,3.268371,3.0682151,-5.842869,-0.864867,-7.72958,-14.300084,4.010822,6.162893
163,532850933,-91.6587,12.6068535,-149.5099,-2.1030111,-0.39657915,-2.7175794,-4.60743,3.1394863,3.2464218,-5.877919,-0.871477,-7.774873,-14.376874,4.063147,6.217
164,532867600,-91.579155,12.583263,-149.54904,-2.102829,-0.40851164,-2.7002811,-4.688917,2.9685717,3.4757829,-5.912966,-0.878286,-7.819878,-14.455023,4.112623,6.27493
165,532884267,-91.49572,12.56171,-149.59016,-2.1029816,-0.42313492,-2.6803856,-4.7886553,2.7623634,3.7473621,-5.948016,-0.885338,-7.864551,-14.534834,4.158662,6.337386
166,532900934,-91.42695,12.544369,-149.62267,-2.0969791,-0.43457496,-2.6671443,-4.8833437,2.5828571,3.8981295,-5.982966,-0.892581,-7.909003,-14.616223,4.20171,6.402355
167,532917601,-91.37391,12.531864,-149.6465,-2.0850449,-0.44274795,-2.6609411,-4.9717884,2.431754,3.9184132,-6.017717,-0.89996,-7.953352,-14.699086,4.242239,6.467662
168,532934268,-91.329155,12.5230255,-149.66473,-2.0684776,-0.44996977,-2.6580348,-5.06597,2.283465,3.8797913,-6.052192,-0.907459,-7.997653,-14.783519,4.280297,6.532325
169,532950935,-91.29778,12.518654,-149.67458,-2.0456018,-0.45474648,-2.6608992,-5.1599207,2.1540406,3.737935,-6.086285,-0.915038,-8.042001,-14.869518,4.316198,6.594624
170,532967602,-91.26736,12.518238,-149.68452,-2.022212,-0.4614563,-2.6631174,-5.26898,1.9979032,3.5989063,-6.119989,-0.922729,-8.086386,-14.957334,4.349496,6.654606
171,532984269,-91.23756,12.521893,-149.69473,-1.9983225,-0.4703431,-2.6644082,-5.3946333,1.81241,3.4679894,-6.153294,-0.930568,-8.130793,-15.047245,4.379703,6.712406
172,533000936,-91.21911,12.530746,-149.69844,-1.9695444,-0.47796774,-2.6701393,-5.5243635,1.6338893,3.2533145,-6.18612,-0.938534,-8.175295,-15.139318,4.406934,6.766628
173,533017603,-91.20966,12.544876,-149.69728,-1.9369831,-0.48527563,-2.6790152,-5.6617603,1.4525167,2.9761748,-6.218403,-0.946622,-8.219945,-15.233681,4.431143,6.816231
174,533034270,-91.17803,12.540985,-149.70808,-1.9122715,-0.49602532,-2.683782,-5.6228285,1.4983232,2.7917433,-6.250274,-0.954889,-8.264675,-15.327395,4.456115,6.86276
175,533050937,-91.12267,12.51704,-149.73163,-1.8960047,-0.5101887,-2.6844482,-5.387231,1.79946,2.702588,-6.281874,-0.963392,-8.309416,-15.417182,4.486106,6.907803
176,533067604,-91.05688,12.484192,-149.76099,-1.8833952,-0.52665055,-2.6836276,-5.04358,2.241815,2.648548,-6.313264,-0.97217,-8.354143,-15.501242,4.52347,6.951945
177,533084271,-90.97228,12.435909,-149.80069,-1.8776054,-0.546378,-2.6794977,-4.537909,2.8938246,2.6694372,-6.344557,-0.981276,-8.398801,-15.576874,4.5717,6.996436
178,533100938,-90.8901,12.386097,-149.83907,-1.8706083,-0.5663353,-2.6777458,-3.9727154,3.6332855,2.6500676,-6.375734,-0.990715,-8.44343,-15.643086,4.632255,7.040604
179,533117605,-90.81135,12.335495,-149.87556,-1.8620653,-0.5864469,-2.6786504,-3.3517118,4.455911,2.5845184,-6.406768,-1.000489,-8.488074,-15.698948,4.70652,7.083679
180,533134272,-90.71819,12.271328,-149.91998,-1.8587732,-0.60907376,-2.6778479,-2.574101,5.4860845,2.5640562,-6.437748,-1.01064,-8.532705,-15.74185,4.797955,7.126413
181,533150939,-90.61492,12.196308,-149.96996,-1.8591337,-0.63360834,-2.6765575,-1.6579185,6.703003,2.564192,-6.468734,-1.0212,-8.577314,-15.769482,4.909672,7.16915
182,533167606,-90.519585,12.135021,-149.98863,-1.8804884,-0.6383172,-2.671895,-0.9829922,7.2414556,2.4629269,-6.500075,-1.031839,-8.621846,-15.785865,5.030363,7.210199
183,533184273,-90.4316,12.08799,-149.9736,-1.9256029,-0.6212759,-2.6630468,-0.5705786,7.0352416,2.259085,-6.532168,-1.042194,-8.66623,-15.795375,5.147617,7.24785
184,533200940,-90.3451,12.045147,-149.94064,-1.9854364,-0.5922674,-2.6521964,-0.25024843,6.4817104,1.9934773,-6.565259,-1.052065,-8.710433,-15.799546,5.255646,7.281075
185,533217607,-90.26441,12.012802,-149.87956,-2.0654306,-0.5450715,-2.6383514,-0.12404299,5.3401537,1.634258,-6.599683,-1.06115,-8.754406,-15.801613,5.344649,7.308313
186,533234274,-90.17416,11.973072,-149.81425,-2.1576366,-0.4928106,-2.6220288,0.058275223,4.1471047,1.2753983,-6.635644,-1.069364,-8.798106,-15.800642,5.413767,7.32957
187,533250941,-90.0736,11.9249115,-149.74568,-2.2619267,-0.43594563,-2.6032906,0.311131,2.9290109,0.9198106,-6.673343,-1.07663,-8.841494,-15.795456,5.462584,7.3449
188,533267608,-89.97384,11.882523,-149.6528,-2.3874722,-0.36226594,-2.5809178,0.4211812,1.2040722,0.49277508,-6.713134,-1.082668,-8.884509,-15.788436,5.482652,7.353113
189,533284275,-89.87148,11.842056,-149.54024,-2.5331612,-0.27417457,-2.5549207,0.44024897,-0.92266774,0.013177991,-6.755353,-1.087238,-8.927091,-15.781099,5.467274,7.353333
190,533300942,-89.790215,11.820976,-149.4376,-2.614797,-0.22528565,-2.5400767,0.47175646,-2.243979,-0.16693914,-6.798933,-1.090993,-8.969426,-15.773236,5.429874,7.350551
191,533317609,-89.73356,11.822811,-149.34474,-2.6256495,-0.21908176,-2.537572,0.49667406,-2.7097306,-0.021411657,-6.842694,-1.094644,-9.011719,-15.764958,5.384712,7.350194
192,533334276,-89.68803,11.836807,-149.25024,-2.6050706,-0.23161602,-2.5403528,0.49849367,-2.8271265,0.29680228,-6.886112,-1.098504,-9.054058,-15.75665,5.337593,7.355141
193,533350943,-89.6607,11.868595,-149.16139,-2.5295815,-0.27757192,-2.5525174,0.49608088,-2.2760372,0.8865808,-6.928272,-1.10313,-9.0966,-15.748382,5.299659,7.369917
194,533367610,-89.6408,11.911823,-149.05495,-2.450747,-0.32240212,-2.565123,0.37148333,-1.8897141,1.5249121,-6.969118,-1.108503,-9.139352,-15.742191,5.268164,7.395332
195,533384277,-89.62763,11.96619,-148.92944,-2.3712225,-0.36436188,-2.577662,0.11781025,-1.711429,2.2034974,-7.008638,-1.114576,-9.182313,-15.740227,5.23964,7.432057
196,533400944,-89.633156,12.040245,-148.80238,-2.2444048,-0.43362832,-2.5982194,-0.1941719,-1.0485742,3.1227205,-7.046045,-1.121803,-9.225617,-15.743463,5.222164,7.484102
197,533417611,-89.655495,12.133163,-148.66853,-2.0804138,-0.52329016,-2.6250162,-0.59335566,-0.07373449,4.2404156,-7.080719,-1.130525,-9.269367,-15.753352,5.220935,7.554776
198,533434278,-89.63099,12.208103,-148.5946,-1.9810381,-0.5880532,-2.6330652,-1.028717,0.3955012,5.009386,-7.113736,-1.140326,-9.313251,-15.770497,5.227527,7.638266
199,533450945,-89.555336,12.26318,-148.58932,-1.9495659,-0.62770474,-2.6210265,-1.4919333,0.36899516,5.405132,-7.146229,-1.150788,-9.356935,-15.795363,5.233677,7.728352
200,533467612,-89.457695,12.315838,-148.61778,-1.9439011,-0.659446,-2.5995913,-2.0311456,0.12127652,5.661922,-7.178627,-1.161779,-9.400262,-15.829215,5.235698,7.822717
201,533484279,-89.3207,12.356422,-148.6998,-1.9906301,-0.6718925,-2.5619974,-2.633565,-0.55123734,5.6343412,-7.211804,-1.172977,-9.442962,-15.873108,5.226511,7.916623
202,533500946,-89.18462,12.409157,-148.80147,-2.0177631,-0.6996683,-2.5248828,-3.3159723,-0.9897847,5.6972303,-7.245433,-1.184638,-9.485043,-15.928374,5.210015,8.011577
203,533517613,-89.051704,12.475853,-148.92114,-2.021388,-0.7446635,-2.4890442,-4.0859327,-1.1651444,5.8708787,-7.279123,-1.197049,-9.526527,-15.996473,5.190596,8.109425
204,533534280,-88.88654,12.536243,-149.09415,-2.0601625,-0.7800901,-2.440247,-4.926229,-1.5769475,5.8426023,-7.313459,-1.210051,-9.567198,-16.078577,5.164314,8.206802
205,533550947,-88.69729,12.595661,-149.31456,-2.118907,-0.8134656,-2.3818417,-5.8435254,-2.0843825,5.69033,-7.348774,-1.223609,-9.606895,-16.175969,5.129574,8.301641
206,533567614,-88.64901,12.682922,-149.38803,-2.177497,-0.8107369,-2.3574562,-6.7420735,-2.904241,5.3547297,-7.385066,-1.237121,-9.646186,-16.288337,5.08117,8.390886
207,533584281,-88.753456,12.798416,-149.30098,-2.2414894,-0.76525235,-2.3695354,-7.611333,-4.117448,4.7872906,-7.422424,-1.249875,-9.685678,-16.415193,5.012546,8.470674
208,533600948,-88.938255,12.932209,-149.14227,-2.3104868,-0.69809234,-2.3996515,-8.502653,-5.52682,4.0644846,-7.460932,-1.26151,-9.725672,-16.556904,4.920432,8.538415
209,533617615,-89.249306,13.091858,-148.85841,-2.3812714,-0.5984179,-2.4597054,-9.388734,-7.2125993,3.1534429,-7.50062,-1.271484,-9.766667,-16.713383,4.800222,8.590972
210,533634282,-89.58219,13.255726,-148.57217,-2.4810963,-0.47887623,-2.5206518,-10.32495,-9.181842,2.0023677,-7.541972,-1.279465,-9.808678,-16.885466,4.647191,8.624345
211,533650949,-89.93252,13.423122,-148.29005,-2.611075,-0.34019947,-2.5812268,-11.315361,-11.429403,0.6064187,-7.58549,-1.285135,-9.851698,-17.074055,4.456701,8.634452
212,533667616,-90.393654,13.6114235,-147.9037,-2.7557812,-0.16583693,-2.6664429,-12.308201,-14.0309105,-1.0459954,-7.63142,-1.287899,-9.896139,-17.279192,4.222852,8.617019
213,533684283,-90.94546,13.816307,-147.43764,-2.9217658,0.042445302,-2.7705474,-13.314746,-16.996887,-2.9748816,-7.680116,-1.287192,-9.942315,-17.501104,3.939571,8.567438
214,533700950,-91.39983,14.01194,-147.00436,-2.9753785,0.12838137,-2.859569,-13.681498,-18.624125,-4.3462505,-7.729706,-1.285052,-9.989974,-17.729129,3.629169,8.495
215,533717617,-91.751884,14.198059,-146.59933,-2.902318,0.079491735,-2.9336948,-13.333273,-18.764303,-5.0891457,-7.778078,-1.283727,-10.038869,-17.95135,3.316431,8.410181
216,533734284,-92.07905,14.384083,-146.18394,-2.7705636,-0.031010985,-3.0055184,-12.581869,-18.235165,-5.6187196,-7.824254,-1.284244,-10.088961,-18.161048,3.012512,8.316536
217,533750951,-92.33271,14.5634,-145.78433,-2.5417366,-0.24665844,-3.0666409,-11.233561,-16.558622,-5.704023,-7.866616,-1.288355,-10.140072,-18.348274,2.736535,8.221469
218,533767618,-92.64878,14.755806,-145.30492,-2.2894678,-0.4721352,-3.1438222,-9.647677,-14.744061,-5.8401885,-7.904774,-1.296224,-10.192469,-18.509069,2.490801,8.124133
219,533784285,-93.0351,14.962193,-144.73964,-2.0178785,-0.7024789,-3.2385716,-7.834792,-12.845467,-6.0597467,-7.938405,-1.307932,-10.246445,-18.639649,2.27671,8.023137
220,533800952,-93.3827,15.167007,-144.15683,-1.6556616,-1.0239251,-3.3306088,-5.435807,-9.933054,-5.912991,-7.965999,-1.324997,-10.301955,-18.730246,2.111159,7.924587
221,533817619,-93.72077,15.374432,-143.53438,-1.2167387,-1.4177649,-3.4258318,-2.5117555,-6.203282,-5.5005655,-7.986278,-1.348626,-10.359052,-18.772109,2.007771,7.832911
222,533834286,-93.99714,15.481281,-143.0678,-0.96218777,-1.6335258,-3.4940238,-0.59275293,-2.9321036,-5.30855,-8.002314,-1.375851,-10.417286,-18.781988,1.958903,7.744435
223,533850953,-94.19282,15.475006,-142.7835,-0.90699005,-1.6587372,-3.5298147,0.229218,-0.10436183,-5.319628,-8.017431,-1.403497,-10.476116,-18.778168,1.957164,7.655775
224,533867620,-94.35166,15.406544,-142.5735,-0.9357414,-1.6003184,-3.5514894,0.64819384,2.77279,-5.3642883,-8.033027,-1.430169,-10.535307,-18.767365,2.003377,7.56637
225,533884287,-94.45402,15.245201,-142.49556,-1.1190434,-1.3909848,-3.5496545,0.25078726,5.391484,-5.556294,-8.051678,-1.453352,-10.594468,-18.763185,2.093235,7.473765
226,533900954,-94.501335,15.045799,-142.45319,-1.2857571,-1.1994517,-3.536574,0.033003807,8.75803,-5.490791,-8.073107,-1.473343,-10.653411,-18.762635,2.239202,7.382252
227,533917621,-94.493996,14.810207,-142.44026,-1.4268303,-1.0341527,-3.513039,0.052206516,12.939479,-5.142606,-8.096888,-1.490579,-10.711962,-18.761765,2.45486,7.296542
228,533934288,-94.4116,14.482605,-142.55765,-1.6893377,-0.75219893,-3.4641728,-0.54820395,17.186495,-4.803641,-8.125044,-1.503116,-10.769698,-18.770902,2.741302,7.216481
229,533950955,-94.25173,14.0722885,-142.78777,-2.0384579,-0.38796163,-3.3919067,-1.5630836,21.728537,-4.38116,-8.159018,-1.509582,-10.82623,-18.796953,3.103444,7.143462
230,533967622,-94.07937,13.643906,-143.46034,-2.233282,-0.16823518,-3.3239307,-1.7613053,25.848461,-4.207448,-8.196239,-1.512386,-10.881629,-18.826308,3.534252,7.073338
231,533984289,-93.8941,13.193829,-144.62733,-2.2700253,-0.09624112,-3.260055,-1.1369867,29.396032,-4.344605,-8.234073,-1.51399,-10.935963,-18.845258,4.024186,7.000928
232,534000956,-93.66009,12.694942,-146.12767,-2.2405424,-0.08667767,-3.1875997,-0.14121723,32.87539,-4.5678716,-8.271415,-1.515435,-10.98909,-18.847612,4.572109,6.924797
233,534017623,-93.3915,12.16098,-148.06613,-2.082899,-0.19785225,-3.1130128,1.5379844,36.06195,-4.9785466,-8.30613,-1.518733,-11.040974,-18.821979,5.173142,6.841821
234,534034290,-93.04136,11.536251,-150.28581,-1.9764614,-0.25968444,-3.0153904,2.958448,39.19333,-5.452768,-8.339071,-1.523061,-11.091231,-18.772672,5.826364,6.750942
235,534050957,-92.60284,10.815056,-152.7875,-1.9299793,-0.26412284,-2.892692,4.074763,42.300507,-5.9753194,-8.371237,-1.527463,-11.139443,-18.704759,6.531372,6.651353
236,534067624,-92.10902,10.0345955,-155.75114,-1.8011913,-0.34576786,-2.7602243,5.620766,45.05911,-6.699639,-8.401257,-1.533226,-11.185447,-18.61108,7.282357,6.539692
237,534084291,-91.54681,9.180454,-159.1565,-1.6279478,-0.46881616,-2.6128254,7.3959413,47.509804,-7.602731,-8.428389,-1.54104,-11.228994,-18.487814,8.074187,6.41298
238,534100958,-90.9511,8.378956,-159.23026,-1.5226793,-0.5126369,-2.456891,8.551762,49.390587,-7.928558,-8.453767,-1.549584,-11.269942,-18.345285,8.897363,6.280837
239,534117625,-90.32697,7.645035,-155.62302,-1.4790134,-0.4818101,-2.2943401,9.090446,50.60807,-7.6285596,-8.478417,-1.557614,-11.308181,-18.193778,9.740831,6.153694
240,534134292,-89.646675,6.9074173,-150.10078,-1.4692135,-0.40929317,-2.1180668,9.274532,51.291294,-7.04859,-8.502904,-1.564436,-11.343482,-18.039202,10.595686,6.036217
241,534150959,-88.91944,6.2020645,-141.58574,-1.5201006,-0.26557803,-1.9299903,8.884876,51.328583,-5.9832478,-8.528239,-1.568862,-11.375649,-17.891121,11.451162,5.936496
242,534167626,-88.12907,5.462265,-132.3061,-1.5292025,-0.15592146,-1.7293174,8.60095,50.76761,-4.9112234,-8.553726,-1.571461,-11.404471,-17.747772,12.297289,5.854642
243,534184293,-87.27157,4.6823425,-122.356224,-1.4931917,-0.083791256,-1.5151536,8.441509,49.5815,-3.8595023,-8.578613,-1.572858,-11.429724,-17.60708,13.123647,5.790317
244,534200960,-86.362144,3.9273071,-109.64858,-1.485445,0.028169394,-1.2894216,7.876393,47.621338,-2.4096437,-8.60337,-1.572389,-11.451214,-17.475807,13.917336,5.750156
245,534217627,-85.39596,3.1835403,-94.59804,-1.4840841,0.15775323,-1.0516751,7.042398,44.864708,-0.6589042,-8.628105,-1.56976,-11.468742,-17.358434,14.665081,5.739174
246,534234294,-84.38865,2.503769,-75.09064,-1.470336,0.22829783,-0.8516214,6.112148,42.686047,0.81302106,-8.652611,-1.565955,-11.482936,-17.256565,15.376515,5.752724
247,534250961,-83.34313,1.9036407,-50.56366,-1.4502316,0.24080408,-0.69462156,5.0334573,41.17099,2.0072248,-8.676782,-1.561942,-11.494513,-17.172674,16.062698,5.786178
248,534267628,-82.24804,1.3510513,-22.202818,-1.4172859,0.21599734,-0.5570357,3.8106837,39.62568,3.1374788,-8.700403,-1.558342,-11.503797,-17.109163,16.723126,5.838469
249,534284295,-81.10798,0.8657913,10.765167,-1.3679934,0.13403869,-0.45342207,2.4692626,38.412342,4.0591946,-8.723203,-1.556108,-11.511354,-17.068009,17.363332,5.906122
250,534300962,-79.91578,0.4358368,47.78138,-1.3323765,0.059564114,-0.3553915,0.75727797,36.651157,5.222316,-8.745409,-1.555115,-11.517277,-17.055388,17.974185,5.993161
251,534317629,-78.67025,0.062950134,88.92233,-1.3099833,-0.006223798,-0.26193452,-1.337872,34.267296,6.650755,-8.767242,-1.555219,-11.521643,-17.077686,18.545307,6.104007
252,534334296,-77.37908,-0.2262497,135.26956,-1.2830067,-0.113058686,-0.20060134,-3.678574,32.00359,7.999576,-8.788625,-1.557103,-11.524986,-17.138996,19.0787,6.237333
253,534350963,-76.040565,-0.4304886,186.85667,-1.2576199,-0.24814057,-0.16635156,-6.327402,29.663483,9.366577,-8.809585,-1.561239,-11.527759,-17.244453,19.573091,6.393443
254,534367630,-74.844765,-0.6507263,222.28072,-1.2291975,-0.34535134,-0.12028074,-8.017125,27.225996,10.412405,-8.830072,-1.566995,-11.529764,-17.378072,20.026858,6.566983
255,534384297,-73.81237,-0.8890686,239.665,-1.1957645,-0.40449214,-0.06319666,-8.614941,24.781973,11.062171,-8.850001,-1.573737,-11.530817,-17.521654,20.439891,6.751353
256,534400964,-72.85349,-1.0927963,249.2177,-1.1639385,-0.4486313,-0.011217356,-8.76753,22.207434,11.542034,-8.8694,-1.581214,-11.531004,-17.66778,20.810015,6.94372
257,534417631,-72.02395,-1.285965,244.91225,-1.1322641,-0.4608786,0.04469037,-8.112838,19.526493,11.741786,-8.888271,-1.588895,-11.530259,-17.802994,21.135457,7.139416
258,534434298,-71.216774,-1.3974457,239.53307,-1.09832,-0.49380434,0.07331729,-7.3543367,16.932127,11.767773,-8.906576,-1.597125,-11.529037,-17.925566,21.417659,7.335546
259,534450965,-70.42855,-1.4189148,233.7383,-1.0627918,-0.5496533,0.07204151,-6.5333815,14.427323,11.628133,-8.924289,-1.606286,-11.527836,-18.034456,21.658114,7.529348
260,534467632,-69.76418,-1.4040527,215.7639,-1.0257053,-0.5877998,0.06333542,-4.9743533,11.948948,11.165276,-8.941384,-1.616083,-11.52678,-18.117362,21.857263,7.715436
261,534484299,-69.20501,-1.3347931,188.08618,-0.9867115,-0.6193236,0.03967142,-2.812132,9.547494,10.392404,-8.957829,-1.626405,-11.526119,-18.164231,22.016388,7.888643
262,534500966,-68.598564,-1.3174744,173.08182,-0.9579382,-0.6560439,0.03031969,-1.6177769,7.846056,9.698671,-8.973795,-1.637339,-11.525614,-18.191194,22.147156,8.050288
263,534517633,-67.94779,-1.3674545,171.19415,-0.94047356,-0.69419396,0.04018879,-1.4421582,6.919979,9.087793,-8.98947,-1.648909,-11.524944,-18.21523,22.262489,8.201751
264,534534300,-67.316826,-1.420372,173.25882,-0.9283762,-0.7355983,0.049678326,-1.61761,6.5272903,8.372336,-9.004943,-1.661169,-11.524116,-18.24219,22.371277,8.34129
265,534550967,-66.67028,-1.5073547,184.98123,-0.9250488,-0.78212476,0.067441225,-2.5516777,6.863302,7.6449814,-9.02036,-1.674204,-11.522992,-18.284718,22.485665,8.468706
266,534567634,-66.13004,-1.5769272,190.04274,-0.9238272,-0.8160875,0.08119941,-3.1422634,7.570548,6.625761,-9.035757,-1.687805,-11.521639,-18.337089,22.611841,8.579135
267,534584301,-65.70655,-1.6241379,187.46527,-0.9243479,-0.83707,0.089346886,-3.3232665,8.659162,5.286268,-9.051163,-1.701756,-11.52015,-18.392477,22.75616,8.667239
268,534600968,-65.31211,-1.7024384,190.17719,-0.93296814,-0.85502076,0.10565376,-3.9902303,10.499015,3.8374119,-9.066712,-1.716006,-11.518389,-18.458981,22.931144,8.731196
269,534617635,-64.976234,-1.8014679,194.63266,-0.9484196,-0.8658469,0.1275729,-4.9069843,13.042586,2.2103665,-9.082519,-1.730437,-11.516263,-18.540764,23.14852,8.768035
270,534634302,-64.603065,-1.8823318,196.18257,-0.9646282,-0.85913014,0.14926791,-5.4488535,14.288045,1.177683,-9.098596,-1.744756,-11.513775,-18.631578,23.386654,8.787663
271,534650969,-64.17536,-1.9498825,195.91055,-0.9820175,-0.83423805,0.17247713,-5.6652145,14.106544,0.8375303,-9.114963,-1.75866,-11.5109,-18.725998,23.621763,8.801622
272,534667636,-63.761314,-2.017128,193.57921,-1.002799,-0.79269314,0.19865727,-5.6921587,13.433386,0.7746508,-9.131676,-1.771872,-11.507589,-18.820867,23.845653,8.814533
273,534684303,-63.33255,-2.0767746,188.31384,-1.0256834,-0.7311778,0.22719467,-5.385621,11.727183,1.2160064,-9.148771,-1.784058,-11.503802,-18.910627,24.041106,8.8348
274,534700970,-62.92681,-2.166298,186.07112,-1.0560675,-0.6577369,0.26517808,-5.3370485,10.278492,1.760002,-9.166372,-1.79502,-11.499382,-18.999578,24.212414,8.864133
275,534717637,-62.550133,-2.2892838,186.94847,-1.0944166,-0.5717045,0.31347585,-5.565632,9.168026,2.3826833,-9.184612,-1.804548,-11.494157,-19.092339,24.365214,8.903844
276,534734304,-62.158882,-2.4226456,187.33366,-1.1371126,-0.4656341,0.36860347,-5.659011,7.2825656,3.4905653,-9.203564,-1.812309,-11.488014,-19.186656,24.48659,8.96202
277,534750971,-61.761368,-2.57621,188.54245,-1.1855068,-0.3404857,0.43265986,-5.745097,4.8909583,5.009527,-9.223322,-1.817984,-11.480803,-19.282408,24.568106,9.045512
278,534767638,-61.508095,-2.6215515,188.9613,-1.1713724,-0.28015554,0.5114025,-5.6137857,2.6400318,6.451168,-9.242845,-1.822653,-11.47228,-19.375971,24.612107,9.153031
279,534784305,-61.407295,-2.5447235,188.165,-1.0874643,-0.29170585,0.60568285,-5.201521,0.4408912,7.8359632,-9.260969,-1.827515,-11.462185,-19.462663,24.619455,9.28363
280,534800972,-61.393044,-2.4144287,187.91888,-0.96678543,-0.33584714,0.7148751,-4.6980352,-1.8434833,9.360285,-9.277082,-1.833112,-11.45027,-19.540964,24.58873,9.439635
281,534817639,-61.505898,-2.194168,187.76968,-0.789505,-0.43615973,0.84111345,-4.0335107,-4.083941,10.915503,-9.29024,-1.840381,-11.436251,-19.608189,24.520664,9.62156
282,534834306,-61.648567,-1.954483,187.76541,-0.5940304,-0.5414251,0.98116493,-3.2225223,-6.954547,12.9073925,-9.300141,-1.849405,-11.419898,-19.661898,24.404755,9.836683
283,534850973,-61.816032,-1.7004471,188.12851,-0.38193893,-0.6491146,1.1357772,-2.277093,-10.49358,15.371836,-9.306507,-1.860224,-11.400968,-19.69985,24.229862,10.09288
284,534867640,-62.092316,-1.3645706,188.48822,-0.115953445,-0.8058567,1.3089658,-1.1255693,-14.274581,18.02672,-9.30844,-1.873655,-11.379152,-19.718609,23.991952,10.393325
285,534884307,-62.457718,-0.9609146,188.92578,0.19699478,-1.0017142,1.5007612,0.23168516,-18.458776,20.972382,-9.305157,-1.89035,-11.354139,-19.714748,23.684306,10.742865
286,534900974,-62.763367,-0.47668457,189.33064,0.38812542,-1.1171429,1.55089,0.6353717,-22.245667,23.630245,-9.298688,-1.908969,-11.328291,-19.704158,23.313545,11.136702
287,534917641,-63.006134,0.10014343,189.64388,0.4465065,-1.1471441,1.4440339,-0.014482975,-25.526848,25.920435,-9.291246,-1.928088,-11.304224,-19.704399,22.888098,11.568709
288,534934308,-63.243973,0.7560501,189.99948,0.44805717,-1.1423385,1.255843,-1.1686192,-28.807579,28.194883,-9.283778,-1.947127,-11.283293,-19.723876,22.407972,12.038624
289,534950975,-63.438354,1.4994583,190.35036,0.3466568,-1.0710678,0.9403751,-3.1529922,-31.860723,30.286446,-9.278,-1.964978,-11.26762,-19.776426,21.87696,12.543398
290,534967642,-63.698387,2.3424072,190.78036,0.2507906,-1.0156567,0.59157896,-5.2808814,-35.061066,32.474808,-9.27382,-1.981906,-11.25776,-19.864441,21.292609,13.084645
291,534984309,-64.02947,3.287712,191.30623,0.1661253,-0.98050356,0.21345568,-7.5179067,-38.45449,34.788563,-9.271051,-1.998248,-11.254202,-19.989739,20.651701,13.664454
292,535000976,-64.344215,4.339653,191.84277,-0.0020103455,-0.89720917,-0.28252864,-10.498239,-41.65756,36.940903,-9.271085,-2.013201,-11.258911,-20.16471,19.957408,14.280136
293,535017643,-64.66552,5.504051,192.4122,-0.23179531,-0.78289676,-0.87894344,-14.089752,-44.75172,38.989433,-9.274948,-2.026249,-11.27356,-20.399539,19.211546,14.92996
294,535034310,-65.06303,6.366295,192.87334,-0.4830618,-0.67493916,-1.2146196,-16.371809,-44.492466,38.398045,-9.282999,-2.037498,-11.293804,-20.672402,18.470005,15.569927
295,535050977,-65.53269,6.8883743,193.2012,-0.76554775,-0.5679493,-1.2671099,-17.247808,-40.486732,34.859364,-9.295758,-2.046964,-11.314922,-20.959865,17.795226,16.150916
296,535067644,-66.05686,7.271805,193.47812,-1.0853767,-0.45520067,-1.1970356,-17.547436,-34.298645,29.589514,-9.313848,-2.054551,-11.334873,-21.252322,17.223582,16.644075
297,535084311,-66.652,7.399536,193.6597,-1.4364519,-0.34420812,-0.9059329,-16.755732,-24.957941,21.82904,-9.337789,-2.060288,-11.349972,-21.531584,16.807616,17.007892
298,535100978,-67.25472,7.515274,193.81096,-1.8688879,-0.19484735,-0.62810135,-16.162472,-14.22232,12.949855,-9.368937,-2.063535,-11.36044,-21.800959,16.570577,17.223723
299,535117645,-67.862755,7.6321716,193.93529,-2.3865294,-0.0051385164,-0.37556005,-15.83519,-2.1403494,2.9873042,-9.408712,-2.063621,-11.366699,-22.064879,16.534905,17.273511
300,535134312,-68.52128,7.52404,193.95853,-2.9616842,0.19954789,0.05510831,-14.682358,13.069605,-9.452435,-9.458073,-2.060295,-11.365781,-22.309585,16.752732,17.11597
301,535150979,-69.216606,7.2381287,193.89113,-3.6074853,0.4286483,0.6167401,-12.96854,31.114412,-24.142462,-9.518198,-2.053151,-11.355502,-22.525727,17.271306,16.713596
302,535167646,-69.61367,6.7173615,193.89342,-3.9899926,0.5168557,0.87302446,-12.333399,44.145645,-35.117546,-9.584698,-2.044537,-11.340952,-22.731284,18.007067,16.128304
303,535184313,-69.68279,5.919945,193.96722,-4.074725,0.44550538,0.8087059,-12.793273,51.6862,-42.023952,-9.65261,-2.037112,-11.327474,-22.944505,18.868504,15.427905
304,535200980,-69.57087,4.897072,194.03978,-4.0295715,0.29942888,0.6002579,-13.742785,57.311314,-47.58022,-9.71977,-2.032122,-11.31747,-23.173551,19.823693,14.634901
305,535217647,-69.18139,3.6163635,194.15012,-3.7590003,0.030739546,0.1324867,-15.601425,58.90006,-50.17933,-9.78242,-2.03161,-11.315262,-23.433575,20.805361,13.798579
306,535234314,-68.717705,2.0429611,194.18141,-3.4508424,-0.2712059,-0.2867198,-17.126034,61.54824,-53.71076,-9.839934,-2.03613,-11.320041,-23.719009,21.831165,12.9034
307,535250981,-68.18554,0.16725159,194.12347,-3.1154928,-0.6015645,-0.6425276,-18.2587,65.55249,-58.405243,-9.891859,-2.046156,-11.33075,-24.023321,22.923707,11.929979
308,535267648,-67.394905,-2.0320663,194.06564,-2.573372,-1.0482767,-1.1882548,-19.976805,66.5257,-60.928192,-9.934749,-2.063627,-11.350554,-24.356268,24.032469,10.914509
309,535284315,-66.382164,-4.573929,193.98024,-1.8602581,-1.5947492,-1.8603792,-22.018225,65.51852,-62.085957,-9.965753,-2.090206,-11.38156,-24.723238,25.124444,9.879743
310,535300982,-65.98336,-6.4631195,194.01736,-1.3425579,-1.9337847,-2.1850681,-23.64862,63.809963,-61.81462,-9.988129,-2.122436,-11.417978,-25.117382,26.187943,8.849499
311,535317649,-66.2523,-7.614395,194.20126,-1.0284529,-2.048764,-2.1477532,-24.914633,60.91294,-59.641975,-10.00527,-2.156582,-11.453774,-25.532626,27.203159,7.855466
312,535334316,-66.81399,-8.519348,194.44101,-0.7642107,-2.075796,-1.9302764,-25.987032,56.86693,-56.092175,-10.018007,-2.191179,-11.485945,-25.965743,28.150941,6.920596
313,535350983,-67.89689,-8.901421,194.78192,-0.64318275,-1.9324074,-1.4071021,-26.691786,51.805588,-50.969,-10.028727,-2.223386,-11.509397,-26.410606,29.014367,6.071113
314,535367650,-68.96099,-9.3548355,195.15727,-0.40129852,-1.8216274,-0.91961837,-27.711483,43.7809,-43.39178,-10.035415,-2.253746,-11.524724,-26.872464,29.744049,5.347917
315,535384317,-69.9782,-9.9171295,195.56168,-0.021837234,-1.7547631,-0.4817474,-29.067217,32.657257,-33.283363,-10.035779,-2.282992,-11.532753,-27.356918,30.288337,4.793194
316,535400984,-71.418785,-10.04837,196.06973,0.28539562,-1.558892,0.18639421,-30.27421,19.41207,-20.817047,-10.031022,-2.308974,-11.529646,-27.861488,30.611871,4.446243
317,535417651,-73.17402,-9.8684845,196.66942,0.5781803,-1.2758675,1.0156103,-31.478216,3.527872,-5.710402,-10.021386,-2.330238,-11.512719,-28.386125,30.670669,4.35107
318,535434318,-74.29148,-9.99366,196.35023,0.77638817,-1.0613441,1.5179116,-31.470638,-6.233597,3.5273428,-10.008446,-2.347927,-11.48742,-28.910636,30.566776,4.409859
319,535450985,-74.741875,-10.405823,195.02206,0.8465967,-0.9071884,1.6815363,-30.075071,-8.99745,6.136297,-9.994336,-2.363047,-11.459394,-29.411887,30.416819,4.512131
320,535467652,-74.9072,-10.884972,193.15283,0.8657999,-0.76620007,1.6923728,-27.958477,-9.337028,6.405767,-9.979906,-2.375817,-11.431188,-29.877862,30.261202,4.618894
321,535484319,-74.53765,-11.576622,190.4551,0.8030262,-0.6745043,1.4226677,-24.756304,-4.788164,1.9680157,-9.966522,-2.387059,-11.407477,-30.290467,30.181399,4.651694
322,535500986,-74.31286,-11.97467,187.53027,0.65127754,-0.49508035,1.2313553,-21.032608,-0.27617568,-2.1966171,-9.955667,-2.39531,-11.386954,-30.64101,30.176796,4.615084
323,535517653,-74.26618,-12.047417,184.40356,0.41224575,-0.22080266,1.1341634,-16.816658,3.8537083,-5.7566905,-9.948796,-2.39899,-11.368051,-30.921288,30.241024,4.519139
324,535534320,-73.84336,-12.163109,180.51492,0.058452606,0.051243186,0.84157085,-11.489859,12.234448,-13.279333,-9.947822,-2.398136,-11.354025,-31.112786,30.444931,4.297817
325,535550987,-73.18568,-12.206215,175.9767,-0.4153576,0.35193247,0.42763627,-5.1468115,23.876665,-23.756374,-9.954745,-2.39227,-11.346898,-31.198566,30.842875,3.901877
326,535567654,-74.36533,-12.412842,164.25987,-0.71167946,0.6058292,0.24428916,-0.4821334,30.565664,-29.25778,-9.966606,-2.382173,-11.342827,-31.206602,31.352303,3.414247
327,535584321,-77.52213,-12.84333,144.60051,-0.8105278,0.7958504,0.2894374,2.3451772,32.176376,-29.659218,-9.980115,-2.368909,-11.338003,-31.167516,31.888576,2.919927
328,535600988,-81.77703,-13.301331,120.10436,-0.8604784,0.9801576,0.44531417,4.568112,32.006298,-28.097042,-9.994456,-2.352573,-11.330581,-31.091381,32.422014,2.451643
329,535617655,-87.70753,-13.862015,88.8276,-0.7821522,1.1352371,0.8008102,5.462074,27.971848,-22.550539,-10.007492,-2.333652,-11.317234,-31.000346,32.888211,2.075801
330,535634322,-93.97602,-14.474617,54.331413,-0.75927544,1.2814286,1.074155,6.774492,26.095411,-18.850075,-10.020147,-2.312295,-11.299331,-30.887438,33.323135,1.761633
331,535650989,-100.53384,-15.124451,16.710499,-0.80627537,1.422957,1.2538854,8.6108,26.728514,-17.318066,-10.033585,-2.288579,-11.278433,-30.743925,33.76861,1.472999
332,535667656,-108.567314,-15.904625,-27.622557,-0.76389694,1.5284809,1.5561228,9.471512,25.12032,-13.342636,-10.046317,-2.263104,-11.252498,-30.586066,34.187282,1.250622
333,535684323,-117.8218,-16.805557,-78.07266,-0.67189884,1.6018121,1.9215612,9.719654,22.577156,-8.176799,-10.057515,-2.236407,-11.220472,-30.424072,34.563568,1.114342
334,535700990,-117.48144,-17.426079,-108.31776,-0.63078403,1.6683624,2.1620927,10.07703,20.815685,-4.901317,-10.068028,-2.208601,-11.184437,-30.256121,34.910496,1.032653
335,535717657,-106.61855,-17.744873,-116.311806,-0.6295271,1.724317,2.2846766,10.4088745,19.440084,-3.2680469,-10.07852,-2.179862,-11.146359,-30.08264,35.234497,0.978186
336,535734324,-90.15565,-17.94886,-114.16532,-0.6468277,1.758534,2.3378193,10.600878,18.536045,-2.6783767,-10.0893,-2.150553,-11.107395,-29.905959,35.543431,0.933546
337,535750991,-65.022285,-17.93206,-94.54101,-0.7042513,1.7750001,2.2749462,10.783749,18.428648,-3.8516822,-10.101038,-2.12097,-11.069479,-29.72623,35.850575,0.869351
338,535767658,-37.76992,-17.950653,-73.71706,-0.7032995,1.7500348,2.2619205,10.133356,16.920828,-3.8264885,-10.11276,-2.091803,-11.03178,-29.557341,36.132589,0.805576
339,535784325,-8.660934,-18.022049,-52.490074,-0.6396494,1.6801705,2.3031888,8.60113,13.977687,-2.5287843,-10.123421,-2.0638,-10.993394,-29.413989,36.36555,0.76343
340,535800992,28.349854,-17.927948,-16.204107,-0.57886887,1.5787445,2.276236,6.68006,10.934858,-2.0325418,-10.133069,-2.037488,-10.955457,-29.302655,36.547798,0.729554
341,535817659,72.037056,-17.72287,31.962723,-0.49858093,1.4386872,2.215409,4.1678386,7.308075,-1.7107276,-10.141379,-2.01351,-10.918534,-29.233191,36.669599,0.701042
342,535834326,98.690605,-17.630562,63.443283,-0.4510374,1.3517383,2.1801565,2.4560971,4.6407213,-0.943612,-10.148896,-1.990981,-10.882198,-29.192256,36.746944,0.685315
343,535850993,106.85614,-17.644676,77.56232,-0.44705963,1.3268934,2.1619966,1.7088618,3.1888223,0.11138046,-10.156347,-1.968866,-10.846165,-29.163775,36.800091,0.687171
344,535867660,107.01836,-17.695374,85.957565,-0.4451151,1.3144382,2.1559327,1.105165,1.859877,1.6021302,-10.163766,-1.946959,-10.810233,-29.145356,36.831089,0.713873
345,535884327,92.714386,-17.837135,81.27579,-0.46073723,1.3398151,2.1748827,1.0354238,1.098458,3.656898,-10.171445,-1.924629,-10.773985,-29.128099,36.849397,0.774821
346,535900994,79.38803,-17.88427,84.21129,-0.47900867,1.350686,2.1508524,0.7890563,0.3469901,5.367392,-10.179428,-1.902118,-10.738137,-29.114948,36.85518,0.864278
347,535917661,67.81947,-17.828842,95.936424,-0.4960966,1.3426313,2.0824182,0.29266405,-0.49329054,6.747545,-10.187696,-1.879741,-10.70343,-29.11007,36.846958,0.976737
348,535934328,44.62199,-17.8088,99.90276,-0.53287697,1.3638234,2.0138013,0.23888826,-0.76044714,8.359475,-10.196577,-1.857011,-10.669867,-29.106089,36.834284,1.116062
349,535950995,12.900959,-17.784187,100.546936,-0.5858364,1.4031774,1.9302477,0.4756341,-0.5787547,10.019897,-10.206341,-1.833625,-10.637696,-29.098162,36.824638,1.28306
350,535967662,-7.029503,-17.732819,105.16985,-0.61495495,1.4114287,1.880751,0.3745284,-0.7097138,11.229263,-10.21659,-1.810101,-10.60635,-29.09192,36.812809,1.470214
351,535984329,-15.029549,-17.667992,112.46156,-0.6197958,1.3905046,1.8742888,-0.024778366,-1.121299,11.990062,-10.22692,-1.786926,-10.575112,-29.092333,36.794121,1.670048
352,536000996,-18.787231,-17.57241,121.96366,-0.6172724,1.3567309,1.8770814,-0.5184622,-1.5247922,12.408348,-10.237208,-1.764314,-10.543827,-29.100974,36.768708,1.876854
353,536017663,-13.168396,-17.44381,135.13556,-0.5974798,1.2985471,1.9038477,-1.2463317,-2.0917068,12.347785,-10.247166,-1.742672,-10.512096,-29.121746,36.733846,2.08265
354,536034330,-13.635872,-17.330658,143.47905,-0.58826923,1.2569655,1.9377853,-1.667222,-2.220868,12.259608,-10.25697,-1.721723,-10.4798,-29.149533,36.696832,2.286977
355,536050997,-21.004921,-17.232391,146.76279,-0.59158707,1.2342861,1.9764891,-1.7461224,-1.8656889,12.142394,-10.26683,-1.701152,-10.446859,-29.178635,36.665737,2.48935
356,536067664,-23.247917,-17.123848,150.31367,-0.58541393,1.2008114,2.0415287,-1.8593516,-1.4561883,11.645151,-10.276587,-1.681138,-10.412834,-29.209624,36.641467,2.683436
357,536084331,-23.696594,-17.015587,152.22946,-0.57596207,1.1657782,2.1297126,-1.8801823,-0.8491771,10.851344,-10.286186,-1.661708,-10.377339,-29.24096,36.627314,2.864292
358,536100998,-25.90857,-16.893501,154.82164,-0.5708685,1.1295333,2.1722765,-2.063342,-0.51669574,10.391486,-10.2957,-1.642882,-10.341134,-29.275349,36.618702,3.037483
359,536117665,-28.811165,-16.755074,158.72804,-0.5683718,1.0891492,2.1662672,-2.4668097,-0.54424506,10.279477,-10.305173,-1.62473,-10.30503,-29.316462,36.609631,3.208808
360,536134332,-33.003838,-16.615349,161.4041,-0.56924343,1.0512553,2.142765,-2.873335,-0.599608,10.266233,-10.31466,-1.607209,-10.269317,-29.364351,36.599638,3.379912
361,536150999,-39.08851,-16.470963,163.5131,-0.5749941,1.0153863,2.0838335,-3.3593044,-0.82328427,10.514889,-10.324243,-1.590286,-10.234586,-29.420339,36.585917,3.55516
362,536167666,-41.91784,-16.32383,164.98535,-0.5758934,0.97433996,2.035151,-3.8592184,-1.0334529,10.550933,-10.333841,-1.574047,-10.200667,-29.484659,36.568693,3.731009
363,536184333,-41.424263,-16.176338,165.50693,-0.57193947,0.92883587,1.9997786,-4.3515778,-1.2021984,10.349276,-10.343373,-1.558566,-10.167337,-29.557185,36.548656,3.903497
364,536201000,-40.58365,-16.025406,165.62857,-0.56916904,0.882094,1.9397284,-4.9344196,-1.5440267,10.285331,-10.352859,-1.543864,-10.135008,-29.639425,36.522922,4.074919
365,536217667,-38.246414,-15.872444,165.23888,-0.56554127,0.83281314,1.8648342,-5.5907006,-2.0205154,10.257721,-10.362285,-1.529984,-10.103927,-29.732603,36.489247,4.245881
366,536234334,-37.35166,-15.73365,165.14891,-0.563735,0.793267,1.8193336,-6.0178337,-2.203609,10.09335,-10.371681,-1.516763,-10.073605,-29.8329,36.45252,4.414104
367,536251001,-38.37857,-15.610725,165.51872,-0.5645561,0.764914,1.8028646,-6.2014875,-2.0862684,9.820824,-10.38109,-1.504014,-10.043557,-29.936258,36.417749,4.577784
368,536267668,-39.047928,-15.497749,165.86093,-0.5652704,0.7411199,1.8012018,-6.2734036,-1.8496629,9.453484,-10.390511,-1.491662,-10.013537,-30.040815,36.386921,4.735342
369,536284335,-40.170654,-15.399727,166.43925,-0.56671524,0.72541946,1.8255458,-6.153238,-1.3864868,8.955758,-10.399956,-1.479572,-9.983111,-30.143369,36.363813,4.884605
370,536301002,-40.762253,-15.308266,166.77423,-0.5689964,0.7120272,1.840735,-6.0348577,-0.99881065,8.525325,-10.409439,-1.467705,-9.952432,-30.24395,36.347166,5.026694
371,536317669,-40.566086,-15.22377,166.8375,-0.57187366,0.700568,1.8455281,-5.928721,-0.7070643,8.167306,-10.41897,-1.456029,-9.921673,-30.342762,36.335382,5.162816
372,536334336,-40.73638,-15.155312,167.11525,-0.57601357,0.6971173,1.8670651,-5.668428,-0.27183926,7.755968,-10.42857,-1.44441,-9.890555,-30.437236,36.330851,5.292082
373,536351003,-41.006508,-15.101944,167.51886,-0.5814209,0.7006249,1.8980758,-5.2935457,0.23998964,7.3351493,-10.43826,-1.432733,-9.85892,-30.525462,36.334851,5.414334
374,536367670,-41.080368,-15.036369,167.67659,-0.5847845,0.6971107,1.9145379,-5.0865927,0.55456096,7.000527,-10.448006,-1.421114,-9.827011,-30.610239,36.344094,5.531009
375,536384337,-41.087646,-14.957787,167.63478,-0.5859461,0.6862253,1.9173942,-5.0529833,0.6718154,6.751889,-10.457772,-1.409677,-9.795054,-30.694455,36.355291,5.64354
376,536401004,-40.976807,-14.879219,167.52914,-0.58649445,0.6740886,1.9131625,-5.0843687,0.67330563,6.5778017,-10.467547,-1.398442,-9.763168,-30.779194,36.366513,5.75317
377,536417671,-40.72113,-14.793854,167.29166,-0.58557415,0.65715796,1.8959727,-5.2538176,0.4874333,6.505842,-10.477307,-1.387489,-9.731568,-30.866758,36.374637,5.861601
378,536434338,-40.69979,-14.721054,167.28633,-0.5852146,0.6453373,1.8870974,-5.352916,0.32984143,6.4509687,-10.487061,-1.376733,-9.700116,-30.955973,36.380134,5.969117
379,536451005,-40.928085,-14.662544,167.55205,-0.5855732,0.6393276,1.8872511,-5.371718,0.20478356,6.4169364,-10.496821,-1.366078,-9.668662,-31.045502,36.383547,6.076066
380,536467672,-41.21528,-14.60318,167.86885,-0.584918,0.6312549,1.8808906,-5.476742,-0.058725,6.473293,-10.50657,-1.355557,-9.637314,-31.136781,36.382568,6.183954
381,536484339,-41.655678,-14.547493,168.33536,-0.58369446,0.623326,1.8725253,-5.6243067,-0.41861296,6.606733,-10.516298,-1.345168,-9.606105,-31.230519,36.375591,6.294066
382,536501006,-41.92993,-14.489952,168.63562,-0.58366394,0.61359257,1.8661585,-5.7091126,-0.6278238,6.6226463,-10.526026,-1.334941,-9.575002,-31.325671,36.365127,6.404443
383,536517673,-42.00615,-14.4283905,168.7334,-0.58478165,0.6009345,1.8604432,-5.741698,-0.6847392,6.513111,-10.535772,-1.324925,-9.543995,-31.421366,36.353715,6.512995
384,536534340,-42.11715,-14.368805,168.86516,-0.5865164,0.58780384,1.8566016,-5.7429986,-0.68007785,6.3643847,-10.545547,-1.315128,-9.513052,-31.517083,36.34238,6.619068
385,536551007,-42.183395,-14.309212,168.95042,-0.5893011,0.5733685,1.8553224,-5.6896095,-0.55096203,6.125579,-10.555369,-1.305572,-9.48213,-31.61191,36.333197,6.721161
386,536567674,-42.360107,-14.249504,169.1469,-0.59168625,0.5568262,1.8501756,-5.6869206,-0.49029207,5.934404,-10.56523,-1.296292,-9.451294,-31.706692,36.325025,6.820068
387,536584341,-42.6818,-14.190102,169.48967,-0.5936222,0.53825647,1.8411734,-5.738794,-0.50745577,5.799863,-10.575124,-1.287321,-9.420608,-31.802339,36.316567,6.916732
388,536601008,-43.011948,-14.129295,169.83961,-0.5961981,0.5172212,1.8320268,-5.774193,-0.4530359,5.6102037,-10.585061,-1.278701,-9.390074,-31.898576,36.309016,7.010235
389,536617675,-43.39608,-14.067024,170.24303,-0.59910965,0.49345708,1.821351,-5.816519,-0.36826855,5.3953767,-10.595046,-1.270477,-9.359718,-31.995518,36.302878,7.100158
390,536634342,-43.68724,-14.01339,170.55592,-0.60087395,0.47628564,1.8130336,-5.8168516,-0.2968738,5.2139935,-10.605061,-1.262539,-9.329501,-32.092466,36.29793,7.187058
391,536651009,-43.859543,-13.968895,170.75235,-0.6014738,0.4663971,1.8077271,-5.7637386,-0.22535518,5.058211,-10.615086,-1.254766,-9.299372,-32.188528,36.294174,7.271362
392,536667676,-44.020874,-13.92865,170.93945,-0.60139465,0.45908755,1.8025595,-5.6974726,-0.16106829,4.920774,-10.625109,-1.247115,-9.269329,-32.283486,36.29149,7.353375
393,536684343,-44.12838,-13.895279,171.0751,-0.6002464,0.45687157,1.798635,-5.6030107,-0.11124337,4.8142943,-10.635113,-1.2395,-9.239352,-32.37687,36.289636,7.433613
394,536701010,-44.250923,-13.862495,171.22612,-0.59916687,0.45414597,1.7946848,-5.491171,-0.011656478,4.6767545,-10.645099,-1.231931,-9.209441,-32.46839,36.289442,7.511559
395,536717677,-44.40027,-13.829803,171.40417,-0.59818554,0.45047933,1.7904317,-5.3652725,0.13873528,4.5065656,-10.655069,-1.224423,-9.1796,-32.557811,36.291754,7.586668
396,536734344,-44.505707,-13.802551,171.54039,-0.59638786,0.4508255,1.7874466,-5.206626,0.30315918,4.34461,-10.665009,-1.216909,-9.149809,-32.644588,36.296807,7.659078
397,536751011,-44.58403,-13.779343,171.65117,-0.5939989,0.45399117,1.7854278,-5.0175457,0.49612233,4.17736,-10.674909,-1.209342,-9.120052,-32.728214,36.305076,7.728701
398,536767678,-44.63813,-13.757996,171.73788,-0.59247494,0.45365626,1.7841637,-4.8844366,0.68047154,4.0174394,-10.684784,-1.201781,-9.090316,-32.809621,36.316417,7.795658
399,536784345,-44.658577,-13.73896,171.79121,-0.5918417,0.4498607,1.7838885,-4.812417,0.8503811,3.8698363,-10.694648,-1.194283,-9.060585,-32.889828,36.33059,7.860155
400,536801012,-44.655426,-13.722336,171.82173,-0.5915499,0.44481248,1.7845259,-4.761738,1.0347883,3.718669,-10.704507,-1.186869,-9.030843,-32.96919,36.347836,7.922133
401,536817679,-44.6259,-13.707748,171.82634,-0.5919771,0.4369325,1.7861284,-4.75559,1.2235861,3.568069,-10.714373,-1.179587,-9.001074,-33.04845,36.368229,7.981601
402,536834346,-44.553185,-13.697777,171.78973,-0.59201527,0.43114388,1.7891791,-4.739624,1.4296995,3.4210744,-10.72424,-1.172401,-8.971254,-33.127444,36.392057,8.038619
403,536851013,-44.43638,-13.692528,171.71112,-0.5916109,0.42767435,1.7937467,-4.7105484,1.6565504,3.276125,-10.7341,-1.165273,-8.941358,-33.205953,36.419666,8.093221
404,536867680,-44.27983,-13.690414,171.5939,-0.5916395,0.42273998,1.7996988,-4.715584,1.8895484,3.1352148,-10.743961,-1.158227,-8.911363,-33.284546,36.451158,8.145475
405,536884347,-44.07862,-13.692017,171.43349,-0.5918684,0.41739035,1.8071988,-4.743522,2.1323068,2.998701,-10.753825,-1.15127,-8.881243,-33.363605,36.486696,8.195453
406,536901014,-43.8935,-13.69355,171.28693,-0.59193325,0.41454446,1.8135045,-4.7603674,2.3082318,2.8897252,-10.763691,-1.144361,-8.851018,-33.442944,36.525167,8.243615
407,536917681,-43.729073,-13.694473,171.15845,-0.59191227,0.41404945,1.8183925,-4.769334,2.4075618,2.8113613,-10.773556,-1.13746,-8.820711,-33.522433,36.565293,8.290471
408,536934348,-43.55182,-13.69709,171.01651,-0.59181595,0.41524953,1.823326,-4.7795467,2.4688077,2.75319,-10.78342,-1.130539,-8.790322,-33.602092,36.60644,8.336358
409,536951015,-43.3777,-13.700287,170.87604,-0.59157944,0.41885775,1.8275657,-4.783719,2.469028,2.7224054,-10.79328,-1.123558,-8.759863,-33.681821,36.64759,8.381731
410,536967682,-43.17089,-13.705933,170.7032,-0.59163857,0.42220753,1.8327469,-4.814378,2.4496264,2.7058127,-10.803141,-1.116521,-8.729317,-33.762061,36.688417,8.426828
411,536984349,-42.92762,-13.714218,170.49435,-0.59201336,0.42524016,1.8390169,-4.8734236,2.4121428,2.703373,-10.813008,-1.109434,-8.698667,-33.843285,36.728619,8.471884
412,537001016,-42.679054,-13.723236,170.27872,-0.59242916,0.4298942,1.8449327,-4.9392285,2.3146539,2.7285671,-10.822882,-1.102269,-8.667918,-33.925605,36.767197,8.51736
413,537017683,-42.416916,-13.73336,170.04843,-0.5929909,0.43561995,1.8508546,-5.0194464,2.164291,2.779387,-10.832765,-1.095009,-8.63707,-34.009262,36.803269,8.563683
414,537034350,-42.191444,-13.740456,169.85571,-0.5934839,0.43824446,1.8559695,-5.0681815,2.0674322,2.8182163,-10.842656,-1.087705,-8.606137,-34.093732,36.837726,8.610653
415,537051017,-42.011627,-13.743744,169.7095,-0.59387016,0.43756664,1.8600013,-5.079091,2.0273962,2.8438208,-10.852554,-1.080412,-8.575137,-34.178384,36.871516,8.65805
416,537067684,-41.84826,-13.745407,169.57983,-0.594326,0.43517095,1.8635657,-5.0796723,1.9969937,2.8733785,-10.862459,-1.073159,-8.544078,-34.263045,36.904799,8.70594
417,537084351,-41.71721,-13.744072,169.48296,-0.5947943,0.42990887,1.8663566,-5.0566053,2.0034523,2.8973007,-10.872372,-1.065994,-8.512972,-34.347322,36.93819,8.754228
418,537101018,-41.596893,-13.741631,169.39569,-0.5953369,0.42470956,1.8684787,-5.031646,1.9720312,2.942006,-10.882294,-1.058916,-8.481831,-34.431183,36.971057,8.803261
419,537117685,-41.486366,-13.738037,169.31694,-0.5959759,0.41965497,1.869928,-5.0068636,1.8974702,3.00951,-10.892227,-1.051922,-8.450666,-34.514631,37.002682,8.85342
420,537134352,-41.411354,-13.731079,169.27359,-0.5966301,0.41225147,1.8703419,-4.9595804,1.839742,3.0787144,-10.902171,-1.045051,-8.419494,-34.597291,37.033344,8.904732
421,537151019,-41.368668,-13.720963,169.26198,-0.5973234,0.40305883,1.8696965,-4.8941364,1.7822894,3.1555722,-10.912126,-1.038333,-8.388332,-34.67886,37.063049,8.957325
422,537167686,-41.281433,-13.713829,169.20786,-0.5977526,0.39612925,1.8701193,-4.848444,1.7384969,3.2136478,-10.922089,-1.031731,-8.357163,-34.759667,37.092024,9.010886
423,537184353,-41.147133,-13.709793,169.10896,-0.59787846,0.39150274,1.871714,-4.8226104,1.7168941,3.247785,-10.932054,-1.025206,-8.325968,-34.840044,37.120639,9.065016
424,537201020,-41.00139,-13.7059555,168.9995,-0.5978565,0.3875885,1.8734066,-4.8010664,1.6997852,3.2745428,-10.942018,-1.018746,-8.294745,-34.920062,37.148969,9.119592
425,537217687,-40.82473,-13.703781,168.86067,-0.5975971,0.385409,1.8757418,-4.7931147,1.6932089,3.2855368,-10.951978,-1.012323,-8.263483,-34.999947,37.177189,9.174351
426,537234354,-40.67016,-13.698914,168.74432,-0.59725285,0.38188022,1.8773292,-4.770589,1.7042837,3.2908635,-10.961932,-1.005958,-8.232194,-35.079457,37.205594,9.229199
427,537251021,-40.541924,-13.690941,168.65454,-0.5968342,0.3768232,1.8780395,-4.731528,1.7326107,3.291192,-10.971879,-0.999678,-8.200893,-35.158316,37.234471,9.284052
428,537267688,-40.397537,-13.683228,168.55011,-0.5961809,0.37262905,1.8790122,-4.6975365,1.7808576,3.2736058,-10.981815,-0.993468,-8.169576,-35.236608,37.264152,9.338612
429,537284355,-40.24901,-13.6747055,168.44278,-0.595315,0.36862296,1.8799256,-4.662242,1.8513476,3.2396057,-10.991737,-0.987324,-8.138244,-35.314312,37.295008,9.392605
430,537301022,-40.08761,-13.667526,168.3211,-0.5948353,0.3649348,1.8811164,-4.624646,1.9090623,3.2229125,-11.001651,-0.981242,-8.106892,-35.391389,37.326826,9.44632
431,537317689,-39.90757,-13.662224,168.1792,-0.59477615,0.36185616,1.8827496,-4.5869865,1.952453,3.2242575,-11.011564,-0.975211,-8.075513,-35.467839,37.359367,9.500058
432,537334356,-39.72149,-13.656998,168.0309,-0.59486294,0.35885942,1.884437,-4.545129,2.0008361,3.2279024,-11.021478,-0.96923,-8.044106,-35.543591,37.392714,9.553856
433,537351023,-39.52549,-13.6525345,167.87154,-0.59525776,0.35606188,1.8863124,-4.4993515,2.0455928,3.2421803,-11.031399,-0.963296,-8.012667,-35.61858,37.426807,9.607892
434,537367690,-39.31456,-13.648331,167.6981,-0.59556484,0.35399097,1.8884417,-4.455305,2.1088073,3.2433062,-11.041325,-0.957396,-7.981193,-35.692835,37.461954,9.661947
435,537384357,-39.08925,-13.644249,167.51122,-0.5957575,0.35263354,1.8908067,-4.41267,2.1931896,3.2291994,-11.051254,-0.951519,-7.94968,-35.76638,37.498507,9.715767
436,537401024,-38.84816,-13.641121,167.30795,-0.5961695,0.3518569,1.8935055,-4.3689613,2.281012,3.2184055,-11.06119,-0.945655,-7.918122,-35.839196,37.536524,9.769407
437,537417691,-38.589813,-13.638847,167.0873,-0.5967207,0.35179347,1.8965626,-4.3253403,2.3777995,3.2053523,-11.071135,-0.939792,-7.886513,-35.911285,37.576154,9.82283
438,537434358,-38.335205,-13.633827,166.8746,-0.5972109,0.35063177,1.9003396,-4.282589,2.4391103,3.222035,-11.081089,-0.933948,-7.854841,-35.982661,37.616806,9.876531
439,537451025,-38.08526,-13.6258545,166.67113,-0.5976658,0.34822327,1.9049146,-4.240738,2.4586687,3.2736793,-11.09105,-0.928144,-7.823092,-36.05334,37.657784,9.931092
440,537467692,-37.82849,-13.616585,166.46358,-0.59812737,0.34554386,1.9101565,-4.2003365,2.4615617,3.3411937,-11.101019,-0.922385,-7.791256,-36.123346,37.69881,9.986779
441,537484359,-37.57007,-13.605026,166.25833,-0.5985527,0.34210664,1.9161991,-4.161733,2.4345703,3.4343195,-11.110995,-0.916683,-7.759319,-36.192708,37.739386,10.044018
442,537501026,-37.29709,-13.593536,166.03958,-0.5991411,0.33894622,1.9228783,-4.1237545,2.399805,3.538807,-11.120981,-0.911034,-7.727271,-36.261437,37.779383,10.102998
443,537517693,-37.007965,-13.582237,165.8056,-0.5999069,0.33615887,1.9302204,-4.0866337,2.3587556,3.6536255,-11.130979,-0.905431,-7.695101,-36.329548,37.818696,10.163892
444,537534360,-36.713234,-13.569153,165.56952,-0.60071754,0.33281487,1.9384506,-4.0513983,2.2883668,3.794839,-11.140991,-0.899884,-7.662793,-36.397071,37.856835,10.227139
445,537551027,-36.409683,-13.554756,165.32759,-0.60161877,0.32914174,1.9475669,-4.0179725,2.1927137,3.959959,-11.151018,-0.894398,-7.630334,-36.464037,37.89338,10.293138
446,537567694,-36.143303,-13.536293,165.11542,-0.6023226,0.3249501,1.9547014,-4.004199,2.1024756,4.1115456,-11.161057,-0.888982,-7.597756,-36.530774,37.928421,10.361664
447,537584361,-35.919838,-13.513184,164.93808,-0.60279083,0.3200938,1.9596226,-4.012171,2.0167313,4.2487864,-11.171104,-0.883647,-7.565096,-36.597644,37.962033,10.432477
448,537601028,-35.715385,-13.487045,164.77621,-0.60319614,0.31480753,1.9637052,-4.0336514,1.9228289,4.388411,-11.181157,-0.8784,-7.532368,-36.664872,37.99408,10.505617
449,537617695,-35.543495,-13.456947,164.64058,-0.60345364,0.30898923,1.9661533,-4.073992,1.8277416,4.521052,-11.191215,-0.87325,-7.499599,-36.732772,38.024542,10.580968
450,537634362,-35.37995,-13.42395,164.51364,-0.6036997,0.30251336,1.9687223,-4.1235476,1.706773,4.6732883,-11.201277,-0.868208,-7.466787,-36.801498,38.052988,10.658856
451,537651029,-35.22354,-13.388062,164.39452,-0.6039467,0.29536778,1.9715145,-4.1821623,1.5577638,4.847172,-11.211343,-0.863285,-7.433928,-36.871201,38.078951,10.739642
452,537667696,-35.09881,-13.347885,164.30186,-0.6040554,0.28750098,1.9729513,-4.25968,1.3982582,5.0217986,-11.221411,-0.858493,-7.401045,-36.942196,38.102255,10.823339
453,537684363,-35.001396,-13.303505,164.23271,-0.6040497,0.27886057,1.9733851,-4.3545628,1.2222178,5.2032185,-11.231478,-0.853845,-7.368155,-37.014772,38.122625,10.910059
454,537701030,-34.891838,-13.258621,164.1553,-0.6043606,0.26970446,1.9737712,-4.41376,1.1013268,5.3667946,-11.241551,-0.84935,-7.335259,-37.088335,38.14098,10.999506
455,537717697,-34.7704,-13.213264,164.06985,-0.605011,0.26001394,1.9739705,-4.433691,1.0443456,5.5076675,-11.251635,-0.845016,-7.302359,-37.16223,38.158386,11.0913
456,537734364,-34.65381,-13.165649,163.99023,-0.6058111,0.24960017,1.9737351,-4.438751,1.0129449,5.6416984,-11.261732,-0.840856,-7.269463,-37.236209,38.175268,11.185328
457,537751031,-34.532677,-13.116646,163.90894,-0.60687447,0.23850322,1.9732447,-4.414446,1.0280218,5.7611094,-11.271847,-0.836881,-7.236576,-37.309783,38.192402,11.281346
458,537767698,-34.43747,-13.0636215,163.8503,-0.6079149,0.22651923,1.971499,-4.3945837,1.0519032,5.875125,-11.281979,-0.833106,-7.203718,-37.383026,38.209934,11.379265
459,537784365,-34.37069,-13.0063095,163.81639,-0.60891724,0.2135961,1.9684218,-4.3810616,1.0822718,5.984487,-11.292128,-0.829546,-7.170911,-37.456044,38.227972,11.479006
460,537801032,-34.309753,-12.946709,163.78935,-0.6101227,0.19984484,1.9646242,-4.3443065,1.1568185,6.0773363,-11.302297,-0.826215,-7.138167,-37.528449,38.247252,11.580295
461,537817699,-34.2619,-12.884148,163.77501,-0.6114731,0.18519187,1.959853,-4.2911806,1.2684863,6.1551075,-11.312488,-0.823128,-7.105503,-37.599969,38.268393,11.68288
462,537834366,-34.19078,-12.820747,163.73901,-0.612792,0.17144561,1.9575138,-4.2616634,1.3235384,6.255944,-11.322701,-0.820271,-7.072878,-37.670997,38.290452,11.787146
463,537851033,-34.090508,-12.756905,163.67627,-0.61409473,0.15877879,1.9579805,-4.2555695,1.318776,6.3812923,-11.332936,-0.817625,-7.040245,-37.741923,38.312432,11.893501
464,537867700,-33.983643,-12.691116,163.60735,-0.6154289,0.14626837,1.9594444,-4.258239,1.2948248,6.513436,-11.343193,-0.815187,-7.007588,-37.812894,38.334012,12.002058
465,537884367,-33.859314,-12.624008,163.5221,-0.6167526,0.13442183,1.962877,-4.2795954,1.2274022,6.6621513,-11.353472,-0.812947,-6.974873,-37.884221,38.354469,12.113094
466,537901034,-33.73352,-12.554771,163.4365,-0.6182337,0.12218356,1.9664247,-4.288395,1.1816995,6.801603,-11.363776,-0.810911,-6.942099,-37.955694,38.374164,12.226454
467,537917701,-33.607758,-12.483269,163.352,-0.6198807,0.10948324,1.9699602,-4.2829576,1.1618356,6.929799,-11.374107,-0.809086,-6.909266,-38.027077,38.393528,12.341951
468,537934368,-33.46425,-12.410477,163.2514,-0.6215801,0.09729588,1.9752736,-4.2871084,1.114761,7.067746,-11.384467,-0.807464,-6.876345,-38.098529,38.412107,12.459747
469,537951035,-33.305946,-12.336205,163.13779,-0.623374,0.085409164,1.9820008,-4.2940273,1.0545485,7.2096653,-11.394857,-0.806041,-6.843312,-38.170096,38.429683,12.579908
470,537967702,-33.18923,-12.258629,163.06686,-0.6256447,0.072280645,1.9865292,-4.285402,0.98578465,7.3523417,-11.405284,-0.804836,-6.810203,-38.241519,38.446113,12.702447
471,537984369,-33.11664,-12.177681,163.04138,-0.6284237,0.057900548,1.9887757,-4.262068,0.9022642,7.497953,-11.415758,-0.803871,-6.777057,-38.312553,38.461151,12.827413
472,538001036,-33.063087,-12.094162,163.03662,-0.6315603,0.042871237,1.9902418,-4.2278385,0.8112102,7.643994,-11.426284,-0.803156,-6.743886,-38.383017,38.474671,12.954813
473,538017703,-33.043427,-12.007599,163.06737,-0.6351652,0.026806593,1.9900035,-4.178131,0.7117623,7.790281,-11.43687,-0.802709,-6.710719,-38.452653,38.486534,13.084651
474,538034370,-33.02001,-11.919334,163.09665,-0.6389942,0.010866523,1.9906517,-4.1294355,0.5876031,7.943746,-11.44752,-0.802528,-6.677541,-38.521477,38.496327,13.217047
475,538051037,-32.99054,-11.82946,163.12225,-0.6430445,-0.004881501,1.9923441,-4.0819435,0.43830448,8.104393,-11.458237,-0.802609,-6.644335,-38.589509,38.503632,13.35212
476,538067704,-32.986443,-11.7369,163.17542,-0.647542,-0.021337032,1.9930118,-4.023411,0.2703668,8.26883,-11.469029,-0.802965,-6.611118,-38.656566,38.508138,13.489934
477,538084371,-32.99975,-11.641991,163.24835,-0.6524477,-0.038246274,1.9932165,-3.957107,0.07959461,8.438649,-11.479903,-0.803602,-6.577898,-38.722518,38.509465,13.630578
478,538101038,-33.05802,-11.540901,163.36404,-0.65674114,-0.056685805,1.9924062,-3.8952687,-0.15758121,8.615738,-11.490849,-0.804547,-6.544691,-38.787439,38.506839,13.774174
479,538117705,-33.16825,-11.433151,163.52904,-0.6603613,-0.076871395,1.9902711,-3.8375907,-0.44417423,8.800244,-11.501855,-0.805828,-6.51152,-38.851399,38.499436,13.920845
480,538134372,-33.312454,-11.320702,163.72784,-0.6637621,-0.09812391,1.9874485,-3.780397,-0.773119,8.992627,-11.512918,-0.807463,-6.478396,-38.914406,38.486551,14.070722
481,538151039,-33.500137,-11.202415,163.96866,-0.66667175,-0.120786786,1.983698,-3.7267199,-1.1522168,9.193621,-11.524029,-0.809476,-6.445334,-38.976518,38.467347,14.223949
482,538167706,-33.723938,-11.080223,164.24687,-0.66974545,-0.14447021,1.9788059,-3.6659184,-1.5674671,9.401442,-11.535191,-0.811884,-6.412354,-39.037617,38.441223,14.38064
483,538184373,-33.983788,-10.954193,164.5626,-0.6730223,-0.16914976,1.9727775,-3.59758,-2.020033,9.616459,-11.546408,-0.814703,-6.379474,-39.097577,38.407556,14.540914
484,538201040,-34.29277,-10.822304,164.92653,-0.6759262,-0.19534409,1.9654706,-3.5295653,-2.5249243,9.840439,-11.557673,-0.817959,-6.346716,-39.156403,38.365474,14.704921
485,538217707,-34.65055,-10.684914,165.33885,-0.6785917,-0.22299838,1.9568025,-3.4596004,-3.0807776,10.073307,-11.568983,-0.821676,-6.314103,-39.214063,38.314128,14.872809
486,538234374,-34.947853,-10.5482025,165.69669,-0.6812992,-0.24673605,1.9488002,-3.393776,-3.390974,10.277309,-11.580338,-0.825788,-6.281623,-39.270626,38.257612,15.044097
487,538251041,-35.176903,-10.412453,165.99251,-0.68399715,-0.26611674,1.9415855,-3.33361,-3.4284725,10.449028,-11.591738,-0.830223,-6.249263,-39.326186,38.200471,15.218247
488,538267708,-35.39025,-10.274864,166.27632,-0.6866312,-0.2836604,1.934098,-3.2746892,-3.3326836,10.606343,-11.603182,-0.834951,-6.217028,-39.380764,38.144926,15.395019
489,538284375,-35.55816,-10.137054,166.52008,-0.6892481,-0.29786313,1.9268632,-3.2190313,-3.019199,10.738546,-11.614669,-0.839915,-6.184914,-39.434415,38.094606,15.573995
490,538301042,-35.748695,-9.994797,166.78757,-0.6915293,-0.31198585,1.9186221,-3.1652145,-2.6643744,10.868212,-11.626194,-0.845115,-6.152937,-39.487169,38.0502,15.755132
491,538317709,-35.966324,-9.847794,167.08307,-0.6934519,-0.32619345,1.909253,-3.1130743,-2.2761154,10.996418,-11.637752,-0.850552,-6.121116,-39.539054,38.012265,15.938406
492,538334376,-36.151268,-9.699539,167.35046,-0.6952019,-0.33751917,1.8998171,-3.065238,-1.6902788,11.102272,-11.649339,-0.856177,-6.089452,-39.590141,37.984094,16.123444
493,538351043,-36.317665,-9.549118,167.60304,-0.69669914,-0.34659815,1.8900251,-3.0215755,-0.94010353,11.190083,-11.660951,-0.861954,-6.057952,-39.640501,37.968426,16.309945
494,538367710,-36.66816,-9.380936,168.00945,-0.70029926,-0.35483313,1.8860952,-3.2074056,-1.1591811,11.438681,-11.672623,-0.867868,-6.026517,-39.693958,37.949106,16.50059
495,538384377,-37.215103,-9.193832,168.57906,-0.7062473,-0.3619051,1.8887945,-3.6465764,-2.4374342,11.863118,-11.684394,-0.8739,-5.995037,-39.754734,37.908482,16.698309
496,538401044,-37.872307,-8.994484,169.24113,-0.7133732,-0.3674971,1.895013,-4.233964,-4.261349,12.381987,-11.696284,-0.880025,-5.963453,-39.8253,37.83746,16.904675
497,538417711,-38.695488,-8.778481,170.04169,-0.72235394,-0.37181783,1.9066002,-5.0355988,-6.9491243,13.045897,-11.708323,-0.886222,-5.931676,-39.909227,37.721641,17.122107
498,538434378,-39.552322,-8.555672,170.86887,-0.7318716,-0.3731817,1.9202437,-5.9235544,-9.801688,13.746188,-11.720521,-0.892442,-5.899672,-40.007953,37.55828,17.35121
499,538451045,-40.437317,-8.326363,171.71794,-0.74186134,-0.3714311,1.9358194,-6.893909,-12.788536,14.478378,-11.732885,-0.898633,-5.867408,-40.122851,37.345138,17.592516
500,538467712,-41.466057,-8.081657,172.6855,-0.7535925,-0.36748707,1.9566915,-8.071434,-16.543911,15.342337,-11.745445,-0.904758,-5.834796,-40.257375,37.069406,17.848222
501,538484379,-42.612724,-7.823387,173.74953,-0.766819,-0.36089063,1.9822907,-9.433859,-20.934078,16.317612,-11.758225,-0.910773,-5.801758,-40.414606,36.720505,18.120182
502,538501046,-43.85356,-7.464264,174.98636,-0.7250347,-0.38549018,1.9867911,-9.798279,-24.644327,17.8775,-11.770309,-0.917198,-5.768645,-40.577911,36.309766,18.41814
503,538517713,-45.203568,-6.9938507,176.41817,-0.6226368,-0.44475853,1.9681485,-9.065083,-27.639711,20.086895,-11.780686,-0.924611,-5.735843,-40.728996,35.849104,18.752922
504,538534380,-46.65966,-6.4538345,177.99683,-0.4859209,-0.5224525,1.938234,-7.778554,-30.465605,22.714434,-11.788785,-0.933319,-5.703539,-40.858639,35.341344,19.131496
505,538551047,-48.222183,-5.818161,179.75047,-0.29852772,-0.62836266,1.8898273,-5.6047983,-32.782974,25.905237,-11.79376,-0.943792,-5.672042,-40.952052,34.794961,19.56325
506,538567714,-49.939247,-5.133972,181.66391,-0.09317303,-0.7432008,1.8388186,-3.2617898,-35.536686,29.419376,-11.795313,-0.956179,-5.641395,-41.006415,34.202683,20.053573
507,538584381,-51.815834,-4.4024963,183.73917,0.12898064,-0.86616445,1.7859645,-0.7812166,-38.782135,33.252945,-11.793163,-0.970615,-5.611629,-41.019435,33.556314,20.607789
508,538601048,-53.832268,-3.5758438,186.01276,0.39923763,-1.0157998,1.71689,2.4953856,-41.761185,37.663208,-11.786509,-0.987545,-5.583014,-40.977845,32.860294,21.235509
509,538617715,-56.002876,-2.661827,188.4866,0.7117281,-1.1885941,1.6346757,6.431518,-44.67705,42.61372,-11.774647,-1.007355,-5.555769,-40.870653,32.115676,21.945738
510,538634382,-57.4841,-1.7326965,190.39037,0.8533449,-1.2136457,1.5230863,7.882316,-47.055176,45.462467,-11.760425,-1.027582,-5.530384,-40.739281,31.331423,22.703446
511,538651049,-58.192024,-0.7869339,191.65616,0.80753803,-1.0765295,1.3782068,6.629621,-48.752323,45.988758,-11.746966,-1.045524,-5.507414,-40.628787,30.518884,23.469925
512,538667716,-58.535416,0.20681,192.65178,0.6713953,-0.85557413,1.2092612,4.074249,-50.12592,45.421337,-11.735776,-1.059784,-5.48726,-40.560883,29.683452,24.226947
513,538684383,-58.27233,1.2320023,193.16019,0.38537693,-0.5024748,1.0105498,-0.6531892,-51.00716,43.017437,-11.729353,-1.068159,-5.470418,-40.571769,28.833333,24.943904
514,538701050,-57.886986,2.3462982,193.64038,0.08149147,-0.12089348,0.7870593,-5.5522966,-51.47067,40.380936,-11.727995,-1.070174,-5.4573,-40.664307,27.975489,25.61692
515,538717717,-57.40213,3.5551147,194.11594,-0.23413372,0.28472376,0.53846204,-10.529785,-51.52159,37.588097,-11.731897,-1.065429,-5.448326,-40.839803,27.116796,26.243388
516,538734384,-56.357285,4.8172684,194.16388,-0.6805496,0.80959964,0.25649238,-17.355955,-50.956066,33.173683,-11.743239,-1.051936,-5.444051,-41.129069,26.267528,26.796283
517,538751051,-54.842865,6.147011,193.87294,-1.2321978,1.4341202,-0.058749676,-25.638233,-49.769222,27.446463,-11.763776,-1.028034,-5.44503,-41.556373,25.438041,27.253724
518,538767718,-55.666595,6.975151,194.29425,-1.5868025,1.8326697,-0.20375371,-31.646307,-45.57105,20.899584,-11.790223,-0.99749,-5.448426,-42.083811,24.678524,27.60205
519,538784385,-59.04081,7.2399063,195.46896,-1.7318172,1.9870734,-0.15985012,-35.265,-38.055763,13.352074,-11.819087,-0.964372,-5.45109,-42.671561,24.044261,27.824585
520,538801052,-63.69584,7.2188187,196.952,-1.7949467,2.039701,-0.023267984,-38.021404,-28.307264,4.7340074,-11.849003,-0.930377,-5.451478,-43.305251,23.572473,27.903485
521,538817719,-70.41442,6.746086,199.02023,-1.6961508,1.9025264,0.26387215,-38.941723,-15.591534,-4.912381,-11.877272,-0.898668,-5.44708,-43.95428,23.312614,27.821612
522,538834386,-77.44746,6.139786,200.9457,-1.6440439,1.7910823,0.58135724,-40.683273,-1.1875407,-16.310762,-11.904673,-0.868817,-5.437391,-44.632335,23.292822,27.549766
523,538851053,-84.7147,5.4131393,202.6883,-1.649724,1.7164819,0.923668,-43.3876,14.901481,-29.539486,-11.932168,-0.840209,-5.421997,-45.355462,23.54118,27.057441
524,538867720,-93.78756,4.2558823,204.8491,-1.5400019,1.4942168,1.4029616,-44.895306,34.015156,-44.2558,-11.957835,-0.815305,-5.398614,-46.103717,24.108099,26.319844
525,538884387,-104.32699,2.7253342,207.27548,-1.358264,1.1680917,1.9965487,-45.76604,55.964245,-60.67031,-11.980473,-0.795837,-5.365338,-46.866484,25.040836,25.308672
526,538901054,-107.03132,1.2674332,199.9948,-1.1986971,0.91071284,2.3311872,-44.952225,72.007706,-73.23286,-12.000451,-0.780658,-5.326485,-47.615688,26.240964,24.088124
527,538917721,-101.18716,-0.12573242,182.06044,-1.0476294,0.71354324,2.3867512,-42.06551,81.51382,-81.39963,-12.017911,-0.768766,-5.286706,-48.31678,27.599528,22.731464
528,538934388,-90.961205,-1.6383743,158.0365,-0.8882618,0.5220214,2.3265417,-37.956898,88.53988,-87.97146,-12.032715,-0.760066,-5.24793,-48.949395,29.075193,21.265273
529,538951055,-73.74862,-3.1661453,125.046135,-0.7395096,0.37613416,2.0500631,-32.22414,90.68056,-91.378075,-12.04504,-0.753797,-5.213762,-49.486464,30.586536,19.742305
530,538967722,-55.3416,-5.0635223,88.957535,-0.5000105,0.124916434,1.8053164,-24.885893,93.428825,-94.79823,-12.053374,-0.751715,-5.183673,-49.901229,32.143683,18.162334
531,538984389,-35.987625,-7.359558,49.971718,-0.16477108,-0.24007523,1.6054316,-15.935705,97.08821,-98.42484,-12.05612,-0.755716,-5.156916,-50.166824,33.76182,16.52192
532,539001056,-10.461205,-9.796928,2.52989,0.20218086,-0.61194503,1.2390803,-4.953164,96.80052,-99.27344,-12.05275,-0.765915,-5.136265,-50.249377,35.375162,14.867363
533,539017723,20.128128,-12.460442,-52.310402,0.6246872,-1.0250471,0.7569988,8.12195,93.67024,-97.96698,-12.042339,-0.782999,-5.123648,-50.114011,36.936333,13.23458
534,539034390,43.8881,-14.219063,-86.99354,0.8213129,-1.3152716,0.42827713,17.418526,90.450035,-95.917534,-12.02865,-0.80492,-5.11651,-49.823702,38.443834,11.635954
535,539051057,60.417404,-14.933815,-99.63133,0.75894356,-1.4556978,0.25082648,22.484898,86.70323,-92.79678,-12.016001,-0.829182,-5.11233,-49.448954,39.888888,10.089341
536,539067724,74.696915,-15.199364,-102.64048,0.5882492,-1.5487697,0.12950206,26.19414,81.77714,-88.27201,-12.006197,-0.854995,-5.110172,-49.012385,41.25184,8.618141
537,539084391,83.620834,-14.684013,-88.43763,0.22793579,-1.5451872,0.13119566,26.93891,76.17909,-82.546814,-12.002398,-0.880748,-5.107985,-48.563403,42.521492,7.242361
538,539101058,95.57917,-13.982368,-74.57538,-0.17413044,-1.5142775,0.042687654,28.295984,66.94251,-73.93521,-12.0053,-0.905986,-5.107274,-48.091803,43.637201,6.010107
539,539117725,111.04402,-13.126976,-61.934357,-0.6083212,-1.4625797,-0.14662528,30.502596,53.848045,-62.27124,-12.015439,-0.930362,-5.109718,-47.583426,44.534668,4.972253
540,539134392,123.177185,-11.5193405,-35.054947,-1.2214594,-1.3108356,-0.27456522,30.373384,38.687534,-48.467,-12.035797,-0.952209,-5.114294,-47.077203,45.17946,4.16447
541,539151059,133.75653,-9.268082,2.5730953,-1.9853973,-1.0718107,-0.38726854,28.645964,20.710817,-32.05776,-12.068887,-0.970073,-5.120748,-46.59977,45.52464,3.630174
542,539167726,142.9106,-7.98629,23.69666,-2.3736753,-0.87671876,-0.39528155,25.691118,7.1242085,-19.48171,-12.108448,-0.984685,-5.127336,-46.171585,45.643377,3.305479
543,539184393,149.76859,-7.7354355,27.819763,-2.3568258,-0.7243974,-0.27066875,21.084368,-1.265442,-11.384912,-12.147728,-0.996758,-5.131847,-45.820179,45.622286,3.11573
544,539201060,155.42555,-7.807472,25.707743,-2.167633,-0.558166,-0.08705163,15.0905,-8.471043,-4.3253675,-12.183855,-1.006061,-5.133298,-45.568671,45.481102,3.043641
545,539217727,159.61548,-8.622414,10.3743725,-1.6641626,-0.40895057,0.18691456,7.632692,-12.45691,-0.10331571,-12.211591,-1.012877,-5.130183,-45.441459,45.273487,3.041919
546,539234394,160.44403,-9.069405,1.9074306,-1.1919365,-0.17742443,0.5416714,-2.3825517,-17.069609,4.8995495,-12.231457,-1.015834,-5.121155,-45.481168,44.988994,3.123578
547,539251061,157.8319,-9.0776825,1.3895054,-0.7695627,0.14496386,0.97472894,-15.056789,-22.6335,10.965502,-12.244283,-1.013418,-5.10491,-45.732114,44.611769,3.306336
548,539267728,152.35214,-9.557457,-7.1149197,-0.10089493,0.48470378,1.5211763,-30.008644,-25.442392,14.713372,-12.245965,-1.00534,-5.079557,-46.232258,44.187729,3.551559
549,539284395,143.47446,-10.269531,-19.310698,0.74346256,0.86556816,2.1819637,-47.567295,-26.286026,16.889091,-12.233574,-0.990914,-5.043191,-47.025046,43.749629,3.833044
550,539301062,139.92169,-10.676727,-26.921034,1.2268162,1.1442993,2.5756192,-58.146404,-28.242414,19.327026,-12.213127,-0.971842,-5.000264,-47.994153,43.278922,4.155161
551,539317729,142.44652,-10.839638,-31.068182,1.3359375,1.2994663,2.6731558,-60.84459,-31.05326,21.705185,-12.190861,-0.950184,-4.955711,-49.008229,42.761368,4.516914
552,539334396,146.43286,-10.8511505,-32.75876,1.2792854,1.4164085,2.6584184,-60.483253,-33.720547,23.594683,-12.16954,-0.926577,-4.911404,-50.016283,42.199359,4.910159
553,539351063,154.25926,-10.593575,-30.215265,0.91685486,1.4525639,2.4267492,-54.36849,-36.894684,25.317013,-12.154259,-0.902368,-4.870958,-50.922424,41.584448,5.332109
554,539367730,160.87543,-10.610245,-32.352814,0.63886356,1.4748397,2.210626,-48.044357,-37.78679,24.88865,-12.143611,-0.877787,-4.834114,-51.723163,40.954668,5.74692
555,539384397,165.85683,-10.918823,-39.409515,0.46354485,1.48882,2.0245664,-41.85716,-36.188686,22.15357,-12.135885,-0.852973,-4.800371,-52.420782,40.351523,6.116146
556,539401064,173.76836,-11.155533,-45.54284,0.075678825,1.4226823,1.6609814,-30.652689,-33.957047,18.285048,-12.134624,-0.829262,-4.772688,-52.93166,39.785572,6.420897
557,539417731,183.52936,-11.440109,-52.70826,-0.4436741,1.2890438,1.1672341,-15.530412,-30.411228,12.772802,-12.142019,-0.807778,-4.753234,-53.1905,39.278718,6.633777
558,539434398,190.13052,-11.588402,-58.45852,-0.75240326,1.2488929,0.8735862,-5.9937406,-28.106014,9.55431,-12.154559,-0.786963,-4.738674,-53.290396,38.810284,6.793015
559,539451065,193.7019,-11.548416,-62.027725,-0.85671806,1.3060904,0.7834346,-2.2169008,-27.427834,9.066032,-12.168838,-0.765195,-4.725617,-53.327344,38.353153,6.944116
560,539467732,195.91437,-11.495018,-66.01338,-0.8649521,1.3907348,0.7699821,-0.35258436,-26.628347,9.021381,-12.183254,-0.742016,-4.712784,-53.33322,37.909347,7.094472
561,539484399,195.55804,-11.370338,-69.64896,-0.6920271,1.5436087,0.91700923,-2.822671,-26.43389,10.515841,-12.194788,-0.716289,-4.697501,-53.380265,37.468782,7.269736
562,539501066,196.69595,-11.190437,-72.88636,-0.62031174,1.6509206,0.9771788,-2.6937833,-25.728724,11.4602785,-12.205127,-0.688774,-4.681215,-53.425161,37.03997,7.460741
563,539517733,199.53137,-10.970673,-75.97744,-0.661046,1.7047713,0.9373746,0.43852472,-24.33921,11.642597,-12.216144,-0.660361,-4.665592,-53.417852,36.634316,7.654784
564,539534400,201.04468,-10.65242,-78.29232,-0.6016197,1.7957513,0.9915564,1.0799241,-23.441725,13.0487795,-12.226171,-0.630432,-4.649066,-53.399853,36.243621,7.872264
565,539551067,202.12598,-10.24025,-79.86103,-0.50191593,1.8986113,1.0866263,0.7305827,-22.778502,15.226173,-12.234536,-0.598788,-4.630956,-53.387677,35.863979,8.126034
566,539567734,204.76266,-9.921547,-82.192566,-0.4573536,1.9476702,1.1174731,1.4110274,-22.091396,16.469212,-12.242159,-0.566327,-4.612331,-53.36416,35.495789,8.400521
567,539584401,208.82864,-9.702438,-85.29416,-0.45273685,1.9468353,1.0968423,2.6609826,-21.529087,16.891956,-12.249705,-0.53388,-4.59405,-53.31981,35.136971,8.682054
568,539601068,214.0238,-9.495224,-88.453354,-0.48399353,1.9092607,1.0381047,4.5506053,-21.051071,17.014717,-12.257772,-0.502059,-4.576748,-53.243967,34.78612,8.965633
569,539617735,220.84418,-9.347153,-92.02596,-0.571578,1.8189282,0.9179549,7.4608493,-20.65364,16.456467,-12.267298,-0.471744,-4.561449,-53.11962,34.441893,9.239907
570,539634402,227.39697,-9.137512,-95.0496,-0.6043339,1.7356446,0.84703994,8.824108,-20.761768,16.704699,-12.27737,-0.442817,-4.547332,-52.972552,34.095864,9.518319
571,539651069,233.68018,-8.856453,-97.42847,-0.5806446,1.6603028,0.8277974,8.591888,-21.412554,17.846529,-12.287047,-0.415145,-4.533535,-52.829354,33.738988,9.815761
572,539667736,241.07837,-8.603195,-99.91934,-0.57237625,1.5492634,0.7861978,8.322472,-22.425241,18.846642,-12.296587,-0.389324,-4.520432,-52.690646,33.365234,10.129872
573,539684403,249.22437,-8.350632,-102.291695,-0.55573845,1.4145966,0.7460021,7.4453034,-23.921518,20.048222,-12.305849,-0.365747,-4.507999,-52.566558,32.966542,10.464009
574,539701070,244.11685,-7.9895554,-104.65713,-0.58927155,1.3136239,0.6728525,7.235542,-25.639141,21.415628,-12.31567,-0.343853,-4.496785,-52.445966,32.539223,10.820936
575,539717737,224.4938,-7.520668,-107.10371,-0.6855383,1.2469194,0.5560944,7.9342732,-27.571486,22.854286,-12.327096,-0.323071,-4.487517,-52.313728,32.079698,11.201841
576,539734404,196.6749,-6.9761963,-109.40476,-0.7998352,1.1954927,0.42893755,8.504694,-29.961409,24.643038,-12.340427,-0.303146,-4.480368,-52.171983,31.580341,11.612558
577,539751071,156.64326,-6.327942,-111.60793,-0.9500675,1.1743641,0.2801715,9.309319,-32.76211,26.76242,-12.356261,-0.283573,-4.475698,-52.016828,31.034306,12.058598
578,539767738,112.83468,-5.6622543,-113.806175,-1.1215296,1.1381098,0.11022997,9.990532,-36.12796,29.00351,-12.374953,-0.264605,-4.473861,-51.850319,30.432173,12.54199
579,539784405,65.54258,-4.980995,-115.97668,-1.3109522,1.0853158,-0.07840276,10.438297,-40.116016,31.407621,-12.396802,-0.246516,-4.475168,-51.676347,29.763573,13.06545
580,539801072,6.8958435,-4.216339,-118.11483,-1.5416851,1.0517795,-0.29604006,11.132568,-44.633633,34.07171,-12.422497,-0.228986,-4.480102,-51.490804,29.019679,13.633312
581,539817739,-61.564903,-3.385292,-120.23551,-1.8109608,1.0283179,-0.5427208,11.976267,-49.74499,36.969757,-12.45268,-0.211847,-4.489147,-51.2912,28.190596,14.249475
582,539834406,-107.73322,-2.4295807,-122.19611,-1.7614765,0.9544579,-0.66155124,13.311579,-54.91514,40.231266,-12.482038,-0.195939,-4.500173,-51.06934,27.275344,14.919996
583,539851073,-129.62189,-1.3339386,-123.98812,-1.3612804,0.8287221,-0.6391845,15.248037,-60.10221,43.883858,-12.504726,-0.182127,-4.510826,-50.815206,26.27364,15.651394
584,539867740,-141.53128,-0.13587189,-125.69012,-0.7768917,0.6736678,-0.5499809,17.561855,-65.62712,47.85869,-12.517674,-0.170899,-4.519992,-50.522508,25.179855,16.449039
585,539884407,-134.71567,1.1850433,-127.266,0.09320831,0.47337502,-0.34993935,20.384056,-71.35181,52.199585,-12.516121,-0.163009,-4.525824,-50.182774,23.990658,17.319032
586,539901074,-130.04797,2.615593,-128.78777,1.0378399,0.27271402,-0.13175774,23.610744,-77.60993,56.88881,-12.498824,-0.158464,-4.52802,-49.789262,22.697159,18.267179
587,539917741,-128.612,4.1562347,-130.26396,2.047883,0.07348859,0.09985542,27.24816,-84.44526,61.931473,-12.464693,-0.157239,-4.526356,-49.335126,21.289738,19.29937
588,539934408,-112.31675,5.8340225,-131.6291,3.320382,-0.16053414,0.4304496,31.483316,-91.581635,67.38133,-12.409353,-0.159915,-4.519182,-48.810404,19.763377,20.422392
589,539951075,-85.375694,7.649231,-132.8999,4.8158045,-0.42019045,0.84214616,36.315872,-99.10295,73.243866,-12.32909,-0.166918,-4.505146,-48.205139,18.111661,21.643123
590,539967742,-71.4295,9.625774,-133.84908,5.6231127,-0.5061219,1.027859,41.302742,-105.89387,76.20015,-12.235371,-0.175353,-4.488015,-47.51676,16.346763,22.913125
591,539984409,-70.2857,11.773914,-134.44473,5.6808844,-0.40267074,0.96958256,46.450905,-111.81192,75.92702,-12.14069,-0.182064,-4.471855,-46.742578,14.483231,24.178575
592,540001076,-73.360954,14.086655,-134.80457,5.3958235,-0.19731975,0.8015963,51.99451,-117.44341,73.9905,-12.05076,-0.185353,-4.458495,-45.876003,12.525841,25.41175
593,540017743,-86.49262,16.575851,-134.85939,4.517185,0.16624475,0.44042003,57.837242,-122.458176,69.436,-11.975474,-0.182582,-4.451155,-44.912049,10.484871,26.569017
594,540034410,-90.992195,19.240074,-134.72426,3.627267,0.5637459,0.08742857,64.318405,-127.44262,64.19178,-11.91502,-0.173186,-4.449698,-43.840076,8.360827,27.63888
595,540051077,-85.84675,22.084446,-134.40314,2.754342,0.99066985,-0.24739337,71.484055,-132.42679,58.3367,-11.869114,-0.156675,-4.453821,-42.648675,6.153714,28.611158
596,540067744,-85.20559,25.124077,-133.77402,1.3859873,1.5599527,-0.7378576,79.09996,-136.81596,50.04054,-11.846014,-0.130676,-4.466119,-41.330342,3.873448,29.445167
597,540084411,-84.96946,28.363594,-132.85573,-0.36248016,2.248346,-1.3434682,87.25907,-140.71541,39.65731,-11.852055,-0.093204,-4.48851,-39.876024,1.528191,30.106122
598,540101078,-84.37408,30.66938,-131.88216,-1.5918055,2.5870073,-1.6153944,87.80122,-136.28375,28.616915,-11.878585,-0.050087,-4.515433,-38.41267,-0.743205,30.583071
599,540117745,-84.928474,31.931873,-130.85405,-2.2862158,2.545916,-1.5326765,79.87588,-122.60836,16.758272,-11.916689,-0.007655,-4.540978,-37.081405,-2.786678,30.862376
600,540134412,-84.11338,32.68926,-129.66713,-2.8012023,2.3327165,-1.2814655,67.37882,-103.39657,3.5743937,-11.963376,0.031224,-4.562336,-35.958425,-4.509954,30.921949
601,540151079,-82.12702,32.616413,-128.37769,-2.9066038,1.8189706,-0.74110126,47.939384,-76.312935,-10.661066,-12.011819,0.06154,-4.574688,-35.159435,-5.781836,30.744265
602,540167746,-82.94477,32.37407,-126.81017,-3.266677,1.3080877,-0.21824098,26.198664,-45.654034,-27.343807,-12.066264,0.083341,-4.578325,-34.722791,-6.542737,30.288535
603,540184413,-86.45107,31.990864,-124.949455,-3.9175968,0.8149581,0.27307224,2.3368707,-11.528952,-46.611153,-12.131557,0.096924,-4.573774,-34.683843,-6.734886,29.511682
604,540201080,-90.942055,30.842361,-122.927086,-4.333438,0.074873686,0.99151754,-28.13011,30.383244,-67.60004,-12.203781,0.098172,-4.557249,-35.152678,-6.228499,28.385015
605,540217747,-97.30149,29.051159,-120.7013,-4.656591,-0.85165,1.875173,-64.36719,79.36633,-90.67917,-12.281391,0.083978,-4.525996,-36.225464,-4.905727,26.873696
606,540234414,-100.08094,27.09348,-119.20661,-4.781278,-1.596106,2.3829033,-84.963585,115.52477,-107.12448,-12.361079,0.057376,-4.486281,-37.641524,-2.980314,25.088288
607,540251081,-98.74,24.91428,-118.55163,-4.631841,-2.1596766,2.4956672,-88.48975,137.61023,-116.01231,-12.438276,0.021381,-4.444687,-39.116353,-0.68681,23.15475
608,540267748,-96.57218,22.348415,-118.26748,-4.352985,-2.6799905,2.4294868,-84.59689,154.6916,-121.74514,-12.510826,-0.023286,-4.404196,-40.526301,1.891383,21.125664
609,540284415,-92.1193,19.486832,-118.62832,-3.8933072,-3.0656521,2.0409734,-67.41392,161.37206,-121.81717,-12.575714,-0.07438,-4.37018,-41.649866,4.580917,19.095378
610,540301082,-88.11077,15.862011,-119.12687,-3.175972,-3.6042216,1.7136617,-50.62941,170.50589,-121.110504,-12.628647,-0.13445,-4.341619,-42.493689,7.422682,17.07687
611,540317749,-84.89558,11.428787,-119.74058,-2.2008982,-4.311861,1.465019,-34.947575,182.82677,-119.8919,-12.665329,-0.206314,-4.317202,-43.076149,10.469795,15.078672
612,540334416,-79.89706,6.4759064,-120.97358,-0.9515734,-4.969508,0.9790702,-8.364399,187.21346,-113.46804,-12.681189,-0.289139,-4.300884,-43.215556,13.590019,13.187538
613,540351083,-73.748146,0.88027954,-122.73507,0.59768486,-5.640355,0.33432937,26.38128,186.30005,-102.76325,-12.671228,-0.383145,-4.295312,-42.775868,16.69502,11.474817
614,540367750,-63.88639,-3.2756653,-118.599495,1.5516853,-6.0572205,-0.19455647,47.802048,188.33267,-95.51523,-12.645367,-0.484099,-4.298555,-41.979167,19.833898,9.882897
615,540384417,-49.701675,-5.7687683,-107.9941,1.837574,-6.1678867,-0.62244034,55.46166,192.574,-91.74229,-12.614741,-0.586897,-4.308929,-41.054806,23.043465,8.353859
616,540401084,-32.816902,-7.680649,-93.88537,1.9053745,-6.14155,-1.0292745,57.83455,196.74873,-88.272644,-12.582985,-0.689256,-4.326084,-40.090897,26.322611,6.882648
617,540417751,-12.3609085,-8.416405,-74.44393,1.5097275,-5.8937435,-1.3510449,49.38591,202.6383,-87.005035,-12.557823,-0.787485,-4.348601,-39.267798,29.699916,5.432564
618,540434418,10.794231,-9.130333,-53.50788,1.1826487,-5.522724,-1.8335948,45.872574,202.41579,-82.08123,-12.538112,-0.87953,-4.379161,-38.503255,33.073512,4.064543
619,540451085,36.628094,-9.895317,-31.235361,0.96194744,-5.035529,-2.4888482,48.11874,195.61893,-73.09152,-12.52208,-0.963455,-4.420642,-37.701276,36.333827,2.846351
620,540467752,66.427666,-9.603767,-4.0562153,0.3687868,-4.3039303,-3.1429138,43.557556,187.47983,-64.49702,-12.515934,-1.035187,-4.473024,-36.975317,39.458491,1.771401
621,540484419,100.10902,-8.479958,27.313503,-0.4864874,-3.3424385,-3.8507648,35.534462,176.1581,-54.965965,-12.524042,-1.090894,-4.537203,-36.383076,42.394459,0.855302
622,540501086,122.53001,-7.8756332,49.45687,-0.9476423,-2.5471528,-4.1874623,30.7559,162.8314,-45.996765,-12.539836,-1.133347,-4.606994,-35.870478,45.108316,0.088689
623,540517753,132.44452,-7.750229,61.57946,-1.0168791,-1.9314475,-4.0923495,28.330153,148.0189,-38.21765,-12.556784,-1.165538,-4.6752,-35.398309,47.575298,-0.548272
624,540534420,137.0112,-7.585747,69.607666,-0.9352808,-1.3100443,-3.8045363,27.326468,129.72,-29.9597,-12.572372,-1.187372,-4.738609,-34.942868,49.737298,-1.0476
625,540551087,132.0014,-7.6955414,69.89888,-0.53961754,-0.783365,-3.1972737,29.177088,108.27078,-21.76881,-12.581366,-1.200428,-4.791897,-34.456583,51.541811,-1.410414
626,540567754,126.587616,-6.977844,71.24045,-0.33669472,-0.08026266,-2.4721045,26.709448,84.090256,-13.825864,-12.586978,-1.201766,-4.833099,-34.011426,52.943315,-1.640845
627,540584421,121.254616,-5.3506546,74.08657,-0.35336685,0.82129693,-1.6418204,19.699808,56.875515,-6.021191,-12.592867,-1.188078,-4.860463,-33.683096,53.89124,-1.741198
628,540601088,107.66617,-3.6059341,70.86057,-0.20090485,1.7035978,-0.48994732,12.836285,26.630028,1.2242576,-12.596215,-1.159685,-4.868629,-33.469158,54.335074,-1.720794
629,540617755,87.62121,-1.4835205,63.340973,0.0106191635,2.6282983,0.9477515,4.526115,-6.6855145,7.8538127,-12.596038,-1.11588,-4.852833,-33.393723,54.223649,-1.589897
630,540634422,76.446465,-0.38853455,60.392815,0.13896084,3.2264166,1.8810775,-2.1158867,-31.957205,13.986833,-12.593722,-1.062106,-4.821482,-33.428988,53.691029,-1.356783
631,540651089,74.42757,-0.5357971,61.836784,0.21459675,3.435032,2.268481,-6.3716874,-48.076443,19.49015,-12.590145,-1.004855,-4.783674,-33.535183,52.889755,-1.031947
632,540667756,75.37196,-1.067833,64.57821,0.22807693,3.4704547,2.4665298,-10.896708,-60.338844,24.204754,-12.586344,-0.947014,-4.742565,-33.716795,51.884108,-0.628534
633,540684423,83.190674,-2.4014053,70.76682,0.15080738,3.2183142,2.264747,-14.753584,-65.53896,28.069221,-12.583831,-0.893375,-4.704819,-33.962688,50.791792,-0.160714
634,540701090,86.65654,-3.8993454,73.175354,0.16325378,2.8387237,2.1842914,-18.594908,-70.247955,30.873688,-12.58111,-0.846063,-4.668414,-34.272603,49.620993,0.353847
635,540717757,85.119156,-5.502922,71.408905,0.26643658,2.340766,2.2569551,-22.665682,-74.74971,32.510754,-12.576669,-0.80705,-4.630798,-34.650364,48.375164,0.895693
636,540734424,87.46915,-7.9048386,70.82852,0.34777737,1.5378186,2.0414736,-25.830816,-72.85456,32.96128,-12.570873,-0.78142,-4.596773,-35.080878,47.160921,1.445048
637,540751091,91.27872,-10.9832,69.83074,0.44561958,0.45554125,1.6471844,-28.253292,-65.784615,32.1003,-12.563446,-0.773828,-4.56932,-35.551766,46.064511,1.980053
638,540767758,94.693115,-13.034065,67.20256,0.48314857,-0.17570376,1.472774,-29.616554,-62.058014,31.202736,-12.555394,-0.776756,-4.544774,-36.045375,45.030211,2.500099
639,540784425,98.60275,-14.004295,63.391487,0.44276333,-0.31807816,1.4992225,-29.673586,-61.52395,30.318235,-12.548015,-0.782057,-4.519787,-36.539935,44.004812,3.005403
640,540801092,102.23332,-14.637611,57.815224,0.3884678,-0.30820465,1.6088293,-28.64458,-60.778397,28.68566,-12.541541,-0.787194,-4.492973,-37.017345,42.991839,3.483497
641,540817759,105.38055,-14.4963,50.25477,0.29701233,0.047067404,1.895587,-26.32995,-61.83254,26.607151,-12.536591,-0.78641,-4.46138,-37.456178,41.961297,3.92695
642,540834426,111.39233,-14.761131,42.712883,0.18246746,0.26655066,2.0121248,-22.651117,-57.882893,23.214537,-12.53355,-0.781967,-4.427845,-37.833697,40.996582,4.313859
643,540851093,120.320335,-15.510353,35.12792,0.050177574,0.31811452,1.9423771,-17.536617,-48.41363,18.379385,-12.532714,-0.776665,-4.395472,-38.125974,40.189688,4.620182
644,540867760,130.42459,-15.787483,26.315964,-0.12724018,0.6066925,1.9357895,-10.780376,-38.39161,12.754363,-12.534835,-0.766553,-4.363209,-38.305647,39.549828,4.832755
645,540884427,142.48595,-15.850044,16.672169,-0.34667778,1.0294385,1.9156795,-2.2891812,-26.216427,6.103572,-12.540613,-0.749396,-4.331281,-38.3438,39.112888,4.934481
646,540901094,151.49997,-16.037903,8.318808,-0.49410248,1.2656337,1.9027586,3.1377969,-17.406225,1.4185075,-12.548848,-0.728302,-4.299568,-38.291503,38.822784,4.958123
647,540917761,156.91074,-16.268013,1.3645039,-0.56344604,1.3358109,1.9247131,5.120871,-12.986878,-0.9501327,-12.558239,-0.706038,-4.267489,-38.206155,38.606336,4.942287
648,540934428,161.71304,-16.555458,-4.9099216,-0.6073055,1.3234652,1.9164546,6.0517488,-9.15548,-2.6018977,-12.568361,-0.68398,-4.235548,-38.105293,38.453745,4.898922
649,540951095,164.52907,-16.961655,-9.902567,-0.59547615,1.1541334,1.8893608,4.6170497,-7.581199,-2.6724496,-12.578286,-0.664744,-4.204059,-38.028342,38.327392,4.854381
650,540967762,167.87549,-17.049713,-15.192373,-0.6002312,1.1176251,1.8929491,3.7443967,-6.166769,-2.785593,-12.58829,-0.646117,-4.17251,-37.965935,38.224613,4.807954
651,540984429,172.04071,-16.810097,-20.795477,-0.62626934,1.2256863,1.9218063,3.6400428,-4.627876,-3.0484242,-12.598728,-0.625689,-4.14048,-37.905268,38.147482,4.757147
652,541001096,174.59418,-16.503677,-25.368322,-0.61162186,1.273521,1.9617954,1.7030396,-5.50563,-1.8755614,-12.608922,-0.604464,-4.107783,-37.876884,38.055721,4.725888
653,541017763,176.09332,-16.032043,-29.197382,-0.57149696,1.3246828,2.0227985,-1.4552288,-8.387444,0.41900206,-12.618447,-0.582386,-4.07407,-37.901138,37.91593,4.732871
654,541034430,180.1214,-15.715324,-33.582382,-0.55963993,1.3639188,2.047008,-3.2428236,-9.691282,1.8463261,-12.627774,-0.559654,-4.039953,-37.955185,37.754409,4.763643
655,541051097,186.69606,-15.603149,-38.44406,-0.5730791,1.3689522,2.029892,-3.7649517,-9.513433,2.4627516,-12.637325,-0.536838,-4.006121,-38.017934,37.595852,4.804689
656,541067764,194.49072,-15.468536,-43.315918,-0.59619427,1.3928137,2.0067406,-3.8626635,-9.3613825,3.0424929,-12.647262,-0.513624,-3.972675,-38.082312,37.439829,4.855397
657,541084431,204.41052,-15.401772,-48.482788,-0.6414757,1.426898,1.9628272,-2.9267602,-8.420634,3.1245642,-12.657953,-0.489842,-3.939961,-38.131091,37.299485,4.907473
658,541101098,213.79944,-15.279625,-52.76323,-0.66149807,1.4289122,1.9263874,-3.147241,-9.468558,4.318619,-12.668978,-0.466027,-3.907855,-38.183545,37.141676,4.97945
659,541117765,222.52863,-15.079491,-56.06349,-0.6539812,1.4034578,1.9016273,-4.6430335,-12.754134,6.747366,-12.679878,-0.442636,-3.876161,-38.260929,36.929107,5.091906
660,541134432,232.68857,-14.93927,-59.1802,-0.65257645,1.3637747,1.8626674,-5.8337,-16.280218,9.252094,-12.690754,-0.419906,-3.845117,-38.358157,36.65777,5.246108
661,541151099,243.71698,-14.829819,-61.823303,-0.6467066,1.3015811,1.8164923,-7.2111797,-20.725475,12.214201,-12.701532,-0.398213,-3.814842,-38.478343,36.312345,5.449678
662,541167766,247.8797,-14.656448,-64.786644,-0.63591194,1.2443043,1.7587575,-8.070083,-22.974768,13.993936,-12.712131,-0.377475,-3.785529,-38.612844,35.929432,5.68291
663,541184433,244.64084,-14.430428,-68.20585,-0.62345505,1.1939723,1.6859272,-8.180158,-22.545301,14.320394,-12.722522,-0.357575,-3.75743,-38.74918,35.553677,5.921583
664,541201100,237.24374,-14.177956,-71.4735,-0.60179424,1.1310424,1.6051478,-8.2323065,-21.432999,14.255086,-12.732552,-0.338724,-3.730678,-38.886385,35.19646,6.159168
665,541217767,223.5195,-13.880241,-74.81398,-0.5713949,1.0619785,1.5142401,-7.9909267,-18.724634,13.309979,-12.742075,-0.321024,-3.705441,-39.019567,34.884383,6.381001
666,541234434,208.45035,-13.623062,-77.9196,-0.54061127,0.9757952,1.4104819,-7.484789,-15.8203,12.181439,-12.751085,-0.304761,-3.681933,-39.144313,34.620711,6.584025
667,541251101,192.19795,-13.412361,-80.72238,-0.50860214,0.8696555,1.2941942,-6.7658525,-12.881385,10.948344,-12.759562,-0.290267,-3.660363,-39.257077,34.406021,6.766497
668,541267768,170.31604,-13.192467,-83.56194,-0.47154903,0.75369877,1.1645069,-5.606028,-8.402301,8.827201,-12.767421,-0.277705,-3.640955,-39.350511,34.265983,6.913617
669,541284435,143.7381,-12.984222,-86.358444,-0.4309473,0.62456393,1.0206491,-4.008712,-2.6711674,5.9553943,-12.774603,-0.267296,-3.623944,-39.417323,34.221464,7.012874
670,541301102,129.53775,-12.864616,-88.163895,-0.40790844,0.5481917,0.9390831,-2.9430814,1.4890984,3.8971786,-12.781401,-0.258159,-3.608293,-39.466374,34.246282,7.077827
671,541317769,128.76404,-12.8381195,-88.9274,-0.40434742,0.53216857,0.9270104,-2.4491916,4.0388536,2.6755934,-12.78814,-0.24929,-3.592843,-39.507194,34.313596,7.12242
672,541334436,133.90692,-12.885857,-89.035965,-0.41140652,0.5427348,0.94775057,-2.055602,6.1502666,1.6208788,-12.794997,-0.240244,-3.577047,-39.541454,34.4161,7.149435
673,541351103,149.62778,-13.0310135,-88.230576,-0.43526077,0.5990999,1.0230658,-2.0088692,7.1156344,1.1226969,-12.802251,-0.230259,-3.559996,-39.574935,34.534694,7.168147
674,541367770,164.77222,-13.219231,-87.11944,-0.46234703,0.66450703,1.1086586,-1.6897101,8.964491,0.060976267,-12.809957,-0.219184,-3.541518,-39.603097,34.684102,7.169163
675,541384437,178.79056,-13.453033,-85.72378,-0.49239254,0.737,1.2024145,-1.0444927,11.829359,-1.6443015,-12.818164,-0.206901,-3.521478,-39.620505,34.881258,7.141758
676,541401104,201.3526,-13.78244,-83.50882,-0.5378952,0.8523376,1.3460457,-0.5850735,14.111918,-3.115076,-12.827129,-0.192695,-3.499044,-39.630256,35.116457,7.08984
677,541417771,230.22314,-14.199867,-80.59041,-0.59646034,1.0036498,1.5312049,-0.17103815,16.260443,-4.603123,-12.83707,-0.175968,-3.473524,-39.633107,35.387464,7.013121
678,541434438,248.26678,-14.517326,-78.066246,-0.63055325,1.1037799,1.6547244,0.14486265,17.7464,-5.346403,-12.847579,-0.157572,-3.445945,-39.630693,35.683237,6.924014
679,541451105,255.13428,-14.725296,-75.9662,-0.63844013,1.1497872,1.712837,0.29605055,18.328447,-5.167251,-12.85822,-0.138409,-3.417398,-39.625759,35.988711,6.837893
680,541467772,257.54132,-14.910469,-73.83828,-0.6366434,1.1792308,1.7497079,0.40543222,18.565067,-4.6005774,-12.868831,-0.118755,-3.388236,-39.619002,36.298129,6.761217
681,541484439,251.06662,-15.023201,-71.96644,-0.6152258,1.1695157,1.7383881,0.43933725,18.248335,-3.3977642,-12.879085,-0.099263,-3.359263,-39.61168,36.602268,6.704588
682,541501106,248.30084,-15.190872,-69.558876,-0.59978485,1.1815453,1.7507234,0.30703115,17.285372,-1.7849826,-12.889081,-0.079571,-3.330084,-39.606563,36.890358,6.674838
683,541517773,249.88763,-15.422173,-66.57055,-0.5918484,1.2191104,1.7909644,0.011413574,15.693714,0.21428776,-12.898945,-0.059252,-3.300235,-39.606373,37.15192,6.678409
684,541534440,245.77896,-15.611374,-63.637466,-0.5701208,1.2327071,1.8003012,-0.4386797,13.313034,2.9473138,-12.908447,-0.038707,-3.27023,-39.613684,37.373804,6.727531
685,541551107,238.63885,-15.786034,-60.59018,-0.5400114,1.2354606,1.7940347,-1.0677071,10.10119,6.384392,-12.917447,-0.018116,-3.240329,-39.631479,37.542157,6.833938
686,541567774,225.83566,-15.958626,-60.8061,-0.52419376,1.2319732,1.80802,-1.3832202,8.098257,8.838167,-12.926184,0.002417,-3.210195,-39.654533,37.677128,6.981241
687,541584441,205.82663,-16.116875,-64.712685,-0.5221796,1.2164812,1.8383595,-1.3458648,7.445984,10.214427,-12.934887,0.022692,-3.179556,-39.676964,37.801228,7.151481
688,541601108,181.58878,-16.27314,-70.619026,-0.5268307,1.1955554,1.8782772,-1.2119169,7.12356,11.312346,-12.943668,0.042618,-3.148251,-39.697163,37.919954,7.34002
689,541617775,151.93236,-16.42646,-79.53522,-0.5437498,1.1684811,1.9356222,-0.8481884,7.6775384,11.685384,-12.95273,0.062093,-3.115991,-39.711299,38.047913,7.534776
690,541634442,115.68067,-16.542473,-89.69566,-0.5542612,1.1198088,1.9743507,-0.5426569,7.861185,12.421357,-12.961968,0.080756,-3.083085,-39.720343,38.178933,7.741799
691,541651109,72.7988,-16.620033,-101.03968,-0.5576134,1.0491198,1.9931477,-0.3191409,7.5778303,13.597585,-12.971262,0.098241,-3.049866,-39.725662,38.30523,7.968425
692,541667776,22.610085,-16.673492,-115.38668,-0.5678234,0.9626658,2.01613,0.080188274,7.9165106,14.291106,-12.980726,0.114285,-3.016264,-39.724326,38.437172,8.20661
693,541684443,-35.360107,-16.693993,-132.44012,-0.5809231,0.8564813,2.035272,0.5935674,8.609327,14.735861,-12.990408,0.12856,-2.982343,-39.714433,38.580661,8.452208
694,541701110,-74.1784,-16.681396,-134.11131,-0.5873327,0.7758718,2.0578556,0.91313505,8.577502,15.299908,-13.000197,0.141491,-2.948045,-39.699214,38.723619,8.707206
695,541717777,-91.534706,-16.63462,-118.87719,-0.58770084,0.72497475,2.0867634,1.0432658,7.858487,15.899003,-13.009992,0.153574,-2.913266,-39.681826,38.854594,8.972189
696,541734444,-100.66044,-16.545395,-95.098526,-0.5838051,0.678893,2.112582,1.0891814,6.785904,16.512709,-13.019722,0.164889,-2.878056,-39.663673,38.967692,9.247401
697,541751111,-94.06074,-16.411797,-57.67543,-0.573328,0.64996004,2.1376615,0.974936,5.100278,17.204956,-13.029277,0.175722,-2.842428,-39.647424,39.052697,9.53415
698,541767778,-87.69582,-16.235123,-17.569307,-0.56545925,0.6127825,2.1636226,0.94402075,3.702396,17.525232,-13.038701,0.185935,-2.806368,-39.63169,39.114404,9.826237
699,541784445,-82.54223,-16.012009,24.723097,-0.5603523,0.56498164,2.1894627,1.0079236,2.6323733,17.454023,-13.04804,0.195351,-2.769877,-39.614891,39.158277,10.117137
700,541801112,-64.02094,-15.73835,79.250404,-0.55143833,0.52976567,2.2163203,0.9818425,1.2271837,17.256182,-13.057231,0.20418,-2.732938,-39.598527,39.17873,10.40474
701,541817779,-35.324104,-15.412071,143.92096,-0.54060173,0.5016056,2.244304,0.91817045,-0.31759322,16.8243,-13.066241,0.21254,-2.695533,-39.583224,39.173437,10.685145
702,541834446,-20.094536,-15.100525,189.35497,-0.5487919,0.47863412,2.273049,0.18134165,-1.537026,17.243618,-13.075388,0.220517,-2.657649,-39.580202,39.14782,10.972539
703,541851113,-18.53846,-14.808159,214.13348,-0.5773983,0.4639119,2.302854,-1.3155317,-2.4560022,18.638044,-13.085011,0.228249,-2.619268,-39.602128,39.106887,11.283173
704,541867780,-21.380203,-14.499939,230.92201,-0.61788845,0.45482087,2.3339849,-3.239451,-3.154439,20.411417,-13.095309,0.235829,-2.580368,-39.656119,39.054313,11.623363
705,541884447,-34.566887,-14.193596,231.8708,-0.6761446,0.4520589,2.3665414,-5.7817135,-3.5152369,22.87276,-13.106578,0.243363,-2.540926,-39.752481,38.995726,12.004576
706,541901114,-40.37786,-13.845657,236.84592,-0.73832893,0.4626208,2.4006386,-8.626599,-3.9732056,25.452051,-13.118883,0.251073,-2.500915,-39.896258,38.929506,12.428777
707,541917781,-37.786423,-13.452103,246.90558,-0.8040409,0.48703027,2.4364336,-11.761225,-4.529895,28.10519,-13.132284,0.25919,-2.460308,-40.092278,38.854008,12.897197
708,541934448,-40.591927,-13.049416,245.32776,-0.8855171,0.52301747,2.47408,-15.520746,-4.8644357,31.390406,-13.147043,0.267907,-2.419073,-40.350957,38.772934,13.42037
709,541951115,-44.927948,-12.627686,236.21075,-0.980175,0.57264316,2.51372,-19.852476,-5.061364,35.194195,-13.163379,0.277451,-2.377178,-40.681832,38.688578,14.00694
710,541967782,-46.85842,-12.026482,223.27522,-0.951272,0.59470826,2.4873095,-20.167484,-7.3875885,38.916454,-13.179234,0.287363,-2.335723,-41.017957,38.565452,14.655548
711,541984449,-47.59977,-11.233696,204.59575,-0.7866783,0.5855342,2.3879757,-16.05687,-12.034649,42.585365,-13.192345,0.297122,-2.295923,-41.285571,38.364875,15.365304
712,542001116,-46.32911,-10.31736,180.95592,-0.54900265,0.5665065,2.247736,-9.650095,-17.994612,46.422153,-13.201495,0.306564,-2.258461,-41.446406,38.064965,16.139007
713,542017783,-42.372665,-9.232101,152.57132,-0.19926548,0.52625704,2.0468707,0.3575635,-25.913265,50.291965,-13.204816,0.315335,-2.224346,-41.440447,37.633077,16.977206
714,542034450,-41.472336,-8.078224,112.676636,0.18046284,0.48870885,1.8245463,11.228014,-34.395535,54.69869,-13.201808,0.32348,-2.193937,-41.253313,37.059818,17.888851
