PacketCounter,SampleTimeFine,Euler_X,Euler_Y,Euler_Z,Acc_X,Acc_Y,Acc_Z,Gyr_X,Gyr_Y,Gyr_Z,Velo_X,Velo_Y,Velo_Z,ANG_X,ANG_Y,ANG_Z
0,529721867,-31.439247,12.660442,-113.30586,-4.1538672,-0.76153827,-1.1157669,-2.795793,-2.2268217,-1.4335599,0.0,0.0,0.0,0.0,0.0,0.0
1,529738534,-31.408737,12.679649,-113.32231,-3.8853846,-0.90664124,-1.2209779,-2.7586453,-2.213106,-1.3715714,-0.064756,-0.015111,-0.02035,-0.045977,-0.036885,-0.02286
2,529755201,-31.376747,12.699951,-113.339386,-3.5935526,-1.064153,-1.3351051,-2.7170181,-2.1979342,-1.3040332,-0.124649,-0.032847,-0.042602,-0.091261,-0.073517,-0.044594
3,529771868,-31.343765,12.721073,-113.3568,-3.2825575,-1.2317846,-1.4564918,-2.6713972,-2.1815321,-1.2319074,-0.179358,-0.053377,-0.066877,-0.135784,-0.109876,-0.065126
4,529788535,-31.299957,12.748829,-113.38016,-2.8672915,-1.456011,-1.6187929,-2.6117103,-2.1592484,-1.1356865,-0.227146,-0.077644,-0.093857,-0.179313,-0.145863,-0.084054
5,529805202,-31.247475,12.78196,-113.40822,-2.365035,-1.7273638,-1.8151413,-2.5398214,-2.1319973,-1.0193087,-0.266563,-0.106433,-0.124109,-0.221643,-0.181396,-0.101042
6,529821869,-31.201424,12.809296,-113.43021,-2.033475,-1.9061806,-1.944492,-2.4906068,-2.115227,-0.9412583,-0.300454,-0.138203,-0.156517,-0.263153,-0.21665,-0.11673
7,529838536,-31.16182,12.830589,-113.44586,-1.8852873,-1.9856288,-2.0018992,-2.4659138,-2.1097531,-0.90436935,-0.331875,-0.171297,-0.189882,-0.304252,-0.251813,-0.131803
8,529855203,-31.122795,12.850414,-113.45955,-1.8085642,-2.0262873,-2.0311785,-2.4502432,-2.108787,-0.8832357,-0.362018,-0.205068,-0.223735,-0.345089,-0.286959,-0.146524
9,529871870,-31.088127,12.8658905,-113.46846,-1.8721552,-1.9908507,-2.0053372,-2.4529305,-2.1164734,-0.8934579,-0.393221,-0.238249,-0.257157,-0.385971,-0.322234,-0.161415
10,529888537,-31.046188,12.885166,-113.48041,-1.9025135,-1.9734709,-1.9924966,-2.4508357,-2.1225305,-0.89557886,-0.42493,-0.27114,-0.290365,-0.426818,-0.35761,-0.176341
11,529905204,-30.996292,12.9087105,-113.49588,-1.8902073,-1.979254,-1.9963471,-2.4426348,-2.126395,-0.8874328,-0.456433,-0.304128,-0.323637,-0.467529,-0.39305,-0.191132
12,529921871,-30.94735,12.930046,-113.50856,-1.9815063,-1.928889,-1.9594995,-2.447956,-2.136799,-0.90221214,-0.489458,-0.336276,-0.356295,-0.508328,-0.428663,-0.206169
13,529938538,-30.896751,12.950939,-113.52013,-2.1405363,-1.8418405,-1.8960336,-2.461998,-2.1516247,-0.931738,-0.525134,-0.366973,-0.387896,-0.549361,-0.464523,-0.221698
14,529955205,-30.847603,12.970795,-113.533264,-2.2161064,-1.8001125,-1.865718,-2.466978,-2.1534095,-0.9448787,-0.562069,-0.396975,-0.418991,-0.590477,-0.500413,-0.237446
15,529971872,-30.801216,12.988758,-113.54744,-2.2128248,-1.8012187,-1.8667933,-2.463777,-2.1415737,-0.9429841,-0.598949,-0.426995,-0.450104,-0.63154,-0.536106,-0.253162
16,529988539,-30.754349,13.006287,-113.562515,-2.1792288,-1.8188384,-1.8800086,-2.4577405,-2.1229854,-0.9355365,-0.635269,-0.457309,-0.481437,-0.672502,-0.571489,-0.268754
17,530005206,-30.708122,13.022953,-113.57898,-2.078846,-1.872762,-1.9198056,-2.4447083,-2.0930204,-0.9151666,-0.669916,-0.488522,-0.513434,-0.713247,-0.606373,-0.284007
18,530021873,-30.662987,13.037422,-113.59372,-2.0386,-1.8941524,-1.936123,-2.440247,-2.0640948,-0.90882444,-0.703893,-0.520091,-0.545703,-0.753918,-0.640775,-0.299154
19,530038540,-30.61879,13.04969,-113.60657,-2.0645962,-1.8797085,-1.9265596,-2.4451284,-2.0367506,-0.9178053,-0.738303,-0.551419,-0.577812,-0.79467,-0.674721,-0.314451
20,530055207,-30.576454,13.059944,-113.61954,-2.0636005,-1.8800056,-1.9279479,-2.4482472,-2.0007694,-0.9226928,-0.772696,-0.582752,-0.609944,-0.835474,-0.708067,-0.329829
21,530071874,-30.536148,13.067802,-113.631836,-2.0634508,-1.8799503,-1.9293202,-2.4530792,-1.9586813,-0.92945445,-0.807087,-0.614085,-0.642099,-0.876359,-0.740712,-0.34532
22,530088541,-30.492195,13.078709,-113.64627,-2.0670652,-1.8780901,-1.9282025,-2.4581232,-1.9363414,-0.9304296,-0.841538,-0.645387,-0.674236,-0.917328,-0.772984,-0.360827
23,530105208,-30.444366,13.09304,-113.66319,-2.0647259,-1.8797138,-1.9283155,-2.4621243,-1.9350102,-0.9228432,-0.87595,-0.676716,-0.706375,-0.958363,-0.805234,-0.376208
24,530121875,-30.395615,13.107861,-113.68082,-2.0748596,-1.874778,-1.9230314,-2.4683325,-1.9441545,-0.91459394,-0.910531,-0.707962,-0.738426,-0.999502,-0.837637,-0.391451
25,530138542,-30.34449,13.124603,-113.699875,-2.0959215,-1.8641632,-1.9125918,-2.4761047,-1.9707842,-0.9030354,-0.945463,-0.739031,-0.770303,-1.04077,-0.870483,-0.406502
26,530155209,-30.294739,13.140045,-113.719315,-2.1029663,-1.8613384,-1.9076279,-2.4836342,-1.9972194,-0.8878007,-0.980512,-0.770053,-0.802097,-1.082164,-0.90377,-0.421299
27,530171876,-30.246689,13.153862,-113.73889,-2.0972729,-1.8656161,-1.9076823,-2.4912229,-2.0227392,-0.8694322,-1.015467,-0.801147,-0.833892,-1.123684,-0.937482,-0.43579
28,530188543,-30.197395,13.1688385,-113.75986,-2.089507,-1.8712838,-1.9078244,-2.4992042,-2.0623555,-0.84567547,-1.050292,-0.832335,-0.865689,-1.165337,-0.971855,-0.449885
29,530205210,-30.147774,13.1842575,-113.78194,-2.0744247,-1.8811824,-1.9102825,-2.507248,-2.1125617,-0.8163824,-1.084866,-0.863688,-0.897527,-1.207124,-1.007064,-0.463491
30,530221877,-30.099968,13.199562,-113.801636,-2.068428,-1.8856175,-1.9107982,-2.5143332,-2.1479936,-0.8006656,-1.11934,-0.895115,-0.929374,-1.24903,-1.042864,-0.476835
31,530238544,-30.053894,13.215073,-113.81879,-2.073268,-1.8835766,-1.9087995,-2.5202732,-2.1682215,-0.79980016,-1.153894,-0.926508,-0.961187,-1.291035,-1.079001,-0.490165
32,530255211,-30.009201,13.230507,-113.8349,-2.0770283,-1.8819001,-1.9080368,-2.525273,-2.1830757,-0.80446935,-1.188511,-0.957873,-0.992988,-1.333123,-1.115386,-0.503573
33,530271878,-29.966461,13.245831,-113.84895,-2.083848,-1.878124,-1.9074782,-2.5289454,-2.1860409,-0.8198011,-1.223242,-0.989175,-1.024779,-1.375272,-1.15182,-0.517236
34,530288545,-29.92382,13.262005,-113.8634,-2.087264,-1.8762405,-1.9081947,-2.5320535,-2.196022,-0.83414936,-1.25803,-1.020446,-1.056582,-1.417473,-1.18842,-0.531138
35,530305212,-29.881302,13.279053,-113.878265,-2.0857086,-1.8771279,-1.9107343,-2.534504,-2.2139897,-0.846684,-1.292792,-1.051731,-1.088428,-1.459715,-1.22532,-0.545249
36,530321879,-29.840363,13.296494,-113.8916,-2.0855713,-1.8768814,-1.9138376,-2.5354927,-2.224979,-0.8676226,-1.327552,-1.083012,-1.120325,-1.501973,-1.262403,-0.559709
37,530338546,-29.800697,13.314556,-113.90384,-2.0849895,-1.8766096,-1.9179403,-2.5350804,-2.2330103,-0.89451003,-1.362302,-1.114289,-1.152291,-1.544224,-1.29962,-0.574618
38,530355213,-29.759811,13.3318405,-113.91728,-2.0848494,-1.876313,-1.9204556,-2.5371912,-2.2400494,-0.90863967,-1.397049,-1.145561,-1.184299,-1.586511,-1.336954,-0.589762
39,530371880,-29.717682,13.348206,-113.93182,-2.0859032,-1.8755677,-1.9210361,-2.5420325,-2.2444348,-0.9095168,-1.431814,-1.17682,-1.216316,-1.628878,-1.374361,-0.604921
40,530388547,-29.675278,13.364498,-113.94673,-2.0862179,-1.875251,-1.9213158,-2.5477095,-2.2479126,-0.90436363,-1.466584,-1.208074,-1.248338,-1.67134,-1.411826,-0.619994
41,530405214,-29.632004,13.380344,-113.96254,-2.0861883,-1.875262,-1.9205579,-2.555251,-2.2504513,-0.8882766,-1.501354,-1.239328,-1.280347,-1.713928,-1.449334,-0.634799
42,530421881,-29.589745,13.39645,-113.9774,-2.0861778,-1.8749983,-1.9202577,-2.5620282,-2.2469654,-0.87469625,-1.536124,-1.270578,-1.312351,-1.756628,-1.486783,-0.649377
43,530438548,-29.548622,13.412899,-113.99121,-2.0859432,-1.8745668,-1.9205922,-2.5678349,-2.2373269,-0.86421466,-1.57089,-1.301821,-1.344361,-1.799425,-1.524072,-0.663781
44,530455215,-29.507164,13.429024,-114.00531,-2.0856285,-1.8741796,-1.9201878,-2.5748444,-2.2238126,-0.84588003,-1.60565,-1.333057,-1.376364,-1.842339,-1.561136,-0.677879
45,530471882,-29.465782,13.444996,-114.01932,-2.0852318,-1.8737457,-1.9193896,-2.582472,-2.2051547,-0.8224504,-1.640404,-1.364286,-1.408354,-1.88538,-1.597889,-0.691587
46,530488549,-29.424248,13.461475,-114.03369,-2.0846338,-1.8736389,-1.9187347,-2.5863318,-2.197734,-0.80711627,-1.675148,-1.395513,-1.440333,-1.928486,-1.634518,-0.705039
47,530505216,-29.382378,13.478458,-114.04863,-2.0838537,-1.8739097,-1.9180971,-2.5862393,-2.2031474,-0.79976106,-1.709879,-1.426745,-1.472301,-1.97159,-1.671237,-0.718368
48,530521883,-29.340553,13.495731,-114.0636,-2.0829115,-1.8743298,-1.9174608,-2.5838447,-2.212588,-0.79593706,-1.744594,-1.457984,-1.504259,-2.014654,-1.708113,-0.731634
49,530538550,-29.298645,13.513458,-114.0788,-2.081788,-1.8750055,-1.9169184,-2.5779548,-2.230601,-0.79894996,-1.77929,-1.489234,-1.536208,-2.05762,-1.74529,-0.74495
50,530555217,-29.256454,13.531086,-114.0943,-2.080453,-1.8758404,-1.9158455,-2.571611,-2.2481089,-0.798187,-1.813964,-1.520498,-1.568139,-2.10048,-1.782758,-0.758253
51,530571884,-29.21402,13.548603,-114.11005,-2.0788956,-1.8768237,-1.9142193,-2.564901,-2.2643697,-0.79318786,-1.848612,-1.551778,-1.600043,-2.143228,-1.820497,-0.771473
52,530588551,-29.171295,13.566429,-114.12616,-2.0771122,-1.8780978,-1.9124125,-2.5552394,-2.2878704,-0.7920346,-1.883231,-1.58308,-1.631917,-2.185815,-1.858628,-0.784674
53,530605218,-29.128227,13.5844345,-114.142685,-2.0750914,-1.8796499,-1.9102808,-2.5432086,-2.3167217,-0.7924695,-1.917816,-1.614407,-1.663755,-2.228202,-1.89724,-0.797882
54,530621885,-29.087517,13.60191,-114.156784,-2.0738811,-1.8806322,-1.909391,-2.537396,-2.3348248,-0.79944134,-1.952381,-1.645751,-1.695578,-2.270492,-1.936154,-0.811206
55,530638552,-29.04943,13.61882,-114.16815,-2.0735807,-1.8809893,-1.9099263,-2.5382957,-2.3417938,-0.81441975,-1.986941,-1.677101,-1.72741,-2.312797,-1.975184,-0.82478
56,530655219,-29.012604,13.635437,-114.17828,-2.073679,-1.88112,-1.9110352,-2.542212,-2.3440528,-0.83356524,-2.021502,-1.708453,-1.759261,-2.355167,-2.014252,-0.838673
57,530671886,-28.977821,13.651558,-114.18628,-2.0744762,-1.8807938,-1.9131674,-2.551484,-2.3374372,-0.8586061,-2.056077,-1.7398,-1.791147,-2.397692,-2.053209,-0.852983
58,530688553,-28.94349,13.667702,-114.19385,-2.0753546,-1.8805468,-1.9155062,-2.560408,-2.3334715,-0.888849,-2.090666,-1.771142,-1.823072,-2.440365,-2.0921,-0.867797
59,530705220,-28.90953,13.683891,-114.20102,-2.0762835,-1.8804114,-1.9179925,-2.568716,-2.332753,-0.9241985,-2.125271,-1.802482,-1.855039,-2.483177,-2.130979,-0.8832
60,530721887,-28.87738,13.699669,-114.20636,-2.077835,-1.8799217,-1.9214367,-2.5813146,-2.3259752,-0.96668434,-2.159902,-1.833814,-1.887063,-2.526199,-2.169745,-0.899311
61,530738554,-28.846748,13.715168,-114.2101,-2.079894,-1.8791888,-1.9256793,-2.597062,-2.3155644,-1.0163459,-2.194567,-1.865134,-1.919158,-2.569483,-2.208338,-0.91625
62,530755221,-28.813309,13.730362,-114.21672,-2.0809593,-1.8783844,-1.9277052,-2.6042924,-2.3048186,-1.0425533,-2.22925,-1.89644,-1.951286,-2.612888,-2.246752,-0.933626
63,530771888,-28.77684,13.745216,-114.226395,-2.0809708,-1.8774569,-1.9273366,-2.6025193,-2.2928765,-1.0427417,-2.263933,-1.927731,-1.983408,-2.656263,-2.284967,-0.951005
64,530788555,-28.739197,13.759758,-114.23721,-2.0805683,-1.8763974,-1.9259065,-2.5965328,-2.2797673,-1.0315392,-2.298609,-1.959004,-2.015506,-2.699539,-2.322963,-0.968197
65,530805222,-28.699196,13.773968,-114.2504,-2.0793571,-1.8752272,-1.9225966,-2.5832205,-2.2660403,-1.0003914,-2.333265,-1.990258,-2.047549,-2.742593,-2.36073,-0.98487
66,530821889,-28.659767,13.787724,-114.26297,-2.0783653,-1.8737218,-1.9193724,-2.5706744,-2.247304,-0.96766925,-2.367904,-2.021487,-2.079539,-2.785438,-2.398185,-1.000998
67,530838556,-28.62104,13.801006,-114.274734,-2.077649,-1.871866,-1.9163364,-2.5592752,-2.2233887,-0.93437326,-2.402531,-2.052685,-2.111478,-2.828093,-2.435241,-1.016571
68,530855223,-28.580582,13.813835,-114.28822,-2.0763588,-1.8697822,-1.9117914,-2.5422735,-2.1968155,-0.883739,-2.437137,-2.083848,-2.143341,-2.870464,-2.471855,-1.0313
69,530871890,-28.538948,13.826172,-114.30281,-2.0747051,-1.8674104,-1.9061342,-2.5213208,-2.1665397,-0.81937504,-2.471715,-2.114972,-2.17511,-2.912486,-2.507964,-1.044956
70,530888557,-28.499222,13.839458,-114.315735,-2.073906,-1.8660629,-1.9030043,-2.508881,-2.147273,-0.7802198,-2.50628,-2.146073,-2.206827,-2.954301,-2.543752,-1.05796
71,530905224,-28.46135,13.853817,-114.32703,-2.0739698,-1.8658726,-1.902531,-2.5053017,-2.1406343,-0.7676792,-2.540846,-2.177171,-2.238536,-2.996056,-2.579429,-1.070755
72,530921891,-28.424286,13.86853,-114.33765,-2.0744648,-1.8661768,-1.903247,-2.5057626,-2.1388774,-0.765501,-2.57542,-2.208274,-2.270257,-3.037819,-2.615077,-1.083513
73,530938558,-28.388748,13.883995,-114.34685,-2.0757084,-1.8673484,-1.9061159,-2.5135405,-2.1462104,-0.78391147,-2.610015,-2.239396,-2.302026,-3.079711,-2.650847,-1.096578
74,530955225,-28.352348,13.89938,-114.356995,-2.076768,-1.8686521,-1.9085723,-2.5196018,-2.1546998,-0.79570246,-2.644628,-2.27054,-2.333836,-3.121704,-2.686759,-1.10984
75,530971892,-28.314926,13.914612,-114.368164,-2.077612,-1.8700469,-1.9104968,-2.5235486,-2.1638284,-0.799407,-2.679255,-2.301707,-2.365678,-3.163763,-2.722823,-1.123163
76,530988559,-28.278336,13.930477,-114.37866,-2.0789661,-1.8722327,-1.9140028,-2.5327277,-2.1813169,-0.8173833,-2.713904,-2.332911,-2.397578,-3.205975,-2.759178,-1.136786
77,531005226,-28.242043,13.946808,-114.38898,-2.0806437,-1.8750675,-1.9185637,-2.5452828,-2.2056317,-0.8439286,-2.748581,-2.364162,-2.429554,-3.248396,-2.795939,-1.150851
78,531021893,-28.20617,13.961956,-114.39879,-2.0816402,-1.8766949,-1.9213117,-2.5524735,-2.2189593,-0.85845685,-2.783275,-2.39544,-2.461576,-3.290937,-2.832922,-1.165159
79,531038560,-28.170906,13.975864,-114.40782,-2.0819492,-1.8770373,-1.9222385,-2.554386,-2.220735,-0.8618064,-2.817974,-2.426724,-2.493613,-3.33351,-2.869934,-1.179522
80,531055227,-28.135864,13.989208,-114.416595,-2.081914,-1.8768914,-1.9223591,-2.553946,-2.2185235,-0.8599613,-2.852673,-2.458006,-2.525652,-3.376076,-2.906909,-1.193855
81,531071894,-28.101112,14.00156,-114.42497,-2.081276,-1.8757675,-1.9209434,-2.548965,-2.2077103,-0.8479748,-2.887361,-2.489269,-2.557668,-3.418559,-2.943704,-1.207988
82,531088561,-28.067085,14.014088,-114.43271,-2.0808077,-1.8749406,-1.9202236,-2.5464962,-2.2007844,-0.84368014,-2.922041,-2.520518,-2.589672,-3.461001,-2.980384,-1.222049
83,531105228,-28.033737,14.026844,-114.439865,-2.0805387,-1.8744824,-1.920297,-2.5468423,-2.1984978,-0.84781027,-2.956717,-2.551759,-2.621677,-3.503448,-3.017026,-1.236179
84,531121895,-28.000977,14.038883,-114.446365,-2.0798588,-1.8733366,-1.9194304,-2.5446382,-2.1907072,-0.8473849,-2.991381,-2.582981,-2.653668,-3.545859,-3.053538,-1.250302
85,531138562,-27.968903,14.050457,-114.45218,-2.078927,-1.8717692,-1.9180943,-2.541384,-2.1800919,-0.84626603,-3.02603,-2.614177,-2.685636,-3.588215,-3.089873,-1.264406
86,531155229,-27.93634,14.06271,-114.458694,-2.0784264,-1.8710043,-1.917056,-2.5398755,-2.1756032,-0.84334135,-3.06067,-2.64536,-2.717587,-3.630546,-3.126133,-1.278462
87,531171896,-27.903221,14.075653,-114.46597,-2.078352,-1.8710253,-1.9161807,-2.539764,-2.1768777,-0.8370886,-3.095309,-2.676544,-2.749523,-3.672875,-3.162414,-1.292413
88,531188563,-27.870163,14.088882,-114.47333,-2.0784807,-1.8714321,-1.9154211,-2.5407562,-2.1815014,-0.8307433,-3.12995,-2.707735,-2.781447,-3.715221,-3.198772,-1.306259
89,531205230,-27.836876,14.102722,-114.48108,-2.078989,-1.8725283,-1.9149317,-2.5434763,-2.191655,-0.823637,-3.1646,-2.738944,-2.813363,-3.757612,-3.2353,-1.319986
90,531221897,-27.804024,14.116219,-114.488434,-2.0793056,-1.8733332,-1.9138085,-2.5449042,-2.199569,-0.8130808,-3.199255,-2.770166,-2.84526,-3.800027,-3.271959,-1.333537
91,531238564,-27.771599,14.12936,-114.49533,-2.0794134,-1.8738029,-1.9120265,-2.5449867,-2.2049935,-0.79925466,-3.233912,-2.801396,-2.877127,-3.842443,-3.308709,-1.346858
92,531255231,-27.739098,14.142845,-114.5025,-2.0797358,-1.8746893,-1.9101547,-2.5457416,-2.2136383,-0.7828214,-3.268574,-2.832641,-2.908963,-3.884872,-3.345603,-1.359905
93,531271898,-27.70662,14.15649,-114.50975,-2.0801582,-1.8757818,-1.9079906,-2.546527,-2.2238681,-0.7631662,-3.303243,-2.863904,-2.940763,-3.927314,-3.382667,-1.372624
94,531288565,-27.676216,14.169476,-114.51494,-2.0804882,-1.8763301,-1.9069556,-2.5500772,-2.2315166,-0.754652,-3.337918,-2.895176,-2.972546,-3.969815,-3.419859,-1.385202
95,531305232,-27.647964,14.181812,-114.518005,-2.080761,-1.8763454,-1.9072393,-2.5568714,-2.2368138,-0.75860095,-3.372597,-2.926448,-3.004333,-4.01243,-3.457139,-1.397845
96,531321899,-27.621048,14.193756,-114.51979,-2.0809813,-1.8760402,-1.9080223,-2.5651736,-2.2405968,-0.7677252,-3.40728,-2.957715,-3.036133,-4.055183,-3.494482,-1.41064
97,531338566,-27.595985,14.20512,-114.519714,-2.081112,-1.8752215,-1.9097172,-2.5758166,-2.2418382,-0.78603315,-3.441965,-2.988969,-3.067962,-4.098113,-3.531846,-1.423741
98,531355233,-27.571548,14.21653,-114.51918,-2.0813751,-1.8745215,-1.9116458,-2.587771,-2.2444599,-0.8054123,-3.476655,-3.020211,-3.099823,-4.141243,-3.569254,-1.437165
99,531371900,-27.547668,14.228016,-114.51819,-2.0817728,-1.8739555,-1.9137527,-2.6009405,-2.2485251,-0.8253286,-3.511351,-3.051444,-3.131719,-4.184592,-3.606729,-1.45092
100,531388567,-27.525482,14.239082,-114.51555,-2.0821648,-1.8730414,-1.9167465,-2.6166017,-2.25119,-0.8533666,-3.546054,-3.082661,-3.163665,-4.228202,-3.644249,-1.465143
101,531405234,-27.504723,14.249847,-114.51155,-2.0825987,-1.8719065,-1.9204971,-2.6345801,-2.253251,-0.88791037,-3.580764,-3.113859,-3.195673,-4.272112,-3.681803,-1.479942
102,531421901,-27.483414,14.260803,-114.50865,-2.0831127,-1.8712628,-1.9225658,-2.652751,-2.2588496,-0.90290403,-3.615483,-3.145047,-3.227716,-4.316325,-3.71945,-1.49499
103,531438568,-27.461502,14.2719345,-114.50691,-2.0836964,-1.8711178,-1.9228233,-2.6711497,-2.268071,-0.89684916,-3.650211,-3.176232,-3.259763,-4.360844,-3.757251,-1.509937
104,531455235,-27.439796,14.283108,-114.505295,-2.0843678,-1.8712237,-1.922351,-2.6907325,-2.2795007,-0.88104486,-3.68495,-3.207419,-3.291802,-4.40569,-3.795243,-1.524621
105,531471902,-27.417786,14.29443,-114.50444,-2.0851402,-1.8717654,-1.9204956,-2.7110138,-2.2942412,-0.8484106,-3.719702,-3.238615,-3.32381,-4.450874,-3.83348,-1.538761
106,531488569,-27.397003,14.305492,-114.50261,-2.0859547,-1.8721974,-1.9188627,-2.7336206,-2.3091087,-0.8160391,-3.754468,-3.269818,-3.355791,-4.496434,-3.871965,-1.552362
107,531505236,-27.377518,14.316288,-114.49971,-2.086814,-1.8725007,-1.917544,-2.7587132,-2.3240108,-0.78475475,-3.789248,-3.301026,-3.38775,-4.542413,-3.910699,-1.565441
108,531521903,-27.358162,14.327106,-114.49718,-2.087759,-1.8731067,-1.9151715,-2.7851186,-2.34151,-0.73980117,-3.824044,-3.332244,-3.41967,-4.588832,-3.949724,-1.577771
109,531538570,-27.339256,14.337879,-114.49454,-2.0887823,-1.8739059,-1.9120764,-2.8132415,-2.3609743,-0.6846032,-3.858857,-3.363476,-3.451538,-4.635719,-3.989074,-1.589181
110,531555237,-27.322174,14.349117,-114.49022,-2.0885038,-1.8744338,-1.910962,-2.832055,-2.373566,-0.6527462,-3.893665,-3.394717,-3.483387,-4.68292,-4.028633,-1.60006
111,531571904,-27.30687,14.360931,-114.484116,-2.0867882,-1.8746984,-1.9119159,-2.840333,-2.3787303,-0.6455362,-3.928445,-3.425962,-3.515252,-4.730259,-4.068279,-1.610819
112,531588571,-27.292984,14.373001,-114.47685,-2.0842752,-1.8748477,-1.9138774,-2.8435566,-2.38022,-0.6492605,-3.963183,-3.457209,-3.54715,-4.777652,-4.107949,-1.62164
113,531605238,-27.280846,14.385506,-114.467896,-2.0805664,-1.8747671,-1.9175614,-2.8385143,-2.3755944,-0.67283916,-3.997859,-3.488455,-3.579109,-4.824961,-4.147542,-1.632854
114,531621905,-27.269402,14.398197,-114.458694,-2.0764675,-1.8748438,-1.9210442,-2.8313022,-2.3706634,-0.69280076,-4.032467,-3.519702,-3.611126,-4.872149,-4.187053,-1.644401
115,531638572,-27.258614,14.411076,-114.44925,-2.0720034,-1.8750956,-1.9242412,-2.822198,-2.365661,-0.7080262,-4.067,-3.550954,-3.643197,-4.919186,-4.226481,-1.656201
116,531655239,-27.249344,14.424408,-114.43852,-2.066412,-1.8752306,-1.928734,-2.805231,-2.3555126,-0.7379749,-4.10144,-3.582208,-3.675343,-4.96594,-4.26574,-1.668501
117,531671906,-27.241379,14.438171,-114.42676,-2.0598364,-1.8753321,-1.934131,-2.7815084,-2.3413482,-0.7778325,-4.135771,-3.613464,-3.707579,-5.012298,-4.304762,-1.681465
118,531688573,-27.22927,14.4482155,-114.41661,-2.0561018,-1.8752258,-1.9377719,-2.7398932,-2.3149242,-0.8192949,-4.170039,-3.644718,-3.739875,-5.057963,-4.343344,-1.69512
119,531705240,-27.21257,14.454163,-114.40817,-2.0554743,-1.8748586,-1.9396003,-2.6782074,-2.2746222,-0.8641722,-4.204297,-3.675966,-3.772202,-5.1026,-4.381254,-1.709523
120,531721907,-27.19371,14.457954,-114.40047,-2.0562248,-1.8743708,-1.9406179,-2.6021326,-2.224915,-0.9133817,-4.238567,-3.707206,-3.804546,-5.145969,-4.418336,-1.724746
121,531738574,-27.171143,14.458427,-114.394135,-2.0594072,-1.8737009,-1.9401304,-2.5079362,-2.1630783,-0.9654975,-4.27289,-3.738434,-3.836882,-5.187768,-4.454387,-1.740838
122,531755241,-27.148247,14.458012,-114.387405,-2.0625906,-1.8728745,-1.9401058,-2.400095,-2.0923092,-1.0307167,-4.307267,-3.769649,-3.869217,-5.22777,-4.489259,-1.758017
123,531771908,-27.125122,14.456844,-114.38022,-2.06565,-1.8718946,-1.9406289,-2.278436,-2.0125642,-1.1096158,-4.341694,-3.800847,-3.901561,-5.265744,-4.522802,-1.776511
124,531788575,-27.098724,14.45261,-114.37407,-2.0707273,-1.870692,-1.9401194,-2.1370006,-1.9195676,-1.1962712,-4.376206,-3.832025,-3.933896,-5.301361,-4.554795,-1.796449
125,531805242,-27.069664,14.445782,-114.36867,-2.077344,-1.8692658,-1.9389826,-1.976162,-1.8136271,-1.2931983,-4.410828,-3.863179,-3.966212,-5.334297,-4.585022,-1.818002
126,531821909,-27.041588,14.442085,-114.36412,-2.0811653,-1.8679383,-1.9371871,-1.8719311,-1.7362902,-1.3287492,-4.445514,-3.894311,-3.998498,-5.365496,-4.61396,-1.840148
127,531838576,-27.01435,14.441746,-114.36069,-2.0820704,-1.8667223,-1.9345206,-1.8306639,-1.6908069,-1.2953471,-4.480215,-3.925423,-4.03074,-5.396007,-4.64214,-1.861737
128,531855243,-26.986588,14.442303,-114.35808,-2.0818062,-1.8654578,-1.9312555,-1.8163891,-1.6574991,-1.2286255,-4.514912,-3.956514,-4.062928,-5.42628,-4.669765,-1.882214
129,531871910,-26.959114,14.445248,-114.356415,-2.0792456,-1.8642256,-1.9273092,-1.8503854,-1.647873,-1.1079333,-4.549566,-3.987584,-4.09505,-5.45712,-4.69723,-1.90068
130,531888577,-26.928902,14.446602,-114.356125,-2.077488,-1.8628151,-1.9222611,-1.8866272,-1.6364083,-0.9732697,-4.584191,-4.018631,-4.127088,-5.488564,-4.724503,-1.916901
131,531905244,-26.89576,14.446152,-114.35724,-2.0766964,-1.8612058,-1.9160875,-1.9227074,-1.6216656,-0.82662916,-4.618803,-4.049651,-4.159023,-5.520609,-4.751531,-1.930678
132,531921911,-26.86177,14.447147,-114.35974,-2.074357,-1.8595698,-1.9088889,-2.0005355,-1.626536,-0.62935686,-4.653376,-4.080644,-4.190838,-5.553951,-4.77864,-1.941167
133,531938578,-26.826218,14.448746,-114.363754,-2.0711203,-1.857857,-1.9005407,-2.1111107,-1.6459196,-0.3888905,-4.687895,-4.111608,-4.222514,-5.589136,-4.806072,-1.947649
134,531955245,-26.794289,14.450909,-114.36589,-2.0699244,-1.8580725,-1.8947889,-2.1862974,-1.6668295,-0.25239754,-4.722394,-4.142576,-4.254094,-5.625574,-4.833852,-1.951856
135,531971912,-26.766647,14.454063,-114.365906,-2.0707455,-1.86044,-1.891976,-2.225603,-1.6913806,-0.22850847,-4.756906,-4.173583,-4.285627,-5.662667,-4.862042,-1.955664
136,531988579,-26.740341,14.457684,-114.36549,-2.0726328,-1.8639886,-1.8902165,-2.256046,-1.7227733,-0.2518618,-4.79145,-4.204649,-4.317131,-5.700268,-4.890755,-1.959862
137,532005246,-26.716835,14.461891,-114.36372,-2.0763292,-1.8693054,-1.8905584,-2.2605848,-1.7586629,-0.36230993,-4.826055,-4.235804,-4.34864,-5.737944,-4.920066,-1.9659
138,532021913,-26.693695,14.467579,-114.3627,-2.0794716,-1.8752849,-1.8908247,-2.2906008,-1.8130821,-0.4636507,-4.860713,-4.267059,-4.380154,-5.776121,-4.950284,-1.973628
139,532038580,-26.670715,14.474789,-114.36255,-2.0819702,-1.8818848,-1.8908757,-2.3492243,-1.8871338,-0.5507581,-4.895413,-4.298424,-4.411669,-5.815275,-4.981736,-1.982807
140,532055247,-26.650475,14.483265,-114.361496,-2.0856419,-1.8901999,-1.8927215,-2.3967128,-1.9724305,-0.7064693,-4.930174,-4.329927,-4.443214,-5.85522,-5.01461,-1.994581
141,532071914,-26.632507,14.493252,-114.359955,-2.0899935,-1.9000356,-1.8959261,-2.4444015,-2.072569,-0.9112141,-4.965007,-4.361594,-4.474813,-5.89596,-5.049153,-2.009768
142,532088581,-26.61628,14.497566,-114.35361,-2.091753,-1.9049942,-1.8979264,-2.470318,-2.127696,-1.051631,-4.99987,-4.393344,-4.506445,-5.937132,-5.084615,-2.027295
143,532105248,-26.602188,14.495548,-114.34177,-2.0908108,-1.9046104,-1.8987671,-2.4676533,-2.1313984,-1.1279099,-5.034717,-4.425088,-4.538091,-5.97826,-5.120138,-2.046093
144,532121915,-26.590279,14.490799,-114.32675,-2.0883722,-1.9017999,-1.8994066,-2.4546053,-2.1147819,-1.1813943,-5.069523,-4.456785,-4.569748,-6.01917,-5.155384,-2.065783
145,532138582,-26.580582,14.481304,-114.307205,-2.0835562,-1.8947923,-1.899228,-2.4235172,-2.0607526,-1.1837242,-5.104249,-4.488365,-4.601402,-6.059562,-5.18973,-2.085512
146,532155249,-26.574211,14.471233,-114.28511,-2.0787268,-1.8876069,-1.9002758,-2.3771176,-2.0023513,-1.2231553,-5.138894,-4.519825,-4.633073,-6.099181,-5.223103,-2.105898
147,532171916,-26.57132,14.4608345,-114.26048,-2.0739613,-1.8804448,-1.9026805,-2.3161154,-1.9416668,-1.3042125,-5.17346,-4.551166,-4.664784,-6.137783,-5.255464,-2.127635
148,532188583,-26.57154,14.446259,-114.23108,-2.067296,-1.8697312,-1.9049278,-2.2317872,-1.8469363,-1.3591493,-5.207915,-4.582328,-4.696533,-6.174979,-5.286246,-2.150287
149,532205250,-26.575256,14.428329,-114.19714,-2.0591984,-1.8562605,-1.907482,-2.1240544,-1.7245711,-1.4070455,-5.242235,-4.613266,-4.728324,-6.21038,-5.314989,-2.173738
150,532221917,-26.572838,14.414589,-114.170715,-2.0538988,-1.8490732,-1.9080273,-2.0596743,-1.6553022,-1.443013,-5.276467,-4.644084,-4.760124,-6.244708,-5.342577,-2.197788
151,532238584,-26.563393,14.405205,-114.1525,-2.0515566,-1.8485577,-1.906171,-2.0430574,-1.642275,-1.4586194,-5.31066,-4.674893,-4.791894,-6.278759,-5.369948,-2.222098
152,532255251,-26.551857,14.397118,-114.13695,-2.050457,-1.85093,-1.9033364,-2.0418174,-1.6509967,-1.4692366,-5.344834,-4.705742,-4.823616,-6.312789,-5.397465,-2.246585
153,532271918,-26.535507,14.392269,-114.12724,-2.0517225,-1.8585966,-1.8988162,-2.073874,-1.7026697,-1.4711429,-5.379029,-4.736719,-4.855263,-6.347354,-5.425843,-2.271104
154,532288585,-26.520004,14.385208,-114.11577,-2.0523443,-1.8653376,-1.8935841,-2.09763,-1.7416784,-1.4497162,-5.413235,-4.767808,-4.886823,-6.382315,-5.454871,-2.295266
155,532305252,-26.505753,14.3756485,-114.10205,-2.0521822,-1.8708417,-1.8877188,-2.1101346,-1.7648518,-1.4052566,-5.447438,-4.798989,-4.918285,-6.417484,-5.484285,-2.318687
156,532321919,-26.487556,14.367928,-114.0927,-2.0537071,-1.8803008,-1.8800863,-2.1475375,-1.8181034,-1.3409375,-5.481666,-4.830327,-4.94962,-6.453276,-5.514587,-2.341036
157,532338586,-26.466553,14.360897,-114.086075,-2.0563002,-1.8924367,-1.8708555,-2.201024,-1.8897133,-1.2529808,-5.515938,-4.861868,-4.980801,-6.48996,-5.546082,-2.361919
158,532355253,-26.454674,14.34861,-114.07007,-2.0567598,-1.8985856,-1.8656589,-2.2266486,-1.9270284,-1.2644038,-5.550217,-4.893511,-5.011895,-6.527071,-5.578199,-2.382992
159,532371920,-26.452347,14.331009,-114.0443,-2.055089,-1.8985698,-1.864858,-2.2248735,-1.9306887,-1.3866192,-5.584468,-4.925154,-5.042976,-6.564152,-5.610377,-2.406102
160,532388587,-26.454674,14.310089,-114.01346,-2.0523996,-1.8956501,-1.8658675,-2.210712,-1.9177948,-1.5583216,-5.618675,-4.956748,-5.074074,-6.600997,-5.64234,-2.432074
161,532405254,-26.464752,14.284317,-113.974396,-2.047883,-1.8875711,-1.8702163,-2.173231,-1.8751512,-1.8140714,-5.652806,-4.988208,-5.105244,-6.637218,-5.673593,-2.462309
162,532421921,-26.474403,14.258194,-113.93593,-2.044054,-1.8807371,-1.8743206,-2.147189,-1.8452115,-2.0832217,-5.686874,-5.019554,-5.136483,-6.673004,-5.704347,-2.497029
163,532438588,-26.483162,14.231876,-113.89844,-2.0410242,-1.8754256,-1.8779734,-2.1341643,-1.8296497,-2.3615263,-5.720891,-5.050811,-5.167783,-6.708573,-5.734841,-2.536388
164,532455255,-26.497894,14.201759,-113.85474,-2.03685,-1.8664978,-1.8842987,-2.1076393,-1.7960984,-2.7149336,-5.754838,-5.081919,-5.199188,-6.7437,-5.764776,-2.581637
165,532471922,-26.516869,14.168739,-113.806625,-2.0320606,-1.8552763,-1.8925639,-2.075039,-1.7534926,-3.129567,-5.788706,-5.11284,-5.230731,-6.778284,-5.794001,-2.633796
166,532488589,-26.532303,14.135475,-113.763,-2.030099,-1.8456628,-1.8962358,-2.0629168,-1.7269187,-3.3706763,-5.822541,-5.143601,-5.262335,-6.812666,-5.822783,-2.689974
167,532505256,-26.544281,14.101757,-113.72383,-2.0310793,-1.8373821,-1.8950917,-2.0708694,-1.715045,-3.4245026,-5.856392,-5.174224,-5.29392,-6.84718,-5.851367,-2.747049
168,532521923,-26.55542,14.066895,-113.68605,-2.0337496,-1.8294532,-1.8917507,-2.0915236,-1.7121005,-3.3934128,-5.890288,-5.204715,-5.325449,-6.882039,-5.879902,-2.803606
169,532538590,-26.56379,14.031475,-113.65193,-2.0390358,-1.8227737,-1.8844873,-2.1316857,-1.7241858,-3.2135553,-5.924272,-5.235095,-5.356857,-6.917567,-5.908638,-2.857165
170,532555257,-26.575737,13.992924,-113.614426,-2.0444498,-1.813689,-1.8779167,-2.1692019,-1.7282237,-3.0385919,-5.958346,-5.265323,-5.388156,-6.95372,-5.937442,-2.907808
171,532571924,-26.59156,13.951118,-113.57321,-2.04992,-1.8020465,-1.8722554,-2.2035851,-1.7236367,-2.8760276,-5.992511,-5.295357,-5.41936,-6.990446,-5.966169,-2.955742
172,532588591,-26.606453,13.907803,-113.53369,-2.0575094,-1.7903907,-1.863706,-2.25184,-1.7271072,-2.593043,-6.026803,-5.325197,-5.450422,-7.027977,-5.994954,-2.998959
173,532605258,-26.621796,13.862404,-113.494415,-2.0667343,-1.7779114,-1.8532163,-2.3095345,-1.7338247,-2.2204485,-6.061249,-5.354829,-5.481309,-7.066469,-6.023851,-3.035966
174,532621925,-26.6362,13.827705,-113.45763,-2.0709095,-1.7706444,-1.8463086,-2.3491583,-1.7643933,-1.9601693,-6.095764,-5.38434,-5.512081,-7.105622,-6.053258,-3.068635
175,532638592,-26.64891,13.805187,-113.424225,-2.069646,-1.7694547,-1.8430365,-2.3701031,-1.8228474,-1.8136206,-6.130258,-5.413831,-5.542798,-7.145124,-6.083639,-3.098862
176,532655259,-26.66159,13.788418,-113.392136,-2.0657902,-1.7709281,-1.8414079,-2.3824687,-1.8963065,-1.7043039,-6.164688,-5.443346,-5.573488,-7.184832,-6.115244,-3.127267
177,532671926,-26.673637,13.781124,-113.362274,-2.057518,-1.7768643,-1.8428413,-2.3790207,-1.9913087,-1.6832572,-6.19898,-5.47296,-5.604202,-7.224482,-6.148432,-3.155321
178,532688593,-26.684624,13.776375,-113.33473,-2.0492716,-1.7844303,-1.8431181,-2.3804612,-2.100646,-1.5966963,-6.233135,-5.502701,-5.634921,-7.264156,-6.183443,-3.181933
179,532705260,-26.694603,13.773842,-113.30951,-2.0412493,-1.7934415,-1.8420557,-2.3876028,-2.2238748,-1.4364895,-6.267156,-5.532592,-5.665622,-7.303949,-6.220508,-3.205874
180,532721927,-26.703194,13.780418,-113.28735,-2.0296173,-1.8069575,-1.8429743,-2.3838248,-2.3707643,-1.32223,-6.300983,-5.562708,-5.696338,-7.343679,-6.260021,-3.227911
181,532738594,-26.710289,13.794861,-113.26843,-2.015257,-1.8244741,-1.8449935,-2.3733592,-2.5403438,-1.2207648,-6.334571,-5.593116,-5.727088,-7.383235,-6.30236,-3.248257
182,532755261,-26.727356,13.794125,-113.237305,-2.0084085,-1.8336651,-1.8473312,-2.3781562,-2.6596048,-1.2222589,-6.368044,-5.623677,-5.757877,-7.422871,-6.346687,-3.268628
183,532771928,-26.755402,13.777058,-113.19261,-2.0095596,-1.8338249,-1.8503281,-2.3982594,-2.723201,-1.3502845,-6.401537,-5.654241,-5.788716,-7.462842,-6.392074,-3.291133
184,532788595,-26.788864,13.753891,-113.14192,-2.014433,-1.8305361,-1.8537766,-2.4260526,-2.7654395,-1.5401716,-6.435111,-5.68475,-5.819612,-7.503276,-6.438165,-3.316803
185,532805262,-26.83091,13.718506,-113.08092,-2.025776,-1.8204882,-1.8575901,-2.467134,-2.7662616,-1.8224959,-6.468874,-5.715091,-5.850572,-7.544395,-6.484269,-3.347178
186,532821929,-26.874779,13.68626,-113.01883,-2.0366125,-1.8117092,-1.8631226,-2.5042605,-2.7709546,-2.1765878,-6.502818,-5.745286,-5.881624,-7.586133,-6.530452,-3.383454
187,532838596,-26.92009,13.658077,-112.95621,-2.0466156,-1.8046706,-1.8704203,-2.5367146,-2.782126,-2.6006873,-6.536928,-5.775364,-5.912798,-7.628412,-6.576821,-3.426799
188,532855263,-26.973076,13.620983,-112.88466,-2.061675,-1.7924984,-1.8787869,-2.577876,-2.7595556,-3.1346397,-6.571289,-5.805239,-5.944111,-7.671377,-6.622814,-3.479043
189,532871930,-27.03241,13.578194,-112.805984,-2.0803804,-1.7768538,-1.888553,-2.6241302,-2.7123818,-3.7771463,-6.605962,-5.834853,-5.975587,-7.715113,-6.66802,-3.541995
190,532888597,-27.088875,13.541061,-112.73233,-2.0875225,-1.7645166,-1.8951725,-2.6535282,-2.6947377,-4.1445785,-6.640754,-5.864262,-6.007173,-7.759338,-6.712932,-3.611071
191,532905264,-27.142517,13.509022,-112.663605,-2.0823717,-1.755223,-1.898173,-2.6654725,-2.7062361,-4.207813,-6.67546,-5.893516,-6.038809,-7.803763,-6.758036,-3.681201
192,532921931,-27.196907,13.478756,-112.5952,-2.0711899,-1.746824,-1.8999678,-2.6678443,-2.7268336,-4.1499434,-6.70998,-5.92263,-6.070475,-7.848227,-6.803483,-3.750367
193,532938598,-27.24974,13.452919,-112.53009,-2.0498705,-1.7409289,-1.8992738,-2.6547854,-2.7698636,-3.8654473,-6.744145,-5.951645,-6.10213,-7.892473,-6.849647,-3.814791
194,532955265,-27.308197,13.421524,-112.45892,-2.0287895,-1.7317688,-1.8985804,-2.642481,-2.7928915,-3.5894895,-6.777958,-5.980508,-6.133773,-7.936514,-6.896195,-3.874616
195,532971932,-27.372688,13.384087,-112.381195,-2.008397,-1.7190502,-1.8980681,-2.631441,-2.7935095,-3.3361545,-6.811431,-6.009159,-6.165407,-7.980371,-6.942753,-3.930219
196,532988599,-27.437813,13.347748,-112.30394,-1.9799051,-1.7069528,-1.895362,-2.6084175,-2.8038666,-2.895481,-6.844429,-6.037608,-6.196996,-8.023845,-6.989484,-3.978477
197,533005266,-27.505127,13.310287,-112.22508,-1.9453897,-1.6941955,-1.8909606,-2.576611,-2.8145998,-2.3150558,-6.876852,-6.065845,-6.228512,-8.066789,-7.036394,-4.017061
198,533021933,-27.566772,13.279182,-112.15645,-1.9334526,-1.685972,-1.88647,-2.6250978,-2.8234074,-1.9399331,-6.909076,-6.093945,-6.259953,-8.110541,-7.083451,-4.049393
199,533038600,-27.621292,13.255917,-112.10002,-1.9457798,-1.6832459,-1.8816823,-2.7611756,-2.8336272,-1.774474,-6.941506,-6.121999,-6.291314,-8.156561,-7.130678,-4.078968
200,533055267,-27.673553,13.235378,-112.04881,-1.9702187,-1.6826599,-1.8761147,-2.945097,-2.8397229,-1.6848072,-6.974343,-6.150043,-6.322583,-8.205646,-7.178007,-4.107048
201,533071934,-27.721092,13.219879,-112.00644,-2.0145998,-1.685817,-1.8700725,-3.2020857,-2.841951,-1.758699,-7.00792,-6.17814,-6.353751,-8.259014,-7.225373,-4.13636
202,533088601,-27.767159,13.206902,-111.967926,-2.0600157,-1.6907604,-1.861956,-3.4772747,-2.849574,-1.7391398,-7.042254,-6.206319,-6.384784,-8.316969,-7.272866,-4.165346
203,533105268,-27.811981,13.196129,-111.93294,-2.1056547,-1.697305,-1.8516296,-3.7685795,-2.8622918,-1.6123494,-7.077348,-6.234607,-6.415644,-8.379779,-7.320571,-4.192218
204,533121935,-27.851662,13.190952,-111.907364,-2.1678944,-1.7079041,-1.840083,-4.1261888,-2.8759136,-1.5805386,-7.11348,-6.263072,-6.446312,-8.448549,-7.368503,-4.21856
205,533138602,-27.886711,13.1909485,-111.89041,-2.2430105,-1.7222254,-1.8269047,-4.539837,-2.8924487,-1.5885473,-7.150864,-6.291776,-6.47676,-8.524213,-7.41671,-4.245036
206,533155269,-27.933159,13.197571,-111.863785,-2.2784548,-1.7242486,-1.8280317,-4.7523513,-2.9747565,-1.4026141,-7.188838,-6.320513,-6.507227,-8.603419,-7.466289,-4.268413
207,533171936,-27.991867,13.211674,-111.82686,-2.2712564,-1.7128146,-1.845141,-4.7454,-3.129263,-1.0233516,-7.226692,-6.34906,-6.537979,-8.682509,-7.518443,-4.285469
208,533188603,-28.055458,13.23251,-111.78792,-2.2438726,-1.6953475,-1.8704301,-4.634138,-3.328234,-0.5229461,-7.26409,-6.377316,-6.569153,-8.759745,-7.573914,-4.294185
209,533205270,-28.128159,13.260853,-111.74234,-2.1819973,-1.6674387,-1.9085068,-4.347295,-3.5902188,0.15898514,-7.300457,-6.405107,-6.600961,-8.8322,-7.633751,-4.291535
210,533221937,-28.199524,13.296955,-111.70247,-2.1205196,-1.6390488,-1.9503988,-4.0476155,-3.8782105,0.83601403,-7.335799,-6.432424,-6.633468,-8.89966,-7.698388,-4.277601
211,533238604,-28.268852,13.341106,-111.66925,-2.0610418,-1.610718,-1.9956979,-3.7426894,-4.1914887,1.5030968,-7.37015,-6.459269,-6.66673,-8.962038,-7.768246,-4.252549
212,533255271,-28.345024,13.394165,-111.63257,-1.9735422,-1.5735905,-2.053069,-3.2879305,-4.5658064,2.3059652,-7.403042,-6.485496,-6.700948,-9.016837,-7.844343,-4.214116
213,533271938,-28.425812,13.456505,-111.5952,-1.8649788,-1.5296557,-2.1208653,-2.7151947,-4.994897,3.2071817,-7.434125,-6.51099,-6.736296,-9.06209,-7.927591,-4.160663
214,533288605,-28.500679,13.546585,-111.56485,-1.8402777,-1.5225952,-2.1394114,-2.6488075,-5.4887853,4.075056,-7.464796,-6.536367,-6.771953,-9.106237,-8.019071,-4.092745
215,533305272,-28.569748,13.666771,-111.54112,-1.9058504,-1.5555799,-2.1040387,-3.130959,-6.0549326,4.9153595,-7.49656,-6.562293,-6.80702,-9.15842,-8.119987,-4.010822
216,533321939,-28.636497,13.809021,-111.52229,-2.016676,-1.6093194,-2.0419006,-3.887276,-6.6863947,5.7664843,-7.530171,-6.589115,-6.841052,-9.223208,-8.231427,-3.914714
217,533338606,-28.698296,13.979069,-111.51021,-2.2015553,-1.6959913,-1.9363021,-5.090315,-7.3892374,6.596977,-7.566864,-6.617382,-6.873324,-9.308047,-8.354581,-3.804764
218,533355273,-28.76355,14.167072,-111.49794,-2.3917446,-1.788049,-1.8241087,-6.340044,-8.169857,7.5244427,-7.606726,-6.647183,-6.903726,-9.413714,-8.490745,-3.679357
219,533371940,-28.832573,14.373131,-111.48534,-2.5842519,-1.8843324,-1.7070009,-7.6186166,-9.030763,8.55409,-7.649797,-6.678589,-6.932176,-9.540691,-8.641258,-3.536789
220,533388607,-28.898964,14.607685,-111.47745,-2.8389196,-2.009483,-1.5516523,-9.279108,-9.976304,9.601565,-7.697112,-6.71208,-6.958037,-9.695343,-8.80753,-3.376763
221,533405274,-28.964485,14.869373,-111.47284,-3.1422272,-2.1582038,-1.3651727,-11.243315,-11.010436,10.692725,-7.749482,-6.74805,-6.98079,-9.882732,-8.991037,-3.198551
222,533421941,-29.079437,15.076405,-111.41693,-3.2742305,-2.2409618,-1.2975432,-12.275603,-11.600868,10.861106,-7.804053,-6.785399,-7.002416,-10.087325,-9.184385,-3.017533
223,533438608,-29.248161,15.22253,-111.3047,-3.22124,-2.2523835,-1.3589774,-12.3024845,-11.696404,9.998533,-7.85774,-6.822939,-7.025066,-10.292366,-9.379325,-2.850891
224,533455275,-29.448387,15.345905,-111.160736,-3.078485,-2.2315195,-1.4831151,-11.858574,-11.551426,8.575344,-7.909048,-6.860131,-7.049785,-10.490009,-9.571849,-2.707969
225,533471942,-29.694511,15.423851,-110.96919,-2.7855935,-2.1539462,-1.7113825,-10.606504,-11.013665,6.3081274,-7.955475,-6.89603,-7.078308,-10.666784,-9.75541,-2.602834
226,533488609,-29.956062,15.507126,-110.76291,-2.4860606,-2.0783398,-1.9479398,-9.35807,-10.393107,3.7288735,-7.996909,-6.930669,-7.110774,-10.822752,-9.928628,-2.540686
227,533505276,-30.23204,15.598457,-110.54285,-2.1863298,-2.0075257,-2.1883888,-8.151124,-9.703877,0.8577633,-8.033348,-6.964128,-7.147247,-10.958604,-10.090359,-2.52639
228,533521943,-30.550797,15.652458,-110.27835,-1.7613077,-1.8907115,-2.5173497,-6.282915,-8.65363,-2.831163,-8.062703,-6.99564,-7.189203,-11.063319,-10.234586,-2.573576
229,533538610,-30.90683,15.6792145,-109.97525,-1.2393007,-1.7396286,-2.9160228,-3.915077,-7.300349,-7.2442207,-8.083358,-7.024634,-7.237803,-11.12857,-10.356258,-2.694313
230,533555277,-31.20829,15.668068,-109.72685,-0.93222046,-1.6509383,-3.1647449,-2.6584358,-6.027606,-10.413613,-8.098895,-7.05215,-7.290549,-11.172877,-10.456718,-2.867873
231,533571944,-31.450485,15.611057,-109.53758,-0.8534937,-1.6271532,-3.2537374,-2.575436,-4.826532,-12.230087,-8.11312,-7.079269,-7.344778,-11.215801,-10.53716,-3.071708
232,533588611,-31.673828,15.518814,-109.36644,-0.8732443,-1.6298673,-3.275298,-3.0058649,-3.5455453,-13.576658,-8.127674,-7.106433,-7.399366,-11.265899,-10.596252,-3.297986
233,533605278,-31.853767,15.385357,-109.23813,-1.0746317,-1.6842325,-3.1708174,-4.3770313,-2.274335,-13.925159,-8.145585,-7.134504,-7.452213,-11.33885,-10.634158,-3.530072
234,533621945,-32.051918,15.203598,-109.08949,-1.2424212,-1.7202661,-3.0909991,-5.563057,-0.7028818,-14.572922,-8.166292,-7.163175,-7.50373,-11.431568,-10.645873,-3.772954
235,533638612,-32.271767,14.972,-108.91673,-1.3660431,-1.7344439,-3.0433884,-6.5092883,1.1925347,-15.595117,-8.189059,-7.192082,-7.554453,-11.540056,-10.625997,-4.032873
236,533655279,-32.46128,14.687084,-108.77275,-1.6251831,-1.7832344,-2.9018574,-8.148127,3.1876934,-15.886758,-8.216145,-7.221803,-7.602817,-11.675858,-10.572869,-4.297652
237,533671946,-32.633263,14.345367,-108.644196,-1.975708,-1.8519499,-2.697339,-10.247959,5.3559523,-15.716895,-8.249073,-7.252669,-7.647773,-11.846657,-10.483603,-4.5596
238,533688613,-32.760155,13.976608,-108.56149,-2.1718493,-1.8721616,-2.5675082,-11.109926,7.6917276,-16.377302,-8.28527,-7.283872,-7.690565,-12.031822,-10.355408,-4.832555
239,533705280,-32.831924,13.580856,-108.534805,-2.2131004,-1.8441365,-2.509118,-10.686308,10.174423,-17.847637,-8.322155,-7.314608,-7.732384,-12.209927,-10.185834,-5.130016
240,533721947,-32.869484,13.139408,-108.541504,-2.1872692,-1.7903869,-2.4767876,-9.627782,12.863241,-19.689785,-8.358609,-7.344448,-7.773664,-12.37039,-9.971447,-5.458179
241,533738614,-32.86206,12.658581,-108.593,-2.0320797,-1.6934955,-2.5040655,-7.48652,15.7543335,-22.222063,-8.392477,-7.372673,-7.815398,-12.495165,-9.708875,-5.828547
242,533755281,-32.811188,12.117092,-108.68623,-1.9384241,-1.607887,-2.476945,-5.494271,18.803888,-24.401566,-8.424784,-7.399471,-7.85668,-12.586736,-9.395477,-6.23524
243,533771948,-32.71631,11.511108,-108.82146,-1.9150658,-1.5355599,-2.3899364,-3.702883,22.020864,-26.178568,-8.456702,-7.425064,-7.896512,-12.648451,-9.028463,-6.671549
244,533788615,-32.56556,10.855114,-109.01187,-1.8140059,-1.4344323,-2.3275986,-1.1084931,25.425827,-28.338146,-8.486935,-7.448971,-7.935305,-12.666926,-8.604699,-7.143851
245,533805282,-32.357323,10.142731,-109.25862,-1.6757298,-1.3157926,-2.2650418,2.0374613,29.013533,-30.65461,-8.514864,-7.470901,-7.973056,-12.632968,-8.12114,-7.654761
246,533821949,-32.12542,9.424362,-109.490814,-1.5862627,-1.2117984,-2.1758013,4.2333975,31.6331,-32.432705,-8.541302,-7.491098,-8.009319,-12.562411,-7.593922,-8.195306
247,533838616,-31.869019,8.7054405,-109.705536,-1.5363998,-1.120475,-2.0664434,5.460786,33.169262,-33.69027,-8.566909,-7.509773,-8.04376,-12.471398,-7.041101,-8.75681
248,533855283,-31.568756,7.956463,-109.93918,-1.5129585,-1.0341256,-1.9318067,6.2660522,34.15851,-34.595867,-8.592125,-7.527008,-8.075957,-12.366964,-6.471793,-9.333408
249,533871950,-31.231583,7.191353,-110.173965,-1.5353432,-0.9603784,-1.7665297,6.2617598,34.267006,-34.971474,-8.617714,-7.543014,-8.105399,-12.262601,-5.900676,-9.916266
250,533888617,-30.831825,6.3820076,-110.45705,-1.5149813,-0.8692174,-1.607072,6.5901966,34.165382,-35.41618,-8.642964,-7.557501,-8.132184,-12.152764,-5.331253,-10.506536
251,533905284,-30.365349,5.525444,-110.79324,-1.4496994,-0.7596524,-1.4529804,7.300521,33.877575,-35.93825,-8.667126,-7.570162,-8.1564,-12.031089,-4.766627,-11.105507
252,533921951,-29.849205,4.6475525,-111.144745,-1.3994522,-0.652961,-1.2816044,7.4903517,32.763275,-36.081688,-8.69045,-7.581045,-8.17776,-11.90625,-4.220572,-11.706868
253,533938618,-29.275894,3.742035,-111.52292,-1.3451996,-0.54269195,-1.1003441,7.3977003,30.943144,-35.964264,-8.71287,-7.59009,-8.196099,-11.782955,-3.704853,-12.306272
254,533955285,-28.736908,2.9002914,-111.90129,-1.2969704,-0.43243885,-0.9414712,7.347748,29.684683,-35.646435,-8.734486,-7.597297,-8.21179,-11.660493,-3.210108,-12.900379
255,533971952,-28.241974,2.1352997,-112.273224,-1.2616673,-0.32481933,-0.8061489,7.258642,29.008526,-35.07395,-8.755514,-7.602711,-8.225226,-11.539516,-2.726633,-13.484945
256,533988619,-27.741394,1.4002304,-112.6595,-1.2209053,-0.2136035,-0.6844642,7.132247,28.374376,-34.290363,-8.775862,-7.606271,-8.236634,-11.420645,-2.253727,-14.056451
257,534005286,-27.260963,0.72302246,-113.05156,-1.1786718,-0.10035443,-0.5854603,7.02431,28.09976,-33.29161,-8.795507,-7.607944,-8.246392,-11.303573,-1.785398,-14.611311
258,534021953,-26.749496,0.05770874,-113.45662,-1.144763,0.011459112,-0.48408568,6.5017242,27.253534,-31.90635,-8.814586,-7.607753,-8.25446,-11.195211,-1.331172,-15.143083
259,534038620,-26.202888,-0.59703827,-113.87607,-1.1176186,0.12221694,-0.38018966,5.548464,25.770227,-30.12435,-8.833213,-7.605716,-8.260796,-11.102737,-0.901668,-15.645155
260,534055287,-25.669312,-1.1920395,-114.29846,-1.0959101,0.2321415,-0.29461753,4.4154863,24.375086,-28.017044,-8.851478,-7.601847,-8.265706,-11.029146,-0.495417,-16.112106
261,534071954,-25.138206,-1.7346191,-114.725006,-1.081543,0.3404281,-0.22281194,3.000462,22.858616,-25.537666,-8.869504,-7.596173,-8.26942,-10.979138,-0.11444,-16.537734
262,534088621,-24.684265,-2.2461853,-115.09531,-1.0629301,0.43235683,-0.15406728,1.9069681,20.975264,-23.242731,-8.88722,-7.588967,-8.271988,-10.947355,0.235148,-16.925113
263,534105288,-24.322495,-2.7193527,-115.400665,-1.039525,0.5060334,-0.09052706,1.2084832,18.780863,-21.182436,-8.904545,-7.580533,-8.273497,-10.927214,0.548162,-17.278154
264,534121955,-24.011948,-3.1458359,-115.66945,-1.0184307,0.5675211,-0.034898162,0.5384612,16.24093,-19.051458,-8.921519,-7.571074,-8.274079,-10.91824,0.818844,-17.595678
265,534138622,-23.777458,-3.5269089,-115.882645,-0.9969063,0.6121936,0.014533401,0.065819025,13.305197,-17.001081,-8.938134,-7.560871,-8.273837,-10.917143,1.040597,-17.879029
266,534155289,-23.5896,-3.833229,-116.07141,-0.9809265,0.6484201,0.044839263,-0.50526786,10.287065,-14.714708,-8.954483,-7.550064,-8.27309,-10.925564,1.212048,-18.124274
267,534171956,-23.448685,-4.0598373,-116.23561,-0.9715109,0.676038,0.054807663,-1.2084336,7.183015,-12.162625,-8.970675,-7.538797,-8.272177,-10.945705,1.331765,-18.326984
268,534188623,-23.393845,-4.2193832,-116.34157,-0.9636259,0.68636,0.051654458,-1.7505531,3.794823,-9.631805,-8.986735,-7.527358,-8.271316,-10.974881,1.395012,-18.487514
269,534205290,-23.422165,-4.302147,-116.3936,-0.95889187,0.68053555,0.031881213,-2.1959152,0.18574929,-7.0529194,-9.002717,-7.516016,-8.270785,-11.01148,1.398108,-18.605063
270,534221957,-23.474754,-4.3878403,-116.46323,-0.9492016,0.677286,0.012432098,-2.6542134,-2.639804,-4.8699136,-9.018537,-7.504728,-8.270578,-11.055717,1.354111,-18.686228
271,534238624,-23.55487,-4.482445,-116.55075,-0.9332752,0.67674744,-0.004974127,-3.0926619,-4.5981836,-3.1681385,-9.034092,-7.493449,-8.270661,-11.107261,1.277475,-18.73903
272,534255291,-23.69226,-4.5384903,-116.622986,-0.9162283,0.67023087,-0.031460285,-3.4984164,-6.1152143,-1.6957903,-9.049362,-7.482278,-8.271185,-11.165568,1.175555,-18.767293
273,534271958,-23.875183,-4.5764313,-116.696976,-0.8956585,0.6622282,-0.062594295,-3.8852086,-6.902136,-0.5970712,-9.06429,-7.471241,-8.272228,-11.230321,1.060519,-18.777244
274,534288625,-24.153305,-4.548271,-116.71918,-0.8754425,0.6386814,-0.10740423,-4.115018,-7.591692,0.3093772,-9.078881,-7.460596,-8.274018,-11.298905,0.933991,-18.772088
275,534305292,-24.533531,-4.447693,-116.684494,-0.8559904,0.59827304,-0.16733515,-4.176355,-8.200018,1.0267439,-9.093148,-7.450625,-8.276807,-11.368511,0.797324,-18.754976
276,534321959,-24.984062,-4.314888,-116.63275,-0.8332243,0.5515001,-0.23435605,-4.1414566,-8.1462965,1.3252556,-9.107035,-7.441433,-8.280713,-11.437535,0.661552,-18.732888
277,534338626,-25.518997,-4.1378784,-116.55098,-0.80793667,0.49495125,-0.3107953,-3.97309,-7.5442963,1.2273605,-9.120501,-7.433184,-8.285893,-11.503753,0.535814,-18.712432
278,534355293,-25.888512,-4.009796,-115.820984,-0.7964535,0.4521594,-0.3680092,-3.8411798,-7.123063,1.3629863,-9.133775,-7.425648,-8.292026,-11.567773,0.417096,-18.689716
279,534371960,-26.06633,-3.9443817,-114.38269,-0.79978657,0.42648792,-0.4021896,-3.761733,-6.8602104,1.7454159,-9.147105,-7.41854,-8.298729,-11.630469,0.302759,-18.660626
280,534388627,-26.182068,-3.8888626,-112.5148,-0.81070423,0.40427566,-0.42852092,-3.6208708,-6.466161,2.0741498,-9.160617,-7.411802,-8.305871,-11.690817,0.19499,-18.626057
281,534405294,-26.164581,-3.8712616,-110.03752,-0.8336582,0.39248466,-0.43846035,-3.461992,-6.108242,2.5037086,-9.174511,-7.405261,-8.313179,-11.748517,0.093186,-18.584329
282,534421961,-26.154205,-3.8459473,-107.31235,-0.8581705,0.37973022,-0.44694686,-3.193886,-5.181031,2.5860903,-9.188814,-7.398932,-8.320628,-11.801748,0.006835,-18.541227
283,534438628,-26.159996,-3.8100433,-104.34943,-0.8837156,0.36512995,-0.45473337,-2.800683,-3.6353197,2.279559,-9.203543,-7.392847,-8.328207,-11.848426,-0.053754,-18.503234
284,534455295,-26.048576,-3.8119125,-100.802795,-0.91944027,0.36065364,-0.44651747,-2.361497,-1.9000196,1.9299781,-9.218867,-7.386836,-8.335649,-11.887784,-0.085421,-18.471068
285,534471962,-25.847443,-3.8433914,-96.735855,-0.963254,0.36415315,-0.42495453,-1.8518105,0.17105222,1.430484,-9.234921,-7.380767,-8.342732,-11.918648,-0.08257,-18.447227
286,534488629,-25.650696,-3.8518372,-96.60626,-0.988245,0.36239696,-0.41927123,-1.3819304,1.8648765,1.1040599,-9.251392,-7.374727,-8.34972,-11.94168,-0.051489,-18.428826
287,534505296,-25.446686,-3.8406372,-100.81238,-0.99299335,0.3561182,-0.42972946,-0.9707072,3.0732868,1.0181797,-9.267942,-7.368792,-8.356882,-11.957858,-0.000268,-18.411856
288,534521963,-25.205826,-3.8312607,-107.29625,-0.9888773,0.3505695,-0.4436878,-0.5467725,4.2451935,0.94079876,-9.284423,-7.362949,-8.364277,-11.966971,0.070485,-18.396176
289,534538630,-24.946083,-3.812729,-117.327576,-0.968606,0.34289575,-0.46832085,-0.1433711,5.171667,0.9722743,-9.300566,-7.357234,-8.372082,-11.969361,0.156679,-18.379971
290,534555297,-24.574562,-3.8304749,-128.24216,-0.9502163,0.34429193,-0.48198986,0.2901764,6.176037,1.0001135,-9.316403,-7.351496,-8.380115,-11.964525,0.259613,-18.363302
291,534571964,-24.083107,-3.8890686,-139.93047,-0.934536,0.35579014,-0.48302257,0.75929403,7.2934704,1.0079334,-9.331979,-7.345566,-8.388165,-11.95187,0.381171,-18.346503
292,534588631,-23.529335,-3.9583817,-154.87094,-0.9061556,0.36977768,-0.48798764,1.208889,8.177456,1.1427615,-9.347082,-7.339403,-8.396298,-11.931722,0.517462,-18.327457
293,534605298,-22.889267,-4.050148,-172.56667,-0.8686905,0.38907194,-0.49189222,1.6490827,8.893539,1.3834221,-9.36156,-7.332918,-8.404496,-11.904237,0.665688,-18.3044
294,534621965,-22.1792,-4.1299057,-173.87512,-0.84617615,0.39611554,-0.461455,2.0628119,9.763484,1.4518406,-9.375663,-7.326316,-8.412187,-11.869857,0.828413,-18.280203
295,534638632,-21.402954,-4.1925507,-157.23328,-0.8388586,0.38861918,-0.39497733,2.4388742,10.762132,1.347841,-9.389644,-7.319839,-8.41877,-11.829209,1.007782,-18.257739
296,534655299,-20.53212,-4.264229,-131.34944,-0.8376179,0.37712383,-0.30433583,2.7900658,11.77175,1.1948354,-9.403604,-7.313554,-8.423842,-11.782708,1.203978,-18.237825
297,534671966,-19.569427,-4.3355865,-90.83162,-0.84856987,0.3566091,-0.18021107,3.106988,12.859214,0.9263861,-9.417747,-7.307611,-8.426846,-11.730925,1.418298,-18.222385
298,534688633,-18.51381,-4.4218826,-47.403263,-0.8535118,0.33582878,-0.04537964,3.3837194,13.743397,0.74507403,-9.431972,-7.302014,-8.427602,-11.67453,1.647355,-18.209967
299,534705300,-17.358902,-4.5264435,-1.5686798,-0.8515129,0.31567454,0.099873066,3.6173658,14.3993,0.66849804,-9.446164,-7.296753,-8.425937,-11.614241,1.887343,-18.198825
300,534721967,-16.105057,-4.634186,57.36859,-0.8568163,0.28738308,0.275468,3.7996879,15.013332,0.5435178,-9.460444,-7.291963,-8.421346,-11.550913,2.137565,-18.189766
301,534738634,-14.748444,-4.7493362,127.1788,-0.86552906,0.25278807,0.4773276,3.9260926,15.514584,0.41822362,-9.474869,-7.28775,-8.413391,-11.485478,2.396141,-18.182796
302,534755301,-13.708687,-4.848198,176.05923,-0.8711796,0.23043609,0.61824304,3.8404064,15.264385,0.14434838,-9.489389,-7.283909,-8.403087,-11.421471,2.650547,-18.18039
303,534771968,-13.026566,-4.9266434,202.44441,-0.8748369,0.22086263,0.69249177,3.5214891,14.207731,-0.30812478,-9.50397,-7.280228,-8.391545,-11.36278,2.887343,-18.185525
304,534788635,-12.50058,-4.999069,220.06421,-0.87691116,0.2164259,0.7389296,3.0354004,12.583786,-0.83327985,-9.518585,-7.276621,-8.37923,-11.31219,3.097073,-18.199413
305,534805302,-12.2509,-5.0581284,220.40833,-0.8760586,0.22193551,0.73362213,2.3328285,10.203234,-1.4767454,-9.533186,-7.272922,-8.367003,-11.27331,3.267127,-18.224025
306,534821969,-12.03167,-5.114998,224.94029,-0.8797102,0.22441292,0.73300767,1.4953985,7.462289,-2.1858935,-9.547848,-7.269182,-8.354786,-11.248387,3.391498,-18.260457
307,534838636,-11.831421,-5.1704636,234.79814,-0.88802814,0.22314405,0.73988974,0.52095985,4.358369,-2.952977,-9.562648,-7.265463,-8.342455,-11.239704,3.464137,-18.309673
308,534855303,-11.881401,-5.212242,231.88199,-0.89626694,0.22870731,0.7049868,-0.67953587,0.5137489,-3.845356,-9.577586,-7.261651,-8.330705,-11.25103,3.472699,-18.373762
309,534871970,-12.135384,-5.242302,220.61191,-0.9060526,0.2383616,0.63956815,-2.0958352,-4.0094028,-4.8528695,-9.592687,-7.257678,-8.320046,-11.285961,3.405876,-18.454643
310,534888637,-12.244148,-5.2964325,218.20775,-0.91313744,0.25211596,0.5961883,-3.1512165,-6.819498,-5.5785217,-9.607906,-7.253476,-8.31011,-11.338481,3.292218,-18.547618
311,534905304,-12.209801,-5.3759995,223.93396,-0.91668606,0.27134633,0.5729782,-3.805566,-7.7410707,-5.9942083,-9.623184,-7.248954,-8.30056,-11.401907,3.1632,-18.647521
312,534921971,-12.173157,-5.4650116,232.45294,-0.9199085,0.2942741,0.5518272,-4.3296576,-7.8745823,-6.281912,-9.638516,-7.244049,-8.291363,-11.474068,3.031957,-18.75222
313,534938638,-12.049728,-5.5727386,247.83324,-0.92153835,0.32137823,0.5450774,-4.5661063,-6.5589676,-6.3324156,-9.653875,-7.238693,-8.282278,-11.55017,2.922641,-18.85776
314,534955305,-12.110588,-5.6748123,255.1921,-0.9228287,0.35548377,0.508398,-4.880233,-5.299157,-6.3923893,-9.669255,-7.232768,-8.273805,-11.631507,2.834322,-18.9643
315,534971972,-12.375069,-5.7696,253.78569,-0.9240494,0.39671898,0.43909478,-5.294049,-4.173895,-6.474729,-9.684656,-7.226156,-8.266487,-11.719741,2.764757,-19.072212
316,534988639,-12.640327,-5.8770523,254.32225,-0.92346954,0.44431472,0.3690676,-5.4878845,-1.8477883,-6.3599205,-9.700047,-7.218751,-8.260336,-11.811206,2.733961,-19.178211
317,535005306,-12.968727,-5.9918976,253.48883,-0.92135715,0.49907947,0.28818595,-5.536709,1.3796275,-6.0969486,-9.715403,-7.210433,-8.255533,-11.903484,2.756955,-19.279827
318,535021973,-13.493645,-6.0676956,242.00856,-0.89672565,0.55781007,0.27148306,-6.430973,1.9877431,-5.6765003,-9.730348,-7.201136,-8.251008,-12.010667,2.790084,-19.374435
319,535038640,-14.208313,-6.1022034,220.009,-0.8470926,0.6204283,0.32973552,-8.226652,-0.18538904,-5.0645247,-9.744466,-7.190796,-8.245512,-12.147778,2.786994,-19.458844
320,535055307,-15.096642,-6.1135635,189.41344,-0.7823839,0.6892692,0.42029816,-10.505516,-3.6629622,-4.292813,-9.757506,-7.179308,-8.238507,-12.32287,2.725945,-19.530391
321,535071974,-16.193367,-6.0890503,147.73584,-0.69632626,0.763667,0.56552637,-13.537939,-9.38747,-3.3448539,-9.769111,-7.16658,-8.229082,-12.548502,2.569487,-19.586139
322,535088641,-17.376427,-6.0603867,102.87279,-0.60047436,0.8455957,0.72977006,-16.668137,-14.957161,-2.1621094,-9.779119,-7.152487,-8.216919,-12.826304,2.320201,-19.622174
323,535105308,-18.648254,-6.0285263,54.765003,-0.49511147,0.93553114,0.9106333,-19.867973,-20.25521,-0.736496,-9.787371,-7.136895,-8.201742,-13.157437,1.982614,-19.634449
324,535121975,-20.10205,-5.9663315,-2.818882,-0.3686161,1.0321033,1.1462935,-23.703974,-27.301695,0.92534804,-9.793515,-7.119693,-8.182637,-13.552503,1.527586,-19.619027
325,535138642,-21.716125,-5.8798904,-68.45157,-0.22291183,1.135966,1.4303341,-28.046738,-35.607,2.8445427,-9.79723,-7.10076,-8.158798,-14.019949,0.934136,-19.571618
326,535155309,-23.432228,-5.565117,-113.74414,-0.07818031,1.1875606,1.516065,-30.457422,-42.610584,5.2679424,-9.798533,-7.080967,-8.13353,-14.527573,0.22396,-19.483819
327,535171976,-25.258255,-4.996887,-136.71252,0.06564903,1.1807672,1.385042,-30.76894,-48.33136,8.231511,-9.797439,-7.061288,-8.110446,-15.040389,-0.581563,-19.346627
328,535188643,-27.210258,-4.273926,-149.88441,0.21740341,1.1440654,1.1501648,-30.04796,-53.669724,11.6445265,-9.793816,-7.04222,-8.091277,-15.541188,-1.476058,-19.152552
329,535205310,-29.277039,-3.3350372,-145.3823,0.3722782,1.0602053,0.7429854,-27.61836,-57.987797,15.58843,-9.787611,-7.02455,-8.078894,-16.001494,-2.442521,-18.892745
330,535221977,-31.523735,-2.2887344,-141.51662,0.5457916,0.96328783,0.31667614,-25.042112,-63.320385,19.934645,-9.778514,-7.008495,-8.073616,-16.418863,-3.497861,-18.560501
331,535238644,-33.955544,-1.1378326,-139.10495,0.73928356,0.8546989,-0.12118864,-22.386143,-69.76676,24.692574,-9.766193,-6.99425,-8.075636,-16.791965,-4.66064,-18.148958
332,535255311,-36.533012,0.22897339,-121.9957,0.94127655,0.7016884,-0.707837,-18.268053,-75.77856,30.009151,-9.750505,-6.982555,-8.087433,-17.096433,-5.923616,-17.648805
333,535271978,-39.272743,1.7938614,-93.77074,1.1554861,0.51045513,-1.4132222,-12.991116,-81.79488,35.87252,-9.731247,-6.974047,-8.110987,-17.312952,-7.286864,-17.05093
334,535288645,-41.43116,2.9847107,-79.262924,1.1151009,0.42117858,-1.8119956,-8.366413,-82.78752,37.467766,-9.712662,-6.967027,-8.141187,-17.452392,-8.666656,-16.426467
335,535305312,-42.93035,3.7635803,-78.57446,0.7916126,0.44269228,-1.8814145,-4.3683224,-78.05927,34.334206,-9.699468,-6.959649,-8.172544,-17.525197,-9.967644,-15.85423
336,535321979,-44.132347,4.3926773,-82.06726,0.3126135,0.51220536,-1.8038815,-0.3145299,-70.262146,28.731194,-9.694258,-6.951112,-8.202609,-17.530439,-11.13868,-15.375377
337,535338646,-44.821983,4.7159653,-95.94377,-0.39975548,0.6679319,-1.464408,3.3574233,-57.88008,19.276278,-9.700921,-6.93998,-8.227016,-17.474482,-12.103348,-15.054106
338,535355313,-45.418938,5.0989265,-101.20218,-1.1951952,0.81925523,-1.1468614,8.097621,-43.390488,8.788722,-9.720841,-6.926326,-8.24613,-17.339522,-12.826523,-14.907627
339,535371980,-45.94169,5.5620728,-96.72299,-2.0681324,0.961421,-0.8650392,13.998505,-26.896152,-2.6166518,-9.75531,-6.910302,-8.260547,-17.106214,-13.274792,-14.951238
340,535388647,-45.985085,5.786312,-97.12529,-3.164997,1.1731871,-0.37651956,19.984037,-5.7526674,-17.602617,-9.80806,-6.890749,-8.266822,-16.773147,-13.37067,-15.244615
341,535405314,-45.625877,5.8459435,-98.22618,-4.4590726,1.4362676,0.26137888,26.383144,19.627777,-35.6499,-9.882378,-6.866811,-8.262466,-16.333428,-13.04354,-15.83878
342,535421981,-45.07482,5.519684,-98.117325,-5.173123,1.4900253,0.52983487,32.304985,38.199654,-48.3934,-9.968597,-6.841977,-8.253635,-15.795012,-12.406879,-16.645337
343,535438648,-44.284523,4.7384796,-98.26924,-5.252762,1.3190945,0.4101767,37.547646,49.32857,-55.418186,-10.056143,-6.819992,-8.246799,-15.169218,-11.584736,-17.568973
344,535455315,-43.19056,3.6494827,-96.64819,-5.0503225,1.0346184,0.11100912,42.768715,58.05938,-60.394474,-10.140315,-6.802748,-8.244949,-14.456406,-10.61708,-18.575548
345,535471982,-41.821983,2.1697464,-93.15541,-4.351628,0.5652621,-0.50513303,47.685745,61.42969,-61.09112,-10.212842,-6.793327,-8.253368,-13.661644,-9.593252,-19.593733
346,535488649,-39.93023,0.33564758,-92.51695,-3.648808,0.082621336,-1.0721895,52.55767,66.649155,-63.132088,-10.273655,-6.79195,-8.271238,-12.785683,-8.482433,-20.645934
347,535505316,-37.48606,-1.8582611,-94.659744,-2.9667778,-0.40583086,-1.5731789,57.425392,74.15745,-66.83502,-10.323101,-6.798714,-8.297458,-11.828593,-7.246476,-21.759851
348,535521983,-34.62081,-4.515747,-97.2513,-1.8706245,-1.0488961,-2.3101268,61.90046,77.79701,-67.465256,-10.354278,-6.816196,-8.33596,-10.796919,-5.949859,-22.884272
349,535538650,-31.262856,-7.644211,-101.33205,-0.45809937,-1.8127372,-3.207994,66.0259,79.07252,-66.19281,-10.361913,-6.846408,-8.389427,-9.696487,-4.631984,-23.987486
350,535555317,-28.287598,-9.902756,-104.0509,0.42068577,-2.188813,-3.6352854,66.78828,79.13019,-64.24853,-10.354902,-6.882888,-8.450015,-8.583349,-3.313148,-25.058295
351,535571984,-25.779823,-11.186928,-105.049545,0.7434273,-2.14691,-3.5682082,63.79476,77.23776,-61.111813,-10.342512,-6.91867,-8.509485,-7.520103,-2.025852,-26.076825
352,535588651,-23.261711,-12.147514,-106.50569,0.85242844,-1.9056365,-3.2556033,58.456047,73.79267,-56.935986,-10.328305,-6.950431,-8.563745,-6.545836,-0.795974,-27.025758
353,535605318,-20.974861,-12.415794,-107.68666,0.52704525,-1.325943,-2.528779,49.849274,68.80914,-51.83927,-10.319521,-6.97253,-8.605891,-5.715015,0.350845,-27.889746
354,535621985,-18.422066,-12.811577,-109.664505,0.38024235,-0.742568,-1.8336388,39.575706,59.95412,-43.82104,-10.313184,-6.984906,-8.636452,-5.05542,1.35008,-28.620097
355,535638652,-15.5597,-13.38681,-112.72647,0.44434166,-0.17064309,-1.1886324,27.651796,47.073425,-32.76188,-10.305778,-6.98775,-8.656263,-4.594557,2.134637,-29.166128
356,535655319,-12.844421,-13.409859,-115.77498,0.22517967,0.67978024,-0.22350729,12.401625,31.192831,-19.655952,-10.302025,-6.97642,-8.659988,-4.387863,2.654518,-29.493727
357,535671986,-10.169876,-13.048256,-119.12813,-0.147748,1.7423404,0.971903,-5.9308615,11.675663,-3.9812782,-10.304487,-6.947381,-8.64379,-4.486711,2.849112,-29.560082
358,535688653,-8.132713,-12.999435,-121.459625,-0.34288597,2.3960972,1.7167058,-17.65357,-1.5170324,6.629217,-10.310202,-6.907446,-8.615178,-4.780937,2.823828,-29.449595
359,535705320,-6.8598633,-13.227715,-122.51941,-0.38949585,2.61999,1.992675,-22.099482,-7.442189,11.413963,-10.316694,-6.863779,-8.581967,-5.149262,2.699792,-29.259362
360,535721987,-6.0072174,-13.505096,-123.18974,-0.35823727,2.6664686,2.0641751,-23.752777,-11.366265,14.418467,-10.322665,-6.819338,-8.547564,-5.545142,2.510354,-29.019054
361,535738654,-5.7743454,-13.991249,-123.06116,-0.17403603,2.3721337,1.7527401,-19.96246,-10.52635,13.505959,-10.325566,-6.779802,-8.518352,-5.87785,2.334915,-28.793955
362,535755321,-5.9397583,-14.082237,-122.752426,-0.15880299,2.1770012,1.554229,-16.877563,-10.583052,12.9404125,-10.328213,-6.743519,-8.492448,-6.159143,2.158531,-28.578281
363,535771988,-6.503731,-13.74128,-122.329926,-0.3240404,2.1030734,1.491274,-14.847257,-11.978349,13.042734,-10.333614,-6.708468,-8.467593,-6.406597,1.958892,-28.360902
364,535788655,-7.7727203,-13.394089,-121.11467,-0.4490776,1.7898982,1.1623452,-8.479914,-9.479562,9.809435,-10.341099,-6.678636,-8.448221,-6.547929,1.800899,-28.197411
365,535805322,-9.725433,-12.9012985,-119.22948,-0.60467815,1.328934,0.67001605,0.9759846,-4.262202,4.1102085,-10.351177,-6.656487,-8.437054,-6.531663,1.729862,-28.128908
366,535821989,-10.822357,-12.568123,-118.192154,-0.7089758,1.0768098,0.40286744,6.021694,-1.8985473,1.3030388,-10.362993,-6.63854,-8.43034,-6.431301,1.69822,-28.107191
367,535838656,-10.97892,-12.46434,-118.04147,-0.7324829,1.0222162,0.34771484,6.670866,-2.1839247,1.3262846,-10.375201,-6.621503,-8.424545,-6.32012,1.661821,-28.085086
368,535855323,-10.933472,-12.341293,-118.12508,-0.7653074,1.0562426,0.38773668,5.696741,-3.2019897,2.1650598,-10.387956,-6.603899,-8.418083,-6.225174,1.608455,-28.049002
369,535871990,-10.280617,-12.292458,-118.829666,-0.78018475,1.2655541,0.61719584,1.2299604,-6.257168,5.1209955,-10.400959,-6.582806,-8.407796,-6.204675,1.504169,-27.963652
370,535888657,-10.025139,-12.23777,-119.09235,-0.7693434,1.3471823,0.70269907,-0.91380954,-6.729586,6.0075455,-10.413781,-6.560353,-8.396084,-6.219905,1.392009,-27.863526
371,535905324,-10.242638,-12.155708,-118.842865,-0.7403784,1.288275,0.63028884,-0.42293477,-4.3402696,4.5676584,-10.426121,-6.538882,-8.385579,-6.226954,1.319671,-27.787398
372,535921991,-10.089134,-12.168358,-118.93457,-0.67296124,1.3118454,0.6443999,-1.7550659,-2.428475,3.9477594,-10.437337,-6.517018,-8.374839,-6.256205,1.279196,-27.721602
373,535938658,-9.7842865,-12.257866,-119.13466,-0.56590176,1.3524518,0.6729726,-3.644628,0.05815029,3.2096736,-10.446769,-6.494477,-8.363623,-6.316949,1.280165,-27.668107
374,535955325,-9.573647,-12.260498,-119.29381,-0.5140009,1.3661157,0.68869483,-4.533303,1.7272751,2.5604627,-10.455336,-6.471708,-8.352145,-6.392504,1.308953,-27.625433
375,535971992,-9.374275,-12.182495,-119.50021,-0.52098083,1.3730036,0.7156369,-4.775976,2.1111615,2.3578575,-10.464019,-6.448825,-8.340218,-6.472104,1.344139,-27.586135
376,535988659,-9.217537,-12.093094,-119.66493,-0.5397272,1.3479673,0.7161174,-4.2257104,2.6437032,1.8291585,-10.473014,-6.426359,-8.328283,-6.542533,1.388201,-27.555649
377,536005326,-9.138382,-11.956215,-119.77643,-0.59407043,1.2845632,0.6890037,-2.5740924,2.863259,1.1138303,-10.482915,-6.40495,-8.3168,-6.585435,1.435922,-27.537085
378,536021993,-8.782944,-11.896393,-120.134735,-0.62516785,1.2653141,0.71271545,-1.8448198,2.7986982,0.84668684,-10.493334,-6.383861,-8.304921,-6.616182,1.482567,-27.522974
379,536038660,-8.139671,-11.925575,-120.74324,-0.6275034,1.2889075,0.785207,-2.04537,2.5707319,0.9721446,-10.503792,-6.362379,-8.291834,-6.650272,1.525413,-27.506772
380,536055327,-7.402809,-11.955299,-121.45261,-0.64982796,1.3096623,0.8677407,-1.9239153,1.7534516,1.3108542,-10.514622,-6.340551,-8.277372,-6.682337,1.554637,-27.484924
381,536071994,-6.487999,-12.016579,-122.33307,-0.6785908,1.3449984,0.97712564,-1.9098043,0.35873055,1.9972837,-10.525932,-6.318134,-8.261087,-6.714167,1.560616,-27.451636
382,536088661,-5.9224167,-12.028084,-122.87584,-0.6949158,1.3591412,1.0400076,-1.8786998,-0.47470164,2.3384306,-10.537514,-6.295482,-8.243754,-6.745479,1.552704,-27.412662
383,536105328,-5.7662125,-11.974846,-123.02684,-0.7025595,1.3454596,1.0474538,-1.7115867,-0.7368765,2.2867486,-10.549223,-6.273058,-8.226296,-6.774005,1.540423,-27.37455
384,536121995,-5.7019653,-11.920052,-123.083664,-0.7007103,1.333876,1.0470936,-1.7817352,-0.9837407,2.2838914,-10.560902,-6.250827,-8.208844,-6.803701,1.524027,-27.336485
385,536138662,-5.8754425,-11.840263,-122.90651,-0.6855068,1.3144467,1.0189152,-2.0445325,-0.9466059,2.1598375,-10.572327,-6.22892,-8.191862,-6.837777,1.50825,-27.300488
386,536155329,-6.021431,-11.766144,-122.75766,-0.67891216,1.2953149,0.99483263,-2.2378619,-1.3799971,2.262581,-10.583642,-6.207331,-8.175281,-6.875075,1.48525,-27.262778
387,536171996,-6.1094437,-11.704529,-122.66548,-0.6809292,1.2797427,0.97967803,-2.4086142,-2.3639526,2.6527717,-10.594991,-6.186002,-8.158953,-6.915219,1.445851,-27.218565
388,536188663,-6.396248,-11.62043,-122.37958,-0.67747784,1.2555481,0.940736,-2.6586075,-3.3156574,3.0270345,-10.606282,-6.165076,-8.143274,-6.959529,1.39059,-27.168114
389,536205330,-6.8231506,-11.52169,-121.95755,-0.6731014,1.2251667,0.885434,-2.9494278,-4.4202313,3.478606,-10.6175,-6.144657,-8.128517,-7.008686,1.316919,-27.110137
390,536221997,-7.1069717,-11.441856,-121.67355,-0.6702652,1.203356,0.85100746,-3.1331398,-5.1381392,3.720485,-10.628671,-6.124601,-8.114334,-7.060905,1.231283,-27.048129
391,536238664,-7.25576,-11.379326,-121.51958,-0.66786194,1.1897546,0.83656335,-3.2033484,-5.3594904,3.693926,-10.639802,-6.104772,-8.100391,-7.114294,1.141958,-26.986564
392,536255331,-7.365265,-11.32373,-121.40335,-0.6679363,1.1791399,0.82947516,-3.2084594,-5.4806557,3.6081183,-10.650934,-6.08512,-8.086566,-7.167768,1.050614,-26.926429
393,536271998,-7.367729,-11.282875,-121.39044,-0.6709709,1.1750234,0.83872896,-3.1065102,-5.3368077,3.3748066,-10.662117,-6.065536,-8.072587,-7.219543,0.961667,-26.870182
394,536288665,-7.489311,-11.230469,-121.260864,-0.6716089,1.1669188,0.83543944,-3.038117,-5.123528,3.1100156,-10.67331,-6.046087,-8.058663,-7.270178,0.876275,-26.818348
395,536305332,-7.7418823,-11.165268,-121.00304,-0.67009735,1.1542667,0.8181728,-3.007116,-4.8731613,2.8313763,-10.684478,-6.026849,-8.045027,-7.320297,0.795056,-26.771158
396,536321999,-7.9574585,-11.10672,-120.78017,-0.6695671,1.1451709,0.8087353,-2.905541,-4.341485,2.4024312,-10.695637,-6.007763,-8.031548,-7.368723,0.722698,-26.731117
397,536338666,-8.185883,-11.049057,-120.54372,-0.6689997,1.1373641,0.800858,-2.762013,-3.569134,1.8477013,-10.706787,-5.988807,-8.0182,-7.414757,0.663212,-26.700322
398,536355333,-8.384048,-10.996895,-120.33832,-0.6685562,1.1293498,0.7926617,-2.6768746,-3.114506,1.476495,-10.71793,-5.969985,-8.004989,-7.459372,0.611304,-26.675714
399,536372000,-8.52932,-10.952812,-120.1861,-0.668561,1.1219301,0.78643346,-2.646645,-2.9911785,1.2971351,-10.729073,-5.951286,-7.991882,-7.503483,0.561451,-26.654095
400,536388667,-8.677353,-10.910637,-120.03169,-0.66826344,1.1142523,0.7786977,-2.642613,-2.9562383,1.1771476,-10.740211,-5.932715,-7.978904,-7.547527,0.51218,-26.634476
401,536405334,-8.811165,-10.872238,-119.89229,-0.6677723,1.1061621,0.76958525,-2.6893234,-3.1510572,1.1956074,-10.751341,-5.914279,-7.966078,-7.592349,0.459662,-26.614549
402,536422001,-8.91391,-10.83992,-119.782715,-0.668025,1.1005949,0.76572967,-2.6985617,-3.1899133,1.1391423,-10.762475,-5.895936,-7.953316,-7.637325,0.406497,-26.595563
403,536438668,-8.988731,-10.813339,-119.69971,-0.66898346,1.097562,0.76701796,-2.6670268,-3.046162,0.994082,-10.773625,-5.877643,-7.940532,-7.681775,0.355728,-26.578995
404,536455335,-9.027725,-10.79319,-119.65245,-0.6702862,1.0955452,0.7704379,-2.6592536,-3.0297053,0.9332657,-10.784796,-5.859384,-7.927691,-7.726096,0.305233,-26.563441
405,536472002,-9.026375,-10.780098,-119.64496,-0.672143,1.0952123,0.7774833,-2.6563659,-3.0554638,0.9104245,-10.795998,-5.84113,-7.914733,-7.770369,0.254309,-26.548267
406,536488669,-9.052856,-10.762848,-119.609314,-0.6733713,1.093222,0.7803305,-2.6325016,-2.982366,0.8361821,-10.807221,-5.82291,-7.901727,-7.814244,0.204603,-26.534331
407,536505336,-9.109512,-10.740814,-119.54324,-0.6738672,1.0891861,0.7781753,-2.5921988,-2.8331428,0.7228434,-10.818452,-5.804757,-7.888757,-7.857447,0.157384,-26.522284
408,536522003,-9.158836,-10.720001,-119.483795,-0.67436504,1.0852153,0.7759337,-2.534468,-2.61526,0.58114123,-10.829691,-5.78667,-7.875825,-7.899688,0.113796,-26.512598
409,536538670,-9.217201,-10.697525,-119.4146,-0.6745548,1.0803987,0.7715254,-2.4536664,-2.2989323,0.39197803,-10.840934,-5.768663,-7.862966,-7.940582,0.07548,-26.506065
410,536555337,-9.241997,-10.680206,-119.37848,-0.6750345,1.0763156,0.76876533,-2.381489,-2.0417953,0.25073576,-10.852185,-5.750724,-7.850153,-7.980273,0.04145,-26.501886
411,536572004,-9.227753,-10.668762,-119.380844,-0.675889,1.0731843,0.76820296,-2.317911,-1.8462288,0.1599195,-10.86345,-5.732838,-7.83735,-8.018905,0.01068,-26.499221
412,536588671,-9.208267,-10.657478,-119.38779,-0.6765766,1.0694501,0.7662233,-2.242394,-1.6098907,0.05698061,-10.874726,-5.715014,-7.82458,-8.056278,-0.016152,-26.498271
413,536605338,-9.172676,-10.6479645,-119.410126,-0.67724323,1.0654789,0.7637428,-2.1614487,-1.3664876,-0.03719139,-10.886013,-5.697256,-7.811851,-8.092302,-0.038927,-26.498891
414,536622005,-9.125526,-10.640785,-119.443665,-0.67830944,1.0628725,0.7644626,-2.101787,-1.1694413,-0.11781573,-10.897318,-5.679541,-7.79911,-8.127332,-0.058418,-26.500855
415,536638672,-9.0703125,-10.635368,-119.48485,-0.67975235,1.0615777,0.7682971,-2.064105,-1.014853,-0.18993044,-10.908647,-5.661848,-7.786305,-8.161734,-0.075332,-26.504021
416,536655339,-8.996307,-10.632568,-119.54433,-0.68148327,1.0610855,0.7741561,-2.0404513,-0.9022591,-0.24026775,-10.920005,-5.644163,-7.773402,-8.195742,-0.09037,-26.508025
417,536672006,-8.905159,-10.632385,-119.62044,-0.68360806,1.06178,0.7829599,-2.0382028,-0.84593666,-0.2680328,-10.931398,-5.626467,-7.760353,-8.229712,-0.104469,-26.512492
418,536688673,-8.800262,-10.633255,-119.70953,-0.685771,1.062383,0.7918097,-2.0362525,-0.7885332,-0.2915144,-10.942828,-5.608761,-7.747156,-8.26365,-0.117611,-26.517351
419,536705340,-8.680069,-10.635208,-119.81317,-0.687973,1.0628369,0.800622,-2.0344348,-0.7319789,-0.30864906,-10.954294,-5.591047,-7.733812,-8.297557,-0.129811,-26.522495
420,536722007,-8.54406,-10.638977,-119.93205,-0.6904745,1.0640951,0.8116315,-2.0500398,-0.7185631,-0.30906105,-10.965802,-5.573312,-7.720285,-8.331724,-0.141787,-26.527646
421,536738674,-8.392288,-10.644249,-120.06595,-0.6932125,1.0658816,0.82424927,-2.0791664,-0.73829603,-0.29560232,-10.977356,-5.555547,-7.706548,-8.366377,-0.154092,-26.532573
422,536755341,-8.262337,-10.646378,-120.17905,-0.69505405,1.0664315,0.83411455,-2.0925932,-0.75544643,-0.27301407,-10.98894,-5.537773,-7.692646,-8.401254,-0.166683,-26.537123
423,536772008,-8.15789,-10.644928,-120.26781,-0.69592094,1.0656708,0.84106594,-2.0899339,-0.7725997,-0.24040318,-11.000539,-5.520012,-7.678628,-8.436086,-0.17956,-26.54113
424,536788675,-8.061127,-10.641777,-120.34918,-0.69629955,1.0642328,0.8467684,-2.0827956,-0.8013642,-0.19696426,-11.012144,-5.502275,-7.664515,-8.470799,-0.192916,-26.544413
425,536805342,-7.9828415,-10.635536,-120.41284,-0.69587135,1.0616329,0.85004973,-2.0637708,-0.8339187,-0.14356709,-11.023742,-5.484581,-7.650348,-8.505195,-0.206815,-26.546806
426,536822009,-7.9003983,-10.629044,-120.48056,-0.69536304,1.0591253,0.85404164,-2.0551324,-0.9055809,-0.07302117,-11.035331,-5.466929,-7.636114,-8.539447,-0.221908,-26.548023
427,536838676,-7.812767,-10.622307,-120.55327,-0.6948042,1.0567371,0.85885787,-2.0581899,-1.0189028,0.015184641,-11.046911,-5.449317,-7.6218,-8.57375,-0.23889,-26.54777
428,536855343,-7.7410736,-10.6126175,-120.61072,-0.69354534,1.0534035,0.86190224,-2.0556426,-1.1505729,0.11697745,-11.05847,-5.43176,-7.607435,-8.608011,-0.258066,-26.54582
429,536872010,-7.6810684,-10.600441,-120.65698,-0.69172573,1.0493605,0.86379766,-2.0523686,-1.3092028,0.23420787,-11.069999,-5.414271,-7.593038,-8.642217,-0.279886,-26.541917
430,536888677,-7.618126,-10.589638,-120.70552,-0.6905384,1.0454364,0.86534643,-2.0577977,-1.4210688,0.31224155,-11.081508,-5.396847,-7.578616,-8.676514,-0.30357,-26.536713
431,536905344,-7.5541916,-10.580101,-120.75435,-0.6900015,1.0415531,0.8662628,-2.0708861,-1.4770671,0.34538984,-11.093008,-5.379488,-7.564178,-8.711029,-0.328188,-26.530957
432,536922011,-7.493988,-10.570183,-120.799225,-0.6896324,1.0374478,0.86653876,-2.0906029,-1.5186781,0.3608241,-11.104502,-5.362197,-7.549736,-8.745872,-0.353499,-26.524943
433,536938678,-7.4348297,-10.560768,-120.842545,-0.6897335,1.0332927,0.8662646,-2.1191182,-1.5246779,0.34284282,-11.115998,-5.344975,-7.535298,-8.781191,-0.37891,-26.519229
434,536955345,-7.391632,-10.548653,-120.87038,-0.6894245,1.0282795,0.86422205,-2.1466904,-1.5328946,0.32215643,-11.127488,-5.327837,-7.520894,-8.816969,-0.404458,-26.51386
435,536972012,-7.365814,-10.533554,-120.88144,-0.68865204,1.0223459,0.8603219,-2.1732163,-1.5463436,0.30033708,-11.138966,-5.310798,-7.506555,-8.853189,-0.43023,-26.508854
436,536988679,-7.348343,-10.517723,-120.88394,-0.68811417,1.0160146,0.85518146,-2.2053847,-1.527269,0.2478838,-11.150435,-5.293864,-7.492302,-8.889945,-0.455684,-26.504723
437,537005346,-7.3431396,-10.500343,-120.87425,-0.6876116,1.0090842,0.84847593,-2.2411904,-1.4831486,0.17055392,-11.161895,-5.277046,-7.478161,-8.927298,-0.480403,-26.50188
438,537022013,-7.3119354,-10.485916,-120.89105,-0.68729115,1.0039486,0.8457845,-2.262416,-1.4474076,0.12963033,-11.17335,-5.260314,-7.464065,-8.965005,-0.504526,-26.499719
439,537038680,-7.2505493,-10.4750595,-120.93849,-0.6872473,1.0008833,0.8476653,-2.2679152,-1.4172908,0.12649512,-11.184804,-5.243633,-7.449937,-9.002804,-0.528148,-26.497611
440,537055347,-7.180382,-10.465057,-120.99512,-0.68728256,0.99860275,0.8512099,-2.2648368,-1.3809623,0.13522339,-11.196259,-5.22699,-7.43575,-9.040551,-0.551164,-26.495357
441,537072014,-7.0906677,-10.457176,-121.07181,-0.6874666,0.99779415,0.8579883,-2.248057,-1.3453593,0.17140388,-11.207717,-5.21036,-7.42145,-9.078019,-0.573587,-26.4925
442,537088681,-7.002243,-10.449257,-121.1474,-0.68789005,0.99717796,0.8648622,-2.229879,-1.2804228,0.19088697,-11.219182,-5.19374,-7.407036,-9.115184,-0.594927,-26.489319
443,537105348,-6.916939,-10.441086,-121.22003,-0.68855,0.9966663,0.87161326,-2.2106023,-1.1835665,0.19080353,-11.230658,-5.177129,-7.392509,-9.152027,-0.614653,-26.486139
444,537122015,-6.8149643,-10.4348755,-121.30977,-0.68946743,0.9975121,0.8811946,-2.179422,-1.0745723,0.20618248,-11.242149,-5.160504,-7.377822,-9.188351,-0.632563,-26.482703
445,537138682,-6.7006836,-10.430176,-121.41217,-0.6906748,0.9994668,0.8929769,-2.1386147,-0.94588256,0.22731495,-11.25366,-5.143846,-7.362939,-9.223995,-0.648328,-26.478914
446,537155349,-6.598076,-10.421509,-121.50043,-0.691864,0.9997442,0.9016794,-2.0942194,-0.8725362,0.26219964,-11.265191,-5.127184,-7.347911,-9.258899,-0.66287,-26.474544
447,537172016,-6.5066147,-10.408661,-121.57478,-0.69302654,0.99826396,0.9072186,-2.045137,-0.86338115,0.3158245,-11.276741,-5.110546,-7.332791,-9.292985,-0.67726,-26.46928
448,537188683,-6.417633,-10.393951,-121.64525,-0.69434357,0.99620306,0.9117189,-1.9896787,-0.8770206,0.3777659,-11.288313,-5.093943,-7.317596,-9.326146,-0.691877,-26.462984
449,537205350,-6.3368683,-10.375923,-121.705185,-0.6957407,0.992844,0.9138401,-1.9288439,-0.93495786,0.4515941,-11.299909,-5.077396,-7.302365,-9.358293,-0.70746,-26.455457
450,537222017,-6.2453003,-10.358383,-121.77548,-0.69741726,0.9901507,0.91744804,-1.855752,-0.9975604,0.5414758,-11.311533,-5.060893,-7.287074,-9.389222,-0.724086,-26.446432
451,537238684,-6.1417694,-10.341492,-121.857285,-0.6994047,0.9882425,0.9227688,-1.7697406,-1.0617983,0.6471784,-11.32319,-5.044422,-7.271695,-9.418718,-0.741783,-26.435646
452,537255351,-6.0404205,-10.322166,-121.934875,-0.70154953,0.9855325,0.9267498,-1.6747217,-1.1665542,0.7702954,-11.334882,-5.027996,-7.256249,-9.44663,-0.761226,-26.422808
453,537272018,-5.936966,-10.301163,-122.01282,-0.7039051,0.98244405,0.93022954,-1.5688355,-1.3039652,0.91219187,-11.346614,-5.011622,-7.240745,-9.472777,-0.782959,-26.407605
454,537288685,-5.8504944,-10.277191,-122.07463,-0.7058525,0.9787253,0.9339571,-1.4960291,-1.4260813,1.049314,-11.358378,-4.99531,-7.225179,-9.497711,-0.806727,-26.390116
455,537305352,-5.784477,-10.249702,-122.116776,-0.70732117,0.9741515,0.93764126,-1.4608333,-1.534259,1.1804516,-11.370167,-4.979074,-7.209552,-9.522058,-0.832298,-26.370442
456,537322019,-5.7268753,-10.219803,-122.15028,-0.708642,0.96912193,0.9415014,-1.44101,-1.6468383,1.318352,-11.381978,-4.962922,-7.19386,-9.546075,-0.859745,-26.348469
457,537338686,-5.6835556,-10.186958,-122.16994,-0.7096386,0.9634986,0.94564277,-1.4491069,-1.7526579,1.4570878,-11.393805,-4.946864,-7.178099,-9.570227,-0.888956,-26.324184
458,537355353,-5.6469803,-10.151077,-122.181274,-0.7106428,0.95701504,0.9488558,-1.4603558,-1.8903812,1.6113517,-11.405649,-4.930914,-7.162285,-9.594566,-0.920462,-26.297328
459,537372020,-5.616493,-10.112144,-122.18483,-0.71168137,0.9496664,0.9511242,-1.4733291,-2.0628335,1.782799,-11.41751,-4.915086,-7.146433,-9.619121,-0.954843,-26.267615
460,537388687,-5.6012955,-10.0696335,-122.1729,-0.7124224,0.94143426,0.95311,-1.5116334,-2.2420456,1.9593675,-11.429384,-4.899395,-7.130548,-9.644315,-0.99221,-26.234959
461,537405354,-5.6001205,-10.023415,-122.14624,-0.7129326,0.9322326,0.954537,-1.5705073,-2.4370914,2.144612,-11.441266,-4.883858,-7.114639,-9.67049,-1.032828,-26.199215
462,537422021,-5.596695,-9.975578,-122.12059,-0.7134094,0.922631,0.9542613,-1.5814991,-2.5867462,2.3082058,-11.453156,-4.868481,-7.098735,-9.696848,-1.07594,-26.160745
463,537438688,-5.5911636,-9.926094,-122.09581,-0.71382046,0.91263366,0.9521928,-1.5414093,-2.6821613,2.4457448,-11.465053,-4.85327,-7.082865,-9.722538,-1.120643,-26.119983
464,537455355,-5.590866,-9.873779,-122.064545,-0.7141037,0.90187323,0.94864154,-1.4798522,-2.7588987,2.5740712,-11.476955,-4.838239,-7.067054,-9.747202,-1.166625,-26.077082
465,537472022,-5.592003,-9.819077,-122.03041,-0.71429443,0.89047086,0.9432545,-1.3786149,-2.7988014,2.6840565,-11.48886,-4.823398,-7.051333,-9.770179,-1.213272,-26.032348
466,537488689,-5.6069183,-9.760559,-121.98183,-0.71418,0.878047,0.9368301,-1.2839503,-2.8309076,2.7905738,-11.500763,-4.808764,-7.035719,-9.791578,-1.260454,-25.985838
467,537505356,-5.636757,-9.697975,-121.91763,-0.7137451,0.8645284,0.92933226,-1.1983988,-2.857427,2.8944724,-11.512659,-4.794355,-7.02023,-9.811551,-1.308078,-25.937597
468,537522023,-5.672516,-9.63237,-121.8463,-0.71310425,0.8501793,0.92001146,-1.0831366,-2.8474252,2.9799354,-11.524544,-4.780185,-7.004896,-9.829603,-1.355535,-25.887931
469,537538690,-5.717209,-9.563309,-121.76494,-0.712204,0.8348839,0.9089778,-0.9477637,-2.8062954,3.0495746,-11.536414,-4.76627,-6.989746,-9.845399,-1.402307,-25.837105
470,537555357,-5.7232437,-9.497086,-121.7213,-0.7121906,0.82174075,0.9021077,-0.83961725,-2.7366784,3.1298869,-11.548284,-4.752574,-6.974711,-9.859393,-1.447918,-25.78494
471,537572024,-5.684967,-9.434364,-121.72098,-0.7131853,0.8110739,0.89985716,-0.75826335,-2.6333387,3.220688,-11.56017,-4.739056,-6.959713,-9.872031,-1.491807,-25.731262
472,537588691,-5.627022,-9.371872,-121.73935,-0.7145939,0.80132675,0.8994925,-0.68754435,-2.4972608,3.3105094,-11.57208,-4.725701,-6.944721,-9.88349,-1.533428,-25.676087
473,537605358,-5.535507,-9.311386,-121.79027,-0.71675014,0.7933885,0.90264726,-0.63928056,-2.3265498,3.4056232,-11.584026,-4.712478,-6.929677,-9.894145,-1.572204,-25.619327
474,537622025,-5.435951,-9.249435,-121.84807,-0.7190037,0.78549814,0.90566176,-0.5757203,-2.1102076,3.4857695,-11.596009,-4.699386,-6.914583,-9.90374,-1.607374,-25.561231
475,537638692,-5.3297043,-9.185783,-121.911316,-0.72131824,0.77755904,0.9083444,-0.49516273,-1.8460567,3.5492117,-11.608031,-4.686427,-6.899444,-9.911993,-1.638142,-25.502077
476,537655359,-5.1913834,-9.123779,-122.005554,-0.7243042,0.7712501,0.9139693,-0.42638016,-1.5362374,3.6109288,-11.620103,-4.673573,-6.884211,-9.919099,-1.663746,-25.441895
477,537672026,-5.0256653,-9.062706,-122.12601,-0.72784233,0.7662363,0.921812,-0.36131024,-1.176553,3.6660712,-11.632234,-4.660802,-6.868847,-9.925121,-1.683355,-25.380794
478,537688693,-4.904419,-8.992088,-122.20035,-0.7323065,0.75731957,0.9297328,-0.2808602,-1.0523251,3.7866023,-11.644439,-4.64818,-6.853351,-9.929802,-1.700894,-25.317684
479,537705360,-4.8306503,-8.911339,-122.225464,-0.73784065,0.7442403,0.9380087,-0.18646574,-1.1910293,3.9812853,-11.656736,-4.635776,-6.837718,-9.93291,-1.720744,-25.251329
480,537722027,-4.7728043,-8.82505,-122.23311,-0.7442007,0.7292628,0.9472377,-0.08157992,-1.4544151,4.212739,-11.669139,-4.623622,-6.821931,-9.93427,-1.744984,-25.181117
481,537738694,-4.7497025,-8.73037,-122.204285,-0.7515402,0.7109978,0.9570051,0.038354397,-1.9238299,4.5020933,-11.681665,-4.611772,-6.805981,-9.933631,-1.777048,-25.106082
482,537755361,-4.7123184,-8.634331,-122.188385,-0.75982475,0.69292796,0.9694913,0.15485334,-2.4335182,4.8112497,-11.694329,-4.600223,-6.789823,-9.93105,-1.817607,-25.025895
483,537772028,-4.6576157,-8.537277,-122.1884,-0.76907444,0.67524314,0.98486495,0.26757908,-2.975266,5.1382465,-11.707147,-4.588969,-6.773409,-9.92659,-1.867195,-24.940258
484,537788695,-4.6261673,-8.433266,-122.16348,-0.7794752,0.6550003,1.00177,0.38961315,-3.7050169,5.521373,-11.720138,-4.578052,-6.756713,-9.920096,-1.928945,-24.848235
485,537805362,-4.607521,-8.3237,-122.12402,-0.79105854,0.6329191,1.0207562,0.5171275,-4.5913467,5.9537287,-11.733322,-4.567503,-6.7397,-9.911477,-2.005467,-24.749006
486,537822029,-4.6511,-8.210632,-122.02196,-0.8000212,0.61172295,1.0287588,0.56390524,-5.289807,6.267209,-11.746656,-4.557308,-6.722554,-9.902079,-2.09363,-24.644553
487,537838696,-4.767296,-8.093445,-121.846954,-0.8060436,0.5912852,1.0243734,0.5225463,-5.7904205,6.451235,-11.76009,-4.547453,-6.705481,-9.89337,-2.190137,-24.537032
488,537855363,-4.926193,-7.9720078,-121.628296,-0.8109665,0.57077503,1.0141745,0.43076086,-6.238716,6.581518,-11.773606,-4.53794,-6.688578,-9.886191,-2.294116,-24.42734
489,537872030,-5.144043,-7.846649,-121.35005,-0.8137293,0.5508323,0.99439526,0.26382875,-6.5458384,6.6123075,-11.787168,-4.528759,-6.672005,-9.881794,-2.403213,-24.317135
490,537888697,-5.403267,-7.714485,-121.02904,-0.8166151,0.52908397,0.97229403,0.074714184,-6.956483,6.65191,-11.800778,-4.519941,-6.6558,-9.880549,-2.519154,-24.20627
491,537905364,-5.703392,-7.5753326,-120.66557,-0.81975746,0.50541186,0.9482506,-0.13498402,-7.4855556,6.7061434,-11.814441,-4.511517,-6.639996,-9.882799,-2.643913,-24.094501
492,537922031,-6.068901,-7.43071,-120.235916,-0.82108116,0.48151374,0.91523874,-0.41429305,-7.9359474,6.6808815,-11.828126,-4.503492,-6.624742,-9.889704,-2.776179,-23.983153
493,537938698,-6.497864,-7.279846,-119.74188,-0.82103825,0.45686078,0.8746161,-0.7536149,-8.360477,6.598056,-11.84181,-4.495878,-6.610165,-9.902264,-2.91552,-23.873185
494,537955365,-6.8558884,-7.133705,-119.32529,-0.82172203,0.43378925,0.841455,-0.97222185,-8.650522,6.5905037,-11.855505,-4.488648,-6.596141,-9.918468,-3.059695,-23.763343
495,537972032,-7.1348877,-6.993347,-118.99507,-0.8230305,0.4127102,0.8161262,-1.0597277,-8.770373,6.658249,-11.869222,-4.481769,-6.582539,-9.93613,-3.205868,-23.652372
496,537988699,-7.398842,-6.853035,-118.6837,-0.82423496,0.39214277,0.7922174,-1.0962472,-8.806137,6.752083,-11.882959,-4.475233,-6.569335,-9.954401,-3.352637,-23.539837
497,538005366,-7.6118774,-6.7158203,-118.429184,-0.8258095,0.37280178,0.7735737,-1.0329251,-8.718246,6.9052505,-11.896722,-4.46902,-6.556442,-9.971616,-3.497941,-23.424749
498,538022033,-7.860367,-6.5756607,-118.14113,-0.82596016,0.3537569,0.74940413,-0.98890424,-8.517968,7.0150146,-11.910488,-4.463124,-6.543952,-9.988098,-3.639907,-23.307832
499,538038700,-8.1503525,-6.4320755,-117.81326,-0.82455826,0.3349235,0.7190075,-0.970597,-8.206428,7.0759478,-11.924231,-4.457542,-6.531969,-10.004275,-3.776681,-23.1899
500,538055367,-8.408035,-6.2908325,-117.523544,-0.82286835,0.31741786,0.6909809,-0.87592196,-7.7386627,7.167075,-11.937945,-4.452252,-6.520453,-10.018874,-3.905659,-23.070449
501,538072034,-8.651901,-6.150688,-117.25276,-0.820467,0.30107808,0.66295695,-0.7292299,-7.112031,7.266122,-11.951619,-4.447234,-6.509404,-10.031028,-4.024193,-22.949347
502,538088701,-8.854759,-6.004059,-117.00214,-0.82209873,0.27958298,0.639815,-0.44600987,-6.671446,7.374934,-11.965321,-4.442574,-6.49874,-10.038461,-4.135384,-22.826431
503,538105368,-9.003906,-5.851036,-116.78241,-0.8283596,0.25250006,0.62308824,-0.0030884743,-6.4383335,7.5029325,-11.979127,-4.438366,-6.488355,-10.038512,-4.24269,-22.701382
504,538122035,-9.123848,-5.694496,-116.58099,-0.8367033,0.22273946,0.60887307,0.54540586,-6.242362,7.6339436,-11.993072,-4.434654,-6.478207,-10.029422,-4.346729,-22.57415
505,538138702,-9.2030945,-5.532646,-116.40219,-0.8485203,0.18857217,0.598903,1.2297239,-6.1749268,7.771164,-12.007214,-4.431511,-6.468225,-10.008927,-4.449644,-22.444631
506,538155369,-9.237755,-5.371414,-116.26608,-0.8613596,0.15396881,0.59254146,2.030178,-6.018429,7.933757,-12.02157,-4.428945,-6.458349,-9.975091,-4.549951,-22.312402
507,538172036,-9.227142,-5.211212,-116.17413,-0.87507343,0.119148016,0.5896863,2.9478664,-5.755763,8.121411,-12.036155,-4.426959,-6.448521,-9.92596,-4.64588,-22.177045
508,538188703,-9.161049,-5.047592,-116.12207,-0.8921461,0.08061123,0.59234995,4.0232105,-5.5729275,8.328313,-12.051024,-4.425615,-6.438649,-9.858906,-4.738762,-22.03824
509,538205370,-9.036423,-4.8818665,-116.11621,-0.9121294,0.03915763,0.60058254,5.25686,-5.422429,8.559209,-12.066226,-4.424962,-6.428639,-9.771292,-4.829136,-21.895587
510,538222037,-8.931946,-4.726265,-116.08525,-0.9260683,0.004817009,0.60746676,6.1237392,-5.1846275,8.615672,-12.08166,-4.424882,-6.418515,-9.66923,-4.915546,-21.751992
511,538238704,-8.851006,-4.581543,-116.02434,-0.93347454,-0.021894455,0.61287934,6.5815754,-4.871552,8.478338,-12.097218,-4.425247,-6.4083,-9.559537,-4.996739,-21.610686
512,538255371,-8.751862,-4.4430237,-115.97356,-0.93833923,-0.045202255,0.62037385,6.882409,-4.507889,8.244498,-12.112857,-4.426,-6.39796,-9.44483,-5.07187,-21.473278
513,538272038,-8.6540985,-4.314148,-115.914474,-0.93826103,-0.062394142,0.62830645,6.8806934,-4.0672684,7.8576307,-12.128495,-4.42704,-6.387488,-9.330152,-5.139658,-21.342317
514,538288705,-8.506279,-4.1869125,-115.89006,-0.93913174,-0.08020902,0.6414741,6.895563,-3.6653395,7.430846,-12.144147,-4.428377,-6.376797,-9.215226,-5.200747,-21.21847
515,538305372,-8.302727,-4.061142,-115.90526,-0.94128895,-0.09895611,0.6604253,6.9456673,-3.3064494,6.9699736,-12.159835,-4.430026,-6.36579,-9.099465,-5.255854,-21.102304
516,538322039,-8.084618,-3.9440384,-115.92378,-0.93970585,-0.112891436,0.6815188,6.743388,-2.9121914,6.36775,-12.175497,-4.431908,-6.354431,-8.987075,-5.304391,-20.996175
517,538338706,-7.8394012,-3.834137,-115.95589,-0.93560123,-0.123366594,0.7059637,6.3526583,-2.5082283,5.6456137,-12.19109,-4.433964,-6.342665,-8.881197,-5.346195,-20.902081
518,538355373,-7.6315765,-3.7258377,-115.98654,-0.9345293,-0.1361587,0.7248041,5.967162,-2.216392,5.134342,-12.206665,-4.436233,-6.330585,-8.781744,-5.383135,-20.816509
519,538372040,-7.471901,-3.6197357,-116.01015,-0.9363661,-0.1510346,0.73681045,5.56341,-2.0420473,4.8503675,-12.222271,-4.43875,-6.318305,-8.689021,-5.417169,-20.73567
520,538388707,-7.320671,-3.5177917,-116.04126,-0.93925667,-0.16608739,0.74713874,5.0868645,-1.9473131,4.6495523,-12.237925,-4.441518,-6.305853,-8.60424,-5.449624,-20.658177
521,538405374,-7.197464,-3.4189224,-116.07442,-0.9445534,-0.18267179,0.75315964,4.5758333,-1.9667331,4.620281,-12.253668,-4.444563,-6.2933,-8.527976,-5.482403,-20.581172
522,538422041,-7.073616,-3.3287048,-116.11058,-0.94768906,-0.1958282,0.75934726,3.8368287,-2.0116296,4.540577,-12.269463,-4.447827,-6.280644,-8.464029,-5.51593,-20.505496
523,538438708,-6.9467087,-3.247673,-116.15059,-0.94843864,-0.20527267,0.76605344,2.8553882,-2.0821886,4.3982935,-12.28527,-4.451248,-6.267876,-8.416439,-5.550633,-20.432191
524,538455375,-6.8489,-3.1723404,-116.18875,-0.95019436,-0.21455693,0.7686837,1.7535787,-2.2549267,4.380781,-12.301107,-4.454824,-6.255065,-8.387213,-5.588215,-20.359178
525,538472042,-6.7749405,-3.1041718,-116.224976,-0.9519596,-0.22255468,0.7681009,0.48315954,-2.5145192,4.4421444,-12.316973,-4.458533,-6.242263,-8.37916,-5.630124,-20.285142
526,538488709,-6.720421,-3.032753,-116.24118,-0.956419,-0.23112702,0.7698132,-0.64989805,-2.7293458,4.383033,-12.332913,-4.462385,-6.229433,-8.389992,-5.675613,-20.212091
527,538505376,-6.6908264,-2.956894,-116.2339,-0.9642229,-0.24080801,0.77360594,-1.6080103,-2.8986077,4.208785,-12.348983,-4.466398,-6.21654,-8.416792,-5.723923,-20.141945
528,538522043,-6.6863174,-2.8827286,-116.210846,-0.9734087,-0.24988818,0.77730906,-2.5747519,-3.0771313,3.9842894,-12.365206,-4.470563,-6.203585,-8.459705,-5.775209,-20.07554
529,538538710,-6.7085495,-2.8073425,-116.16576,-0.98485756,-0.25896692,0.7821629,-3.463905,-3.2324488,3.6611936,-12.38162,-4.474879,-6.190549,-8.517437,-5.829083,-20.01452
530,538555377,-6.7700195,-2.7362823,-116.1069,-0.997879,-0.26780057,0.78365266,-4.429991,-3.4659965,3.4053204,-12.398251,-4.479342,-6.177488,-8.59127,-5.88685,-19.957765
531,538572044,-6.8732986,-2.6701126,-116.033615,-1.0123835,-0.27625012,0.7814019,-5.489548,-3.785053,3.224622,-12.415124,-4.483946,-6.164465,-8.682762,-5.949934,-19.904021
532,538588711,-7.0154724,-2.603569,-115.93527,-1.0295362,-0.28497314,0.77859014,-6.4908056,-4.1127377,2.9965765,-12.432283,-4.488696,-6.151488,-8.790942,-6.01848,-19.854078
533,538605378,-7.2012634,-2.5378723,-115.81242,-1.0492573,-0.2939167,0.7741196,-7.4669867,-4.472272,2.7574356,-12.449771,-4.493595,-6.138586,-8.915392,-6.093018,-19.808121
534,538622045,-7.425331,-2.4674454,-115.67009,-1.0595579,-0.30105472,0.7678135,-8.52899,-4.944417,2.6462214,-12.46743,-4.498613,-6.125789,-9.057542,-6.175425,-19.764017
535,538638712,-7.6891174,-2.390953,-115.50609,-1.0594807,-0.3063271,0.75990283,-9.665331,-5.5294814,2.6638887,-12.485088,-4.503718,-6.113124,-9.218631,-6.267583,-19.719619
536,538655379,-8.000595,-2.3117447,-115.31708,-1.054678,-0.3106873,0.74959457,-10.84384,-6.2067575,2.7710745,-12.502666,-4.508896,-6.100631,-9.399362,-6.371029,-19.673434
537,538672046,-8.360123,-2.22789,-115.10289,-1.0418205,-0.31362724,0.73683876,-12.087316,-6.9980307,3.004969,-12.52003,-4.514123,-6.08835,-9.600817,-6.487663,-19.623351
538,538688713,-8.77343,-2.1412582,-114.855835,-1.0281706,-0.3164804,0.72234917,-13.292748,-7.8394814,3.2552407,-12.537166,-4.519398,-6.076311,-9.822363,-6.618321,-19.569097
539,538705380,-9.243637,-2.0518036,-114.574005,-1.0141182,-0.3193581,0.70595866,-14.452979,-8.731163,3.5207365,-12.554068,-4.524721,-6.064545,-10.063246,-6.76384,-19.510418
540,538722047,-9.769859,-1.9567108,-114.25995,-0.9930849,-0.32118177,0.68720865,-15.635489,-9.724896,3.8900793,-12.570619,-4.530074,-6.053092,-10.323837,-6.925922,-19.445583
541,538738714,-10.355385,-1.8560638,-113.910645,-0.9664993,-0.3222561,0.66615444,-16.81527,-10.809134,4.342469,-12.586727,-4.535445,-6.041989,-10.604091,-7.106074,-19.373209
542,538755381,-10.980202,-1.7282867,-113.50528,-0.97234917,-0.33975816,0.6423174,-17.720188,-12.017982,4.863921,-12.602933,-4.541108,-6.031284,-10.899427,-7.306374,-19.292144
543,538772048,-11.644035,-1.570404,-113.040634,-1.0135298,-0.37533307,0.61554354,-18.326582,-13.362917,5.4659586,-12.619825,-4.547364,-6.021025,-11.20487,-7.529089,-19.201045
544,538788715,-12.360458,-1.3922577,-112.52301,-1.0730677,-0.4211669,0.58602434,-18.74128,-14.822115,6.143633,-12.637709,-4.554383,-6.011258,-11.517225,-7.776124,-19.098651
545,538805382,-13.125221,-1.1871109,-111.94522,-1.1615982,-0.48222947,0.5535597,-18.88423,-16.408918,6.898123,-12.657069,-4.56242,-6.002032,-11.831962,-8.049606,-18.983682
546,538822049,-13.953056,-0.966156,-111.31761,-1.2554569,-0.54844236,0.5181422,-18.92382,-18.120893,7.7653246,-12.677993,-4.571561,-5.993396,-12.147359,-8.351621,-18.85426
547,538838716,-14.846855,-0.72927094,-110.63878,-1.3536434,-0.61948395,0.47970378,-18.860638,-19.9598,8.748748,-12.700554,-4.581886,-5.985401,-12.461703,-8.684284,-18.708448
548,538855383,-15.796753,-0.4644394,-109.89595,-1.4775019,-0.7049422,0.4380178,-18.535286,-21.941069,9.834417,-12.725179,-4.593635,-5.978101,-12.770624,-9.049968,-18.544541
549,538872050,-16.80732,-0.17318726,-109.089645,-1.6225004,-0.80302,0.39301103,-17.975277,-24.067215,11.033027,-12.752221,-4.607019,-5.971551,-13.070212,-9.451088,-18.360657
550,538888717,-18.004776,0.15581512,-108.18349,-1.621356,-0.80942917,0.35608822,-19.075762,-26.742273,12.082432,-12.779244,-4.620509,-5.965616,-13.388141,-9.896793,-18.159283
551,538905384,-19.402115,0.5262604,-107.17035,-1.4602108,-0.7150872,0.32831484,-22.00278,-30.013685,12.957985,-12.803581,-4.632427,-5.960144,-13.754854,-10.397021,-17.943317
552,538922051,-20.94468,0.9327774,-106.065674,-1.2149019,-0.5679755,0.30423182,-25.879642,-33.69797,13.793106,-12.823829,-4.641893,-5.955073,-14.186181,-10.958654,-17.713432
553,538938718,-22.669884,1.380043,-104.85684,-0.8381624,-0.3384924,0.28708363,-31.244104,-37.91685,14.514366,-12.837798,-4.647535,-5.950288,-14.706916,-11.590602,-17.471526
554,538955385,-24.505348,1.8661346,-103.55838,-0.4321823,-0.089416265,0.27016544,-36.95597,-42.4483,15.273113,-12.845001,-4.649025,-5.945785,-15.322849,-12.298074,-17.216974
555,538972052,-26.450226,2.3921738,-102.16861,-0.0011758804,0.17662287,0.25315452,-42.966087,-47.289562,16.079376,-12.845021,-4.646081,-5.941566,-16.03895,-13.086233,-16.948984
556,538988719,-28.575737,2.9642944,-100.667145,0.54845715,0.5176761,0.24231529,-50.328453,-52.666286,16.792824,-12.83588,-4.637453,-5.937527,-16.877758,-13.964004,-16.669104
557,539005386,-30.870163,3.5834656,-99.05435,1.1974335,0.9219563,0.23637581,-58.82817,-58.543377,17.443834,-12.815923,-4.622087,-5.933587,-17.858228,-14.939727,-16.378373
558,539022053,-33.002663,4.5295486,-97.57457,1.6927872,1.1308972,0.19694221,-62.932556,-65.8277,19.616062,-12.78771,-4.603239,-5.930305,-18.907104,-16.036855,-16.051439
559,539038720,-34.952415,5.833664,-96.24736,2.0235634,1.127338,0.1210804,-62.24317,-74.65581,23.450907,-12.753984,-4.58445,-5.928287,-19.94449,-17.281118,-15.660591
560,539055387,-36.870552,7.367161,-94.95584,2.2983694,1.0263525,0.02610445,-59.239815,-84.595,28.224976,-12.715678,-4.567344,-5.927852,-20.93182,-18.691035,-15.190175
561,539072054,-38.667305,9.213184,-93.76776,2.4502335,0.75686693,-0.09871364,-52.387383,-95.931595,34.390446,-12.674841,-4.55473,-5.929497,-21.804943,-20.289895,-14.617001
562,539088721,-40.55683,11.215466,-92.53357,2.6527224,0.4847715,-0.229496,-45.176003,-108.226685,41.001156,-12.630629,-4.54665,-5.933322,-22.557876,-22.093673,-13.933648
563,539105388,-42.551506,13.370655,-91.24455,2.915492,0.21812224,-0.3651774,-37.767235,-121.48317,48.021038,-12.582037,-4.543015,-5.939408,-23.18733,-24.118392,-13.133297
564,539122055,-44.46624,15.834305,-90.03517,3.094266,-0.1887021,-0.52726746,-27.053295,-136.19742,56.332714,-12.530466,-4.54616,-5.948196,-23.638218,-26.388349,-12.194418
565,539138722,-46.34498,18.580486,-88.87538,3.2253408,-0.7027948,-0.7111629,-13.71563,-152.31218,65.761635,-12.47671,-4.557873,-5.960049,-23.866812,-28.926885,-11.098391
566,539155389,-47.829903,20.893494,-87.38365,3.0726824,-0.96491003,-0.73038924,-5.491067,-158.95935,68.369156,-12.425499,-4.573955,-5.972222,-23.95833,-31.576208,-9.958905
567,539172056,-48.857826,22.728382,-85.54086,2.5926352,-0.95981264,-0.5691167,-2.6995883,-155.12706,63.484676,-12.382288,-4.589952,-5.981707,-24.003323,-34.161659,-8.900827
568,539188723,-49.62249,24.4113,-83.508514,1.9184618,-0.83683586,-0.3120762,-2.0957758,-145.90001,54.73695,-12.350314,-4.603899,-5.986908,-24.038253,-36.593326,-7.988545
569,539205390,-50.00936,25.748074,-81.18379,0.9743881,-0.5002947,0.093601346,-5.731419,-128.17075,39.88033,-12.334074,-4.612237,-5.985348,-24.133777,-38.729505,-7.323873
570,539222057,-50.171608,27.201424,-78.823654,-0.14375305,-0.198205,0.5347495,-8.256578,-108.3483,23.734528,-12.33647,-4.61554,-5.976436,-24.271387,-40.53531,-6.928298
571,539238724,-50.111153,28.797722,-76.44032,-1.4339132,0.057255507,1.006814,-9.394394,-86.70093,6.502754,-12.360369,-4.614586,-5.959656,-24.42796,-41.980325,-6.819919
572,539255391,-49.64129,30.136692,-73.815704,-3.016725,0.47298336,1.614028,-13.588886,-57.21507,-16.24388,-12.410648,-4.606703,-5.932756,-24.654441,-42.933909,-7.09065
573,539272058,-48.781548,31.313156,-71.00174,-4.8800173,0.99810314,2.335185,-19.732048,-21.081024,-43.595585,-12.491982,-4.590068,-5.893836,-24.983308,-43.285259,-7.817243
574,539288725,-49.02453,31.433823,-70.002106,-5.896555,1.2479347,2.83562,-19.384624,9.385761,-64.90236,-12.590258,-4.569269,-5.846576,-25.306385,-43.12883,-8.898949
575,539305392,-50.48269,30.349651,-70.99202,-5.977141,1.2113895,3.097842,-12.280873,33.914646,-79.7831,-12.689877,-4.549079,-5.794945,-25.511066,-42.563586,-10.228667
576,539322059,-52.454918,28.535011,-73.06583,-5.651324,1.0370369,3.26788,-1.6742527,57.69894,-92.76221,-12.784066,-4.531795,-5.74048,-25.53897,-41.601937,-11.774704
577,539338726,-55.353096,25.70731,-76.79515,-4.605726,0.62351155,3.255862,14.672083,77.6067,-101.05632,-12.860828,-4.521403,-5.686216,-25.294435,-40.308492,-13.458976
578,539355393,-58.252373,22.265675,-80.971436,-3.530809,0.2487657,3.2855954,30.704172,102.56233,-112.122154,-12.919675,-4.517257,-5.631456,-24.782699,-38.59912,-15.327679
579,539372060,-61.100777,18.216335,-85.55014,-2.4634748,-0.07520366,3.3690505,46.173477,133.14366,-126.392426,-12.960733,-4.51851,-5.575305,-24.013141,-36.380059,-17.434219
580,539388727,-64.72285,13.0893135,-91.6534,-0.7813854,-0.57509565,3.3163872,66.0528,162.28719,-137.77249,-12.973756,-4.528095,-5.520032,-22.912261,-33.675273,-19.730427
581,539405394,-68.9331,6.9388275,-99.058304,1.3790483,-1.1940329,3.173589,89.11561,191.95668,-147.84712,-12.950772,-4.547996,-5.467139,-21.427001,-30.475995,-22.194546
582,539422061,-67.156944,2.4431152,-96.75107,2.7007122,-1.7369773,2.7420878,103.46462,214.35095,-154.16066,-12.90576,-4.576946,-5.421438,-19.702591,-26.903479,-24.76389
583,539438728,-58.840965,-0.22286224,-83.78383,3.1432447,-2.2145035,1.9749262,108.560295,227.83061,-155.6731,-12.853373,-4.613854,-5.388523,-17.893253,-23.106302,-27.358442
584,539455395,-46.95275,-2.3139038,-65.1996,3.2472286,-2.6825159,0.9929255,109.21676,237.39723,-154.56429,-12.799253,-4.658563,-5.371974,-16.072974,-19.149681,-29.934513
585,539472062,-29.627823,-3.1050568,-37.87466,2.6692543,-3.0954287,-0.27188933,102.22541,240.53093,-149.84894,-12.754765,-4.710153,-5.376505,-14.369217,-15.140832,-32.431995
586,539488729,-10.86451,-4.303871,-8.463772,2.3449097,-3.6285522,-1.7588488,95.81038,239.93459,-141.31702,-12.715683,-4.770629,-5.405819,-12.772377,-11.141922,-34.787279
587,539505396,9.181389,-6.0168686,22.757526,2.3245392,-4.2901154,-3.468718,90.314896,235.7779,-128.94908,-12.676941,-4.842131,-5.463631,-11.267129,-7.21229,-36.93643
588,539522063,34.19111,-6.762802,61.930176,1.8476725,-4.956028,-5.4991646,78.81184,224.32039,-111.83168,-12.646146,-4.924731,-5.555284,-9.953598,-3.473617,-38.800291
589,539538730,63.417984,-6.8959885,107.80458,1.111599,-5.665328,-7.846772,62.94513,205.91675,-89.75545,-12.627619,-5.019153,-5.686064,-8.904513,-0.041671,-40.296215
590,539555397,83.63402,-7.3981705,140.16165,0.73301125,-5.9373255,-9.196074,52.396263,186.54822,-71.19347,-12.615402,-5.118108,-5.839332,-8.031242,3.067466,-41.482773
591,539572064,94.07808,-8.161499,157.91882,0.6767273,-5.710347,-9.437168,47.17048,165.9905,-56.641132,-12.604123,-5.21328,-5.996618,-7.245067,5.833974,-42.426792
592,539588731,100.56939,-8.943024,169.91257,0.7820883,-5.237693,-9.194871,43.70849,141.35881,-41.767483,-12.591088,-5.300575,-6.149866,-6.516592,8.189954,-43.122917
593,539605398,99.524925,-9.948151,170.70125,1.1946926,-4.3771124,-8.101359,44.440483,113.923744,-28.778341,-12.571176,-5.373527,-6.284889,-5.775917,10.088683,-43.602556
594,539622065,99.65914,-10.208473,173.75314,1.3576488,-3.373676,-6.950836,41.81926,78.9077,-12.310854,-12.548549,-5.429755,-6.400736,-5.078929,11.403811,-43.807737
595,539638732,101.42416,-9.668266,179.7819,1.2499533,-2.239751,-5.785619,35.45501,35.72338,8.121996,-12.527716,-5.467084,-6.497163,-4.488012,11.999201,-43.67237
596,539655399,97.33648,-8.960114,177.32674,1.2687759,-0.7226436,-3.88232,31.147276,-12.394425,28.014189,-12.50657,-5.479128,-6.561868,-3.968891,11.792627,-43.205467
597,539672066,89.16531,-7.8549347,169.14566,1.293375,1.1343457,-1.3966576,27.263725,-66.730515,48.58374,-12.485014,-5.460222,-6.585146,-3.514496,10.680452,-42.395738
598,539688733,83.73467,-7.383629,166.12744,1.2428236,2.314685,0.20513284,23.040142,-103.14778,63.32884,-12.4643,-5.421644,-6.581727,-3.130494,8.961322,-41.340257
599,539705400,80.6759,-7.696701,167.78131,1.1504593,2.7594175,0.88445354,19.077097,-119.01345,71.03232,-12.445126,-5.375654,-6.566986,-2.812542,6.977764,-40.156385
600,539722067,77.850395,-8.129524,170.68657,0.9682884,2.9274707,1.2427429,14.612116,-126.7296,75.58022,-12.428988,-5.326863,-6.546274,-2.569007,4.865604,-38.896715
601,539738734,76.82489,-8.978371,177.39493,0.6821146,2.545089,0.9011067,9.619606,-119.35419,74.90907,-12.417619,-5.284445,-6.531256,-2.40868,2.876368,-37.64823
602,539755401,71.5747,-9.782494,178.46672,0.43955898,2.2753665,0.91176635,6.0268307,-110.286736,71.6749,-12.410293,-5.246522,-6.51606,-2.308233,1.038256,-36.453648
603,539772068,61.755928,-10.483803,173.40271,0.23577881,2.15655,1.3340024,3.8311381,-100.30776,66.00916,-12.406363,-5.21058,-6.493827,-2.244381,-0.63354,-35.353495
604,539788735,51.60167,-11.570251,168.95241,-0.014923096,1.6200064,1.321244,2.1077247,-76.48879,54.635986,-12.406612,-5.18358,-6.471806,-2.209252,-1.908353,-34.442895
605,539805402,39.73224,-12.943207,162.9931,-0.28333664,0.80258083,1.0981286,1.2997613,-41.386585,37.94391,-12.411334,-5.170204,-6.453504,-2.187589,-2.598129,-33.810497
606,539822069,30.324753,-13.674576,150.30914,-0.48471928,0.3712926,1.064456,-0.38795495,-21.72492,27.896492,-12.419413,-5.164016,-6.435763,-2.194055,-2.960211,-33.345555
607,539838736,24.194855,-13.74688,131.02489,-0.61796856,0.31496954,1.1545606,-3.1471994,-18.119127,25.03313,-12.429712,-5.158767,-6.41652,-2.246508,-3.262196,-32.928336
608,539855403,18.34716,-13.539108,106.012405,-0.7023325,0.40517688,1.3299099,-5.763954,-19.324268,23.769636,-12.441418,-5.152014,-6.394355,-2.342574,-3.584267,-32.532175
609,539872070,14.047768,-12.815247,73.87051,-0.7140293,0.8055812,1.671658,-8.706225,-32.153755,27.215324,-12.453318,-5.138588,-6.366494,-2.487678,-4.120163,-32.078586
610,539888737,9.863983,-12.234322,39.17863,-0.72789574,0.97712874,1.7284235,-11.136684,-37.40996,27.365559,-12.46545,-5.122303,-6.337687,-2.673289,-4.743662,-31.622493
611,539905404,5.567047,-11.835129,1.8595543,-0.74342155,0.8930347,1.4861914,-12.904065,-33.874214,23.62689,-12.47784,-5.107419,-6.312917,-2.888357,-5.308232,-31.228711
612,539922071,3.0019226,-11.090477,-41.67902,-0.7010155,0.9576944,1.2307845,-14.798715,-36.823914,22.60251,-12.489524,-5.091457,-6.292404,-3.135002,-5.921964,-30.852002
613,539938738,1.8840942,-10.1423645,-90.62973,-0.614171,1.0536544,0.86064434,-16.60217,-42.06049,22.52947,-12.49976,-5.073896,-6.27806,-3.411705,-6.622972,-30.476511
614,539955405,-0.35367584,-9.49128,-123.9173,-0.5744133,1.074419,0.62257046,-17.759853,-43.063255,21.105711,-12.509334,-5.055989,-6.267684,-3.707703,-7.340693,-30.124749
615,539972072,-3.6305008,-9.123505,-139.92398,-0.58210754,1.0543348,0.56364,-18.305,-40.999283,18.915255,-12.519036,-5.038417,-6.25829,-4.012786,-8.024014,-29.809495
616,539988739,-6.8545456,-8.900284,-148.09871,-0.6013899,0.96103704,0.49021924,-18.330452,-36.046688,15.840305,-12.529059,-5.0224,-6.25012,-4.318294,-8.624792,-29.54549
617,540005406,-10.601082,-8.946526,-142.5377,-0.6550951,0.77548325,0.4738403,-17.698982,-26.865698,11.474463,-12.539977,-5.009475,-6.242223,-4.613277,-9.072554,-29.354249
618,540022073,-12.879837,-8.839546,-136.52626,-0.671031,0.6609732,0.43974274,-16.86969,-21.038118,8.781747,-12.551161,-4.998459,-6.234894,-4.894438,-9.423189,-29.207887
619,540038740,-13.503769,-8.567505,-130.64297,-0.6447382,0.61594915,0.3688345,-15.83915,-18.68393,7.829262,-12.561907,-4.988193,-6.228747,-5.158424,-9.734588,-29.077399
620,540055407,-13.890663,-8.448364,-112.97156,-0.6310215,0.5442474,0.35922533,-14.255578,-14.974953,6.860857,-12.572424,-4.979122,-6.22276,-5.396017,-9.984171,-28.963051
621,540072074,-13.547493,-8.395157,-86.073456,-0.6137657,0.4800496,0.39242792,-12.203387,-11.549498,6.547454,-12.582653,-4.971121,-6.21622,-5.599407,-10.176663,-28.853927
622,540088741,-13.92292,-8.2438965,-71.344986,-0.61382484,0.4332199,0.39872152,-11.090921,-9.651734,6.109728,-12.592883,-4.963901,-6.209575,-5.784256,-10.337525,-28.752098
623,540105408,-15.274307,-8.016846,-69.13063,-0.63933754,0.39720035,0.38705045,-11.012371,-8.99419,5.3601847,-12.603539,-4.957281,-6.203124,-5.967796,-10.487428,-28.662762
624,540122075,-16.526573,-7.733925,-70.78528,-0.6690378,0.3925593,0.37913072,-11.355684,-10.207767,5.1939936,-12.61469,-4.950738,-6.196805,-6.157057,-10.657557,-28.576195
625,540138742,-18.09983,-7.3598557,-81.74002,-0.7104912,0.4220147,0.36187553,-12.510836,-13.618093,5.408437,-12.626532,-4.943704,-6.190774,-6.365571,-10.884525,-28.486054
626,540155409,-19.424454,-7.0775375,-86.160965,-0.76500416,0.45353842,0.39680284,-13.557137,-17.278091,6.0519342,-12.639282,-4.936145,-6.184161,-6.591523,-11.172493,-28.385188
627,540172076,-20.391434,-6.892273,-83.10466,-0.8314314,0.49085665,0.4892885,-14.454743,-21.336964,7.2565393,-12.653139,-4.927964,-6.176006,-6.832435,-11.528109,-28.264246
628,540188743,-21.643173,-6.6853256,-85.01482,-0.9163189,0.5537009,0.6003786,-16.010279,-27.110891,8.859141,-12.668411,-4.918736,-6.166,-7.099273,-11.979957,-28.116594
629,540205410,-23.043022,-6.497223,-88.43886,-1.0204058,0.6373613,0.7457979,-18.043512,-34.288807,10.922532,-12.685418,-4.908113,-6.15357,-7.399998,-12.551437,-27.934552
630,540222077,-24.526367,-6.1868362,-89.00047,-1.0624256,0.6902952,0.78171617,-19.721094,-39.630795,11.940742,-12.703125,-4.896608,-6.140541,-7.728683,-13.21195,-27.73554
631,540238744,-26.183968,-5.7296753,-87.729996,-1.0362215,0.7102219,0.6916086,-21.07907,-43.00231,11.754853,-12.720395,-4.884771,-6.129014,-8.080001,-13.928655,-27.539626
632,540255411,-27.960052,-5.222229,-84.30754,-0.9813194,0.7193284,0.55616575,-22.407267,-45.77573,11.142126,-12.73675,-4.872782,-6.119745,-8.453455,-14.691584,-27.353924
633,540272078,-29.876244,-4.622696,-77.900345,-0.875494,0.7039112,0.33461326,-23.513834,-47.09169,9.672036,-12.751342,-4.86105,-6.114168,-8.845352,-15.476446,-27.192723
634,540288745,-32.113777,-3.9830399,-74.164795,-0.7677269,0.7021948,0.10333812,-25.114977,-49.324093,8.250507,-12.764137,-4.849347,-6.112446,-9.263935,-16.298514,-27.055215
635,540305412,-34.692177,-3.3107605,-73.165726,-0.66119957,0.71642196,-0.1311593,-27.258015,-52.606247,6.936138,-12.775157,-4.837407,-6.114632,-9.718235,-17.175285,-26.939613
636,540322079,-37.560432,-2.5428543,-71.45769,-0.51207733,0.7157916,-0.442829,-29.43689,-55.016365,4.8940783,-12.783692,-4.825477,-6.122012,-10.20885,-18.092224,-26.858045
637,540338746,-40.776314,-1.6897888,-70.27261,-0.33038998,0.7085128,-0.81600654,-31.81873,-57.059574,2.306337,-12.789198,-4.813668,-6.135612,-10.739162,-19.043217,-26.819606
638,540355413,-43.366676,-0.8132553,-68.59999,-0.15660572,0.7122618,-1.0780576,-32.406048,-60.0375,1.1041782,-12.791808,-4.801797,-6.15358,-11.279263,-20.043842,-26.801203
639,540372080,-45.250847,0.09172821,-66.07413,0.011545181,0.7249969,-1.22274,-30.948664,-63.838833,1.3585174,-12.791616,-4.789714,-6.173959,-11.795074,-21.107823,-26.778561
640,540388747,-46.94599,1.0495758,-64.10037,0.18710709,0.74390984,-1.3220516,-28.508568,-68.186195,2.2679307,-12.788498,-4.777316,-6.195993,-12.270217,-22.24426,-26.740762
641,540405414,-48.18882,2.047844,-62.387753,0.3608942,0.7728871,-1.3306586,-24.49931,-73.37619,4.3409204,-12.782483,-4.764435,-6.218171,-12.678539,-23.467197,-26.668413
642,540422081,-49.55468,3.1395035,-60.650356,0.56830215,0.79378784,-1.3678638,-19.954327,-78.15557,6.233754,-12.773011,-4.751205,-6.240969,-13.011111,-24.76979,-26.564517
643,540438748,-51.094017,4.3299866,-59.070507,0.81150055,0.80607927,-1.4400154,-14.932149,-82.481476,7.8764105,-12.759486,-4.73777,-6.264969,-13.25998,-26.144481,-26.433243
644,540455415,-52.29531,5.584736,-57.57916,1.065731,0.8218949,-1.4486073,-8.383471,-87.21815,10.377443,-12.741724,-4.724072,-6.289112,-13.399705,-27.598117,-26.260286
645,540472082,-53.284126,6.917572,-56.17953,1.3391972,0.83726645,-1.418528,-0.4968133,-92.0919,13.457176,-12.719404,-4.710118,-6.312754,-13.407985,-29.132982,-26.036
646,540488749,-54.628014,8.025799,-54.932316,1.3866863,0.9077486,-1.4697968,1.0416307,-91.97871,14.130331,-12.696293,-4.694989,-6.337251,-13.390624,-30.66596,-25.800494
647,540505416,-56.315727,8.87669,-53.834576,1.1807823,1.0401785,-1.6016012,-4.374926,-86.435684,12.238113,-12.676613,-4.677653,-6.363944,-13.463539,-32.106555,-25.596525
648,540522083,-58.162743,9.623669,-52.886005,0.8423853,1.2056683,-1.7735752,-13.232497,-77.65916,8.99954,-12.662573,-4.657559,-6.393504,-13.684081,-33.400874,-25.446533
649,540538750,-60.30877,10.179523,-52.102093,0.29983807,1.4205577,-2.0159388,-27.681911,-64.17152,3.598581,-12.657576,-4.633883,-6.427103,-14.145446,-34.470399,-25.386557
650,540555417,-62.29905,10.712589,-51.536922,-0.31199455,1.656091,-2.2331557,-42.996185,-49.12123,-1.953321,-12.662776,-4.606281,-6.464322,-14.862049,-35.289086,-25.419112
651,540572084,-64.11405,11.23201,-51.20464,-0.987422,1.9108317,-2.421256,-58.956863,-32.585876,-7.5796185,-12.679233,-4.574434,-6.504676,-15.844663,-35.832184,-25.545439
652,540588751,-66.09768,11.5751,-51.097057,-1.8593197,2.2140713,-2.6535316,-79.845604,-11.634794,-15.009368,-12.710222,-4.537533,-6.548902,-17.175423,-36.026097,-25.795595
653,540605418,-68.152916,11.773575,-51.237286,-2.903555,2.5606844,-2.9098315,-104.75044,13.173525,-23.849741,-12.758615,-4.494855,-6.597399,-18.921264,-35.806538,-26.193091
654,540622085,-69.95318,11.74255,-50.827305,-3.5407228,2.7403092,-3.080783,-115.87453,30.62113,-30.573566,-12.817627,-4.449183,-6.648745,-20.852506,-35.296186,-26.70265
655,540638752,-71.505135,11.446106,-49.796497,-3.7344618,2.736527,-3.1640277,-112.05787,40.05398,-35.07563,-12.879868,-4.403574,-6.701479,-22.720137,-34.62862,-27.287244
656,540655419,-72.89558,10.938961,-48.545734,-3.7456608,2.6456618,-3.1972642,-101.13929,46.475574,-38.785103,-12.942296,-4.35948,-6.754767,-24.405792,-33.854027,-27.933662
657,540672086,-74.04107,10.183907,-46.853054,-3.416667,2.408972,-3.1513953,-78.22588,46.852936,-40.78083,-12.99924,-4.31933,-6.80729,-25.709557,-33.073145,-28.613343
658,540688753,-75.219185,9.179672,-45.191914,-3.121684,2.1562047,-3.1086745,-54.787697,48.56432,-43.59649,-13.051268,-4.283393,-6.859101,-26.622685,-32.26374,-29.339951
659,540705420,-76.43551,7.9186134,-43.593716,-2.8808823,1.8934989,-3.0714483,-31.362076,52.01394,-47.363876,-13.099283,-4.251835,-6.910292,-27.145386,-31.396841,-30.129349
660,540722087,-77.47872,6.359848,-41.62718,-2.3694477,1.5036938,-2.97295,2.106843,50.87548,-50.02949,-13.138774,-4.226773,-6.959841,-27.110272,-30.548916,-30.963174
661,540738754,-78.404366,4.4927673,-39.38853,-1.6632471,1.0119536,-2.8293982,43.352684,46.660114,-52.12604,-13.166495,-4.209907,-7.006998,-26.387727,-29.771247,-31.831941
662,540755421,-79.36433,3.1188202,-37.605465,-1.2650356,0.71042156,-2.7328281,68.03141,44.14515,-52.72644,-13.187579,-4.198067,-7.052545,-25.25387,-29.035495,-32.710715
663,540772088,-80.346855,2.30262,-36.288105,-1.1795712,0.61091185,-2.6833272,75.14296,42.92676,-51.468643,-13.207239,-4.187885,-7.097267,-24.001487,-28.320049,-33.568526
664,540788755,-81.31565,1.6502686,-35.1514,-1.2165356,0.5902643,-2.6474338,74.7933,41.682293,-49.129673,-13.227515,-4.178047,-7.141391,-22.754932,-27.625344,-34.387354
665,540805422,-82.30546,1.3825836,-34.380497,-1.503686,0.7257123,-2.6483378,60.513725,41.45595,-45.347263,-13.252576,-4.165952,-7.18553,-21.74637,-26.934411,-35.143142
666,540822089,-83.16769,1.0129929,-33.437527,-1.6612482,0.81507194,-2.6135912,49.180878,37.743736,-40.098053,-13.280263,-4.152367,-7.22909,-20.926689,-26.305349,-35.811443
667,540838756,-83.89611,0.50971985,-32.293156,-1.6697855,0.84754884,-2.5395727,41.633667,30.287676,-33.374496,-13.308093,-4.138241,-7.271416,-20.232795,-25.800554,-36.367685
668,540855423,-84.59252,0.3087387,-31.371754,-1.8266315,0.9906168,-2.4819012,23.84086,22.122368,-24.815943,-13.338537,-4.121731,-7.312781,-19.835447,-25.431848,-36.781284
669,540872090,-85.22373,0.3103714,-30.557796,-2.0505657,1.20215,-2.4249654,-0.72301865,12.1966305,-14.357732,-13.372713,-4.101695,-7.353197,-19.847497,-25.228571,-37.02058
670,540888757,-85.60282,0.12044525,-29.841007,-2.1357727,1.337862,-2.321032,-13.39518,5.9288664,-7.2317886,-13.408309,-4.079397,-7.391881,-20.07075,-25.129757,-37.14111
671,540905424,-85.71996,-0.23752594,-29.272228,-2.0973225,1.4053947,-2.171732,-14.173471,4.1173306,-3.83817,-13.443264,-4.055974,-7.428077,-20.306975,-25.061135,-37.20508
672,540922091,-85.63775,-0.63768005,-28.778652,-1.9769287,1.4456552,-1.9887079,-9.632739,3.4088438,-1.6057217,-13.476213,-4.03188,-7.461222,-20.467521,-25.004321,-37.231842
673,540938758,-85.303,-1.1689072,-28.373585,-1.7259617,1.4247696,-1.7599691,4.9506197,5.3863106,-1.9637697,-13.504979,-4.008134,-7.490555,-20.385011,-24.914549,-37.264571
674,540955425,-84.84707,-1.4840088,-28.173344,-1.540123,1.4710653,-1.5272099,14.994883,7.598155,-1.7245574,-13.530648,-3.983616,-7.516008,-20.135096,-24.787913,-37.293314
675,540972092,-84.27021,-1.5615082,-28.17937,-1.4242258,1.5902673,-1.2912265,19.847466,9.790177,-0.6717453,-13.554385,-3.957112,-7.537528,-19.804305,-24.624743,-37.30451
676,540988759,-83.45739,-1.6429596,-28.351757,-1.2400322,1.6909442,-1.0208005,30.786726,14.591351,-1.6386821,-13.575052,-3.92893,-7.554541,-19.291193,-24.381554,-37.331821
677,541005426,-82.43137,-1.6476135,-28.72047,-1.028758,1.8014177,-0.72432625,44.725037,21.51187,-3.9644566,-13.592198,-3.898906,-7.566613,-18.545776,-24.023023,-37.397895
678,541022093,-81.52564,-1.8630371,-29.037624,-0.8763294,1.8932786,-0.52081263,52.84826,26.228039,-4.799878,-13.606803,-3.867351,-7.575293,-17.664972,-23.585889,-37.477893
679,541038760,-80.75521,-2.3396072,-29.283665,-0.77650833,1.9543512,-0.41856837,55.62436,28.741814,-4.260205,-13.619745,-3.834778,-7.582269,-16.737899,-23.106859,-37.548896
680,541055427,-79.97407,-2.880722,-29.603306,-0.71762276,2.018437,-0.36730564,55.11435,30.837263,-3.2810051,-13.631705,-3.801137,-7.588391,-15.819327,-22.592905,-37.603579
681,541072094,-79.27041,-3.5718765,-29.932041,-0.72093105,2.0753984,-0.40038335,49.180817,31.462797,-1.1940436,-13.643721,-3.766547,-7.595064,-14.999647,-22.068525,-37.62348
682,541088761,-78.41439,-4.3010178,-30.409908,-0.7000084,2.118995,-0.44066477,45.87452,33.840153,-0.40755177,-13.655388,-3.73123,-7.602408,-14.235072,-21.504522,-37.630273
683,541105428,-77.39233,-5.0524826,-31.054264,-0.6545191,2.1517315,-0.4855007,45.405197,38.202126,-1.0562444,-13.666297,-3.695368,-7.6105,-13.478319,-20.86782,-37.647877
684,541122095,-76.394554,-5.9579544,-31.74281,-0.6462946,2.167437,-0.60347104,41.949783,42.094765,-1.4055232,-13.677069,-3.659244,-7.620558,-12.779156,-20.166241,-37.671302
685,541138762,-75.3724,-6.9945602,-32.509205,-0.65822506,2.1646872,-0.7800025,37.19036,46.254333,-1.999013,-13.688039,-3.623166,-7.633558,-12.159317,-19.395335,-37.704619
686,541155429,-74.05433,-7.8752213,-32.699276,-0.6355343,2.1839442,-0.88065326,34.20704,49.00164,-2.1811814,-13.698631,-3.586767,-7.648236,-11.5892,-18.578641,-37.740972
687,541172096,-72.43743,-8.593613,-32.231365,-0.5801697,2.2269437,-0.9024042,32.651108,49.905563,-1.7138343,-13.7083,-3.549651,-7.663276,-11.045015,-17.746882,-37.769536
688,541188763,-70.61729,-9.273331,-31.43565,-0.5068388,2.2727504,-0.90061295,32.22232,50.28936,-1.3048068,-13.716747,-3.511772,-7.678286,-10.507976,-16.908726,-37.791283
689,541205430,-68.52366,-9.84185,-30.117443,-0.4020033,2.331493,-0.84084284,33.632957,49.605812,-0.73208356,-13.723447,-3.472914,-7.6923,-9.947427,-16.081962,-37.803484
690,541222097,-66.36257,-10.499794,-28.625134,-0.31548977,2.3782332,-0.8212093,33.52897,48.251167,0.03613496,-13.728705,-3.433277,-7.705987,-9.388611,-15.277776,-37.802882
691,541238764,-64.14182,-11.260872,-26.972477,-0.2489233,2.4103837,-0.84757316,31.870996,46.305767,0.94198704,-13.732854,-3.393104,-7.720113,-8.857428,-14.506013,-37.787182
692,541255431,-61.6979,-11.964745,-24.805767,-0.16600513,2.4485333,-0.8420204,30.931551,43.065716,2.1688664,-13.735621,-3.352295,-7.734147,-8.341902,-13.788251,-37.751034
693,541272098,-59.07299,-12.655731,-22.185276,-0.07729244,2.4867904,-0.82583463,30.01325,38.590458,3.7217872,-13.736909,-3.310848,-7.747911,-7.841681,-13.145077,-37.689004
694,541288765,-55.990517,-13.287521,-24.652172,-0.03085041,2.5356023,-0.82062566,28.745092,35.72856,4.3939667,-13.737423,-3.268588,-7.761588,-7.362596,-12.549601,-37.615771
695,541305432,-52.40052,-13.836227,-32.712536,-0.027531624,2.5983453,-0.8191534,27.327307,34.613228,4.112871,-13.737882,-3.225282,-7.775241,-6.907141,-11.972714,-37.547223
696,541322099,-48.45896,-14.354073,-43.798077,-0.052113533,2.6658263,-0.8257381,25.449942,33.896976,3.4632103,-13.738751,-3.180852,-7.789003,-6.482975,-11.407764,-37.489503
697,541338766,-44.077675,-14.8218155,-59.491405,-0.117492676,2.741686,-0.8437413,23.059046,34.31951,2.1252453,-13.740709,-3.135157,-7.803065,-6.098658,-10.835772,-37.454082
698,541355433,-39.369026,-15.226265,-76.50586,-0.18649006,2.8244152,-0.8408669,20.995481,34.02362,0.834934,-13.743817,-3.088083,-7.817079,-5.748733,-10.268712,-37.440166
699,541372100,-34.335762,-15.568649,-94.70804,-0.25839806,2.913509,-0.8165871,19.237223,32.86785,-0.35351467,-13.748124,-3.039525,-7.830689,-5.428113,-9.720914,-37.446058
700,541388767,-28.837471,-15.836113,-117.17253,-0.36332512,3.013165,-0.7890829,17.32366,32.399334,-2.0800953,-13.754179,-2.989306,-7.84384,-5.139385,-9.180925,-37.480726
701,541405434,-22.888718,-16.023438,-143.2898,-0.4941244,3.1232712,-0.7510129,15.4283905,32.20927,-4.1878653,-13.762414,-2.937251,-7.856357,-4.882245,-8.644104,-37.550524
702,541422101,-17.107292,-16.225426,-149.93797,-0.6197872,3.123492,-0.740054,11.707132,31.45638,-5.4144044,-13.772744,-2.885193,-7.868691,-4.687126,-8.119831,-37.640764
703,541438768,-11.525803,-16.445312,-135.2464,-0.7414694,3.0025322,-0.76097643,5.938736,30.248762,-5.717437,-13.785102,-2.835151,-7.881374,-4.588147,-7.615685,-37.736055
