PacketCounter,SampleTimeFine,Euler_X,Euler_Y,Euler_Z,Acc_X,Acc_Y,Acc_Z,Gyr_X,Gyr_Y,Gyr_Z
0,3558240490,173.5271301,-66.77523041,137.3610687,0,0,0,0,0,0
1,3558257157,173.5861816,-66.81697083,137.2997284,9.105172157,0.420234829,-3.892822981,3.440777779,0.831714809,0.382263124
2,3558273824,173.6906738,-66.82061005,137.1613159,9.086853981,0.434231728,-3.847279072,2.718704939,0.675963998,0.261845052
3,3558290491,173.7483521,-66.85414124,137.0778351,9.095371246,0.417476863,-3.904411793,2.752475023,1.312734008,0.23281306
4,3558307158,173.8228912,-66.86540222,136.9826813,9.059391975,0.423877597,-3.841636896,2.634400845,1.446022749,0.438162893
5,3558323825,173.8875275,-66.86590576,136.969986,9.050187111,0.41358757,-3.794087172,2.761849642,0.220582992,0.411167085
6,3558340492,173.958725,-66.86575317,136.8857727,9.110525131,0.433304518,-3.896839619,2.71455574,-0.758084655,0.65345037
7,3558357159,174.0132599,-66.89006805,136.7975006,9.08535862,0.438467085,-3.913872004,2.747596025,1.359759092,0.649467647
8,3558373826,174.0582123,-66.89637756,136.7151184,9.052688599,0.409528285,-3.878269434,2.530951023,0.833520412,0.602954924
9,3558390493,174.1018524,-66.90288544,136.6290436,9.037304878,0.407009244,-3.859685421,2.328623295,0.922729433,0.541727781
10,3558407160,174.1422577,-66.91581726,136.5781555,9.086951256,0.384296596,-3.832213163,2.375763416,1.276159048,0.409041196
11,3558423827,174.1870422,-66.934021,136.5087738,9.060049057,0.367793411,-3.83082366,2.343837261,1.321250319,0.404661417
12,3558440494,174.236145,-66.93771362,136.4720917,9.087863922,0.401785135,-3.887692213,2.197998762,0.332536101,0.331780493
13,3558457161,174.2896881,-66.94857788,136.412262,9.111498833,0.405442655,-3.908461332,2.531975508,0.847274542,0.388422966
14,3558473828,174.3419952,-66.96072388,136.3486481,9.064965248,0.414619148,-3.878153801,2.347570181,1.002980471,0.491289973
15,3558490495,174.4053955,-66.95938873,136.2718353,9.049143791,0.421663284,-3.848725557,2.763763905,0.211381629,0.587158322
16,3558507162,174.4619598,-66.95963287,136.2179108,9.055880547,0.408004403,-3.850082636,2.816507101,0.292554647,0.477708817
17,3558523829,174.5098419,-66.96177673,136.1535645,9.044232368,0.388076663,-3.818235874,2.419126034,0.378190756,0.464070112
18,3558540496,174.5535583,-66.9682312,136.1009979,9.066819191,0.392276883,-3.814493895,2.221869707,0.566853881,0.450815529
19,3558557163,174.594574,-66.98323059,136.0506134,9.079003334,0.406126559,-3.859527349,2.32917428,1.017803907,0.382788211
20,3558573830,174.6361237,-67.00030518,136.0076141,9.094053268,0.422556162,-3.856298447,2.550762415,1.151527762,0.334636331
21,3558590497,174.6799622,-67.01272583,135.9661255,9.107087135,0.412318587,-3.860299587,2.784856081,0.866528928,0.305636346
22,3558607164,174.7187347,-67.03149414,135.9388123,9.097286224,0.402195662,-3.846697807,2.541093349,1.244168758,0.333650231
23,3558623831,174.7515106,-67.04072571,135.8905334,9.052520752,0.401029676,-3.825512171,2.171489477,0.66155684,0.288059622
24,3558640498,174.7862701,-67.04969788,135.843811,9.044078827,0.408173293,-3.822592497,2.382205248,0.639555573,0.251151741
25,3558657165,174.8226624,-67.05586243,135.821106,9.049386024,0.398868382,-3.831277847,2.521365166,0.466176748,0.22867018
26,3558673832,174.8506927,-67.06218719,135.7193298,9.06358242,0.395157725,-3.823883295,2.462104082,0.491411686,0.043829735
27,3558690499,174.8815308,-67.06665802,135.7458649,9.078913689,0.422032446,-3.836373091,2.400992155,0.362080306,0.126968563
28,3558707166,174.9117126,-67.0710144,135.6580963,9.104235649,0.410701007,-3.865555048,2.21468544,0.347686023,0.204459801
29,3558723833,174.9373627,-67.0729599,135.6227112,9.090672493,0.394659758,-3.849313974,2.352712154,0.224117503,0.025106849
30,3558740500,174.966568,-67.07201385,135.5995941,9.063222885,0.386830091,-3.829139233,2.269317389,0.044316374,0.129414573
31,3558757167,174.9947968,-67.06488037,135.5500031,9.040097237,0.375332624,-3.8205266,2.02839756,-0.340117425,0.162781492
32,3558773834,175.0229034,-67.04936218,135.5131836,9.047739029,0.377473414,-3.818600416,1.978465915,-0.843746424,0.125361353
33,3558790501,175.0448608,-67.03109741,135.4905548,9.065054893,0.373448074,-3.843302011,2.053402185,-0.996538997,-0.086430058
34,3558807168,175.0612946,-67.00882721,135.4837494,9.066596985,0.350460351,-3.853921175,2.092884064,-1.221162319,-0.276066482
35,3558823835,175.0798187,-66.98435211,135.4788208,9.061504364,0.372512847,-3.860139132,2.237864733,-1.352248073,-0.314946532
36,3558840502,175.1004028,-66.95872498,135.440979,9.090156555,0.356743276,-3.87258172,2.560149431,-1.410683513,-0.414208591
37,3558857169,175.1216125,-66.93177795,135.4610443,9.091238022,0.370126754,-3.859595537,2.597794056,-1.48971796,-0.434333801
38,3558873836,175.1390533,-66.90357208,135.474884,9.091263771,0.380658746,-3.853352785,2.455995083,-1.563962698,-0.483554929
39,3558890503,175.1489563,-66.8733139,135.4593964,9.079288483,0.392537236,-3.849243879,2.283948183,-1.683682561,-0.61573571
40,3558907170,175.1590424,-66.84390259,135.4709625,9.099222183,0.392917275,-3.837542057,2.209345102,-1.646883965,-0.573750079
41,3558923837,175.1695251,-66.81684875,135.4667053,9.095612526,0.370984972,-3.840149641,2.204574823,-1.523533106,-0.548598468
42,3558940504,175.1820526,-66.79468536,135.4669342,9.095938683,0.366691709,-3.887872934,2.108891964,-1.24869597,-0.43573603
43,3558957171,175.1956024,-66.77577209,135.463562,9.06981945,0.392689228,-3.896016598,2.278832197,-1.054397941,-0.473924577
44,3558973838,175.210022,-66.75365448,135.4344635,9.036397934,0.366942436,-3.865400791,2.614851475,-1.234852195,-0.610952556
45,3558990505,175.2208862,-66.72041321,135.4631042,9.06758213,0.367849857,-3.888970375,2.521666288,-1.89484024,-0.722175598
46,3559007172,175.2187042,-66.68984985,135.474884,9.070889473,0.360670358,-3.873707771,2.203018904,-1.719956756,-0.914591074
47,3559023839,175.2208252,-66.66140747,135.4922333,9.052456856,0.367934138,-3.848344564,2.325255394,-1.600934625,-0.853504777
48,3559040506,175.2312317,-66.63289642,135.48703,9.054204941,0.35956195,-3.864504337,2.351534128,-1.63519156,-0.656184614
49,3559057173,175.2306519,-66.6014328,135.5155487,9.059403419,0.387688875,-3.912660837,2.002208948,-1.803383827,-0.810405076
50,3559073840,175.2338867,-66.58001709,135.5585327,9.086064339,0.408328384,-3.943988323,2.310662508,-1.199897289,-0.795395851
51,3559090507,175.2493439,-66.5688858,135.5500336,9.0391922,0.427999884,-3.93274951,2.836440086,-0.589879692,-0.648980975
52,3559107174,175.2657471,-66.550354,135.5113525,9.033572197,0.436276674,-3.941146851,2.370948553,-1.043486953,-0.452179402
53,3559123841,175.2789307,-66.52796173,135.5639343,9.018507957,0.403747141,-3.944921732,2.651074648,-1.255880356,-0.666455269
54,3559140508,175.2938385,-66.50616455,135.5736084,9.051903725,0.404973716,-3.906553507,2.653642178,-1.213901162,-0.61645925
55,3559157175,175.3002167,-66.49171448,135.574707,9.050662994,0.394077837,-3.923716545,2.264181852,-0.774015784,-0.63127619
56,3559173842,175.3210449,-66.4871521,135.5776367,9.056419373,0.392550319,-3.927202702,2.698944569,-0.200995654,-0.395293623
57,3559190509,175.3458405,-66.49046326,135.5794373,9.080151558,0.413553536,-3.941347837,2.921909809,0.268113732,-0.34885779
58,3559207176,175.3713989,-66.4965744,135.569458,9.062200546,0.399507463,-3.950264931,2.749075174,0.428679794,-0.236405224
59,3559223843,175.3940735,-66.49977875,135.5809479,9.066198349,0.380500734,-3.95541048,2.927634239,0.266935557,-0.401242197
60,3559240510,175.4166565,-66.50339508,135.5833588,9.042728424,0.388013303,-3.937937975,2.586825132,0.284794033,-0.254372537
61,3559257177,175.4368286,-66.50844574,135.5693359,9.035637856,0.393541992,-3.970699787,2.40566659,0.369648874,-0.233075589
62,3559273844,175.4571838,-66.50814819,135.54245,9.033145905,0.398221552,-3.95879674,2.29928422,0.050501846,-0.204338118
63,3559290511,175.477356,-66.51229095,135.5453949,9.078255653,0.373986304,-3.943911552,2.367183447,0.325735927,-0.215722978
64,3559307178,175.4839325,-66.51727295,135.5510864,9.06484127,0.377220541,-3.956273079,2.107797146,0.395460099,-0.453146279
65,3559323845,175.4927826,-66.52574158,135.5525208,9.066200256,0.409210891,-3.967817783,2.066817045,0.596033156,-0.361119866
66,3559340512,175.5030518,-66.53643799,135.5534363,9.042237282,0.415240556,-3.977496624,2.145454168,0.733438849,-0.342377782
67,3559357179,175.5209656,-66.5487442,135.5458984,9.039525032,0.371560752,-3.950772524,2.203018665,0.822455764,-0.156045377
68,3559373846,175.5352936,-66.56369019,135.5598145,9.016763687,0.371653289,-3.942261934,2.115961313,0.987747371,-0.199394882
69,3559390513,175.5572357,-66.58562469,135.5522156,9.034540176,0.370138913,-3.928571463,2.369130135,1.400880337,-0.079604283
70,3559407180,175.5782623,-66.61689758,135.5576782,9.036504745,0.395930946,-3.941218615,2.622036219,1.971076727,-0.168800503
71,3559423847,175.5996246,-66.654953,135.551239,9.038024902,0.401186913,-3.943578959,2.592274189,2.380789995,-0.112939209
72,3559440514,175.6255341,-66.69343567,135.5340881,9.02780056,0.427174389,-3.96686101,2.492282152,2.392418385,0.052352361
73,3559457181,175.6477509,-66.72789764,135.5095978,9.020579338,0.408981085,-3.98660183,2.134998083,2.155667543,0.101118952
74,3559473848,175.6826324,-66.76207733,135.5021973,9.026621819,0.420705557,-3.97952199,2.609677792,2.139672041,0.225686282
75,3559490515,175.7134094,-66.79250336,135.4763794,9.032801628,0.422125489,-4.00024271,2.357335329,1.921176672,0.217432618
76,3559507182,175.7403259,-66.81687927,135.4744568,9.028282166,0.415600657,-3.95922327,2.431592941,1.58250618,0.065325186
77,3559523849,175.7640686,-66.84105682,135.4752808,9.032743454,0.416885287,-3.949328184,1.923065662,1.566472888,0.20686096
78,3559540516,175.7860413,-66.86235046,135.4636536,9.035359383,0.410762101,-3.924281597,1.981539488,1.407725215,0.130253389
79,3559557183,175.8115082,-66.88629913,135.4443054,9.026238441,0.412475318,-3.953877449,2.16099453,1.565268874,0.1589268
80,3559573850,175.835022,-66.90945435,135.4389038,9.035429001,0.385836005,-3.966143847,1.888667703,1.522034645,0.229259282
81,3559590517,175.8591766,-66.93333435,135.4302673,9.031627655,0.416535497,-3.955204725,1.931299806,1.57133913,0.23203826
82,3559607184,175.8849945,-66.95412445,135.4178772,9.005842209,0.429020077,-3.920241833,1.836071849,1.392319083,0.3075445
83,3559623851,175.9069672,-66.96818542,135.4064331,9.025679588,0.418840647,-3.952705383,1.872723937,0.996410966,0.173397973
84,3559640518,175.9191742,-66.98434448,135.3958588,9.027583122,0.415791094,-3.91808629,1.425084114,1.138490915,0.131732509
85,3559657185,175.9455872,-67.0010376,135.3723755,9.029133797,0.405068487,-3.926411629,1.983101726,1.162342668,0.263977289
86,3559673852,175.9614868,-67.01869965,135.3595734,9.049087524,0.400121808,-3.962688208,1.609527588,1.236325026,0.165393993
87,3559690519,175.9649658,-67.02938843,135.3646393,9.022986412,0.455940694,-4.010944366,1.130429387,0.832643211,0.028468519
88,3559707186,175.9749603,-67.03948975,135.3471985,9.015713692,0.45247826,-3.990281105,1.459123611,0.807587683,0.06403815
89,3559723853,175.9915619,-67.04440308,135.3230896,8.997303963,0.460306972,-3.989461899,1.476712942,0.498973757,0.212252423
90,3559740520,176.0021362,-67.04222107,135.3077087,9.000199318,0.468041182,-3.968437195,1.227783203,0.085994646,0.145467326
91,3559757187,176.0241547,-67.03896332,135.2890625,9.00369072,0.451559305,-3.931795359,2.048842907,0.036235563,0.09604121
92,3559773854,176.0296478,-67.03125,135.2805786,9.022467613,0.415574342,-3.886915445,1.041105032,-0.223957449,0.094702959
93,3559790521,176.0336151,-67.02292633,135.2732086,9.033575058,0.429674149,-3.916479826,0.738990426,-0.26532194,0.187536165
94,3559807188,176.039444,-67.02102661,135.2695007,9.044528961,0.416109502,-3.937450409,1.131223202,0.1281019,0.102630086
95,3559823855,176.0465088,-67.0165863,135.2599792,9.034628868,0.434315324,-3.952619791,0.95949018,-0.023653327,0.203620955
96,3559840522,176.0520172,-67.01298523,135.2542725,9.063055038,0.441090047,-3.955748081,1.141929388,0.039392333,0.098954678
97,3559857189,176.0525208,-67.01161957,135.2525482,9.054953575,0.425219327,-3.94915843,0.996129096,0.182131901,0.050328955
98,3559873856,176.0522461,-67.00887299,135.2550201,9.035637856,0.41600284,-3.92014575,1.190875173,0.112490974,-0.049182784
99,3559890523,176.0458679,-66.99975586,135.2696075,9.029018402,0.420661181,-3.904354811,1.170225024,-0.256242275,-0.215979114
100,3559907190,176.041214,-66.98552704,135.282608,9.006933212,0.409205914,-3.955504417,1.571819425,-0.550314486,-0.357309997
101,3559923857,176.0309143,-66.97150421,135.2990875,9.047371864,0.423419029,-3.95332408,1.42201066,-0.524112642,-0.431714892
102,3559940524,176.0206909,-66.96546173,135.3093719,9.046879768,0.438283414,-3.931266069,1.370036125,-0.044706959,-0.367516607
103,3559957191,176.0023041,-66.96523285,135.3336639,9.044961929,0.464139819,-3.908087254,1.013276696,0.310259402,-0.392181635
104,3559973858,175.9992981,-66.96131897,135.3515625,9.045347214,0.437823117,-3.934485197,1.62141192,0.081935026,-0.263362586
105,3559990525,175.9931183,-66.95908356,135.3652649,9.024692535,0.401480019,-3.966014147,1.507429123,0.187043145,-0.282111108
106,3560007192,175.9929962,-66.95605469,135.3773041,9.04477787,0.417726219,-3.93930459,1.589863539,0.139518782,-0.16127038
107,3560023859,175.9812164,-66.96289063,135.4013367,9.051782608,0.414513499,-3.957436085,1.50016129,0.750567317,-0.372876078
108,3560040526,175.9740143,-66.97118378,135.4180603,9.001217842,0.443276703,-3.936858177,1.834778428,0.843771935,-0.386284292
109,3560057193,175.9690247,-66.97136688,135.4383698,9.022188187,0.42797935,-3.953598976,1.874388337,0.363713086,-0.372696728
110,3560073860,175.968399,-66.97109985,135.4533234,9.038163185,0.438934386,-3.960064173,1.835354447,0.332235068,-0.240522414
111,3560090527,175.9702759,-66.97576141,135.469162,9.036611557,0.440058351,-3.936396122,2.013901234,0.631455481,-0.224130332
112,3560107194,175.9739838,-66.9853363,135.4879761,9.043219566,0.454609364,-3.960404158,2.35930109,0.937514544,-0.295948327
113,3560123861,175.9777527,-66.99661255,135.4893494,9.045145988,0.441387057,-3.950025558,2.421603918,1.045523167,-0.304490149
114,3560140528,175.9837952,-67.00818634,135.5068512,9.023425102,0.433279335,-3.940820932,2.331767321,1.061595082,-0.198850602
115,3560157195,175.990921,-67.01421356,135.5280304,9.021671295,0.455457211,-3.945225477,2.212841272,0.728329122,-0.137130409
116,3560173862,175.9963531,-67.01779938,135.5603027,9.009531975,0.46460247,-3.94016099,2.240342855,0.590078175,-0.194227502
117,3560190529,176.0006256,-67.02348328,135.5789032,9.011249542,0.453945756,-3.942633867,2.414534807,0.729795456,-0.278173119
118,3560207196,176.0076599,-67.03297424,135.5982513,9.031403542,0.437903076,-3.945165634,2.588970184,0.96039933,-0.257298768
119,3560223863,176.0149536,-67.04486084,135.6147308,9.030858994,0.443906039,-3.952513218,2.402996063,1.106878519,-0.154732719
120,3560240530,176.0231018,-67.05448151,135.6326752,9.021056175,0.454948902,-3.954952002,2.204113722,0.967135608,-0.051154967
121,3560257197,176.0342407,-67.06044769,135.6478271,9.038331032,0.4604159,-3.931282997,2.402106047,0.756810427,-0.064902581
122,3560273864,176.0379028,-67.06492615,135.6802368,9.031319618,0.426160306,-3.962192059,2.413906813,0.683718085,-0.256376684
123,3560290531,176.0522461,-67.0679245,135.7132721,9.014162064,0.425019026,-3.92078042,2.967526197,0.594675779,-0.219456047
124,3560307198,176.0591278,-67.07635498,135.7301483,9.027201653,0.421276748,-3.946477652,2.484662533,0.930611789,-0.175696731
125,3560323865,176.0562897,-67.07902527,135.7495728,9.035534859,0.442435831,-3.964923143,1.982512593,0.590884984,-0.227267876
126,3560340532,176.0570374,-67.08380127,135.7715759,9.056886673,0.452885121,-4.00366354,2.177489281,0.720062673,-0.202654079
127,3560357199,176.0652008,-67.0872879,135.7966614,9.029118538,0.452504843,-3.989804745,2.215114355,0.641943872,-0.027776973
128,3560373866,176.0817566,-67.08924103,135.812973,9.02374649,0.471494585,-3.951008797,2.134171724,0.540498435,0.220352471
129,3560390533,176.0881958,-67.08956909,135.8354034,8.998459816,0.454187512,-3.925167322,2.107067347,0.464025289,-0.021111269
130,3560407200,176.1026154,-67.09355927,135.8321838,9.034098625,0.430633634,-3.929944277,2.453350782,0.686766028,0.058691498
131,3560423867,176.1171265,-67.10312653,135.8385925,9.033963203,0.413355112,-3.914980412,2.229124546,1.019154787,0.184360221
132,3560440534,176.1364899,-67.11516571,135.8359833,9.023111343,0.43293792,-3.966796875,2.36631918,1.16298306,0.264463931
133,3560457201,176.1611023,-67.12631989,135.834549,9.030070305,0.447650999,-3.974780083,2.617233753,1.115330577,0.295237601
134,3560473868,176.1829224,-67.13454437,135.855072,9.045845032,0.446211278,-3.969731331,2.551306725,0.949219465,0.249454901
135,3560490535,176.2111053,-67.13998413,135.8695831,9.050063133,0.439792156,-3.995962381,3.014461517,0.791278839,0.211151108
136,3560507202,176.2431488,-67.14637756,135.8872223,9.032134056,0.434782922,-3.951191187,3.216160774,0.853978574,0.233600616
137,3560523869,176.2786255,-67.14561462,135.9082947,9.013391495,0.436663687,-3.932385445,3.406194687,0.435966611,0.22073026
138,3560540536,176.3130798,-67.14319611,135.8855438,9.00478363,0.422665924,-3.935663462,3.631189346,0.34543851,0.100901239
139,3560557203,176.3466949,-67.13857269,135.9164124,9.036266327,0.409938812,-3.93413949,3.475156546,0.217618287,0.143328667
140,3560573870,176.3826904,-67.14689636,135.931488,9.045404434,0.419765234,-3.9489007,3.47218585,0.995104671,0.260122567
141,3560590537,176.412262,-67.15161133,135.9410095,9.045162201,0.441397578,-3.921757936,2.685145855,0.770660579,0.421444148
142,3560607204,176.4444427,-67.15912628,135.9446259,9.066650391,0.437812895,-3.944517612,2.502539873,0.932404697,0.58312434
143,3560623871,176.476059,-67.16998291,135.9489136,9.05507946,0.443557113,-3.940462589,2.320504189,1.133112192,0.664963245
144,3560640538,176.5149231,-67.18378448,135.9523163,9.0305233,0.423162609,-3.908852577,2.733816385,1.311082125,0.693355024
145,3560657205,176.5509186,-67.19551849,135.951004,9.036329269,0.405414909,-3.945074797,2.571470261,1.196734071,0.688514173
146,3560673872,176.5884094,-67.20935822,135.947525,9.055476189,0.415676206,-3.957039356,2.482997656,1.319130898,0.776244104
147,3560690539,176.6237183,-67.22949982,135.9413452,9.046503067,0.415557384,-3.959368944,2.037708044,1.696213961,0.937130332
148,3560707206,176.6576385,-67.24695587,135.9370422,9.038942337,0.418288887,-3.937041759,1.923609734,1.542415977,0.946959078
149,3560723873,176.6888275,-67.26049042,135.9346619,9.049875259,0.396120042,-3.933402538,2.080801249,1.319579005,0.805071175
150,3560740540,176.7191315,-67.2846756,135.9213867,9.05024147,0.401106685,-3.947040796,2.088280439,1.959666252,0.82096386
151,3560757207,176.7442017,-67.30360413,135.923996,9.037880898,0.424894035,-3.944523811,1.870380044,1.657679558,0.769994617
152,3560773874,176.7658539,-67.32112122,135.9319153,9.052652359,0.387214452,-3.948144436,1.820102692,1.579906583,0.707781374
153,3560790541,176.7911224,-67.34236145,135.9312134,9.038560867,0.381459236,-3.914535284,1.916483283,1.808128476,0.775168359
154,3560807208,176.8111267,-67.36515808,135.9342804,9.038787842,0.393065065,-3.944519997,1.717562199,1.907313704,0.736966968
155,3560823875,176.8273315,-67.38543701,135.9393005,9.04317379,0.420052618,-3.906868696,1.695419788,1.767417073,0.648654401
156,3560840542,176.8499298,-67.40028381,135.9344635,9.020553589,0.397721708,-3.913482904,1.532817602,1.433927059,0.864300609
157,3560857209,176.8643341,-67.41750336,135.9373932,9.05264473,0.390322953,-3.92093277,1.227552772,1.587014198,0.802253783
158,3560873876,176.8755646,-67.43849182,135.940094,9.044061661,0.403265983,-3.924649,1.178261161,1.818104863,0.761849761
159,3560890543,176.8954468,-67.44968414,135.9329834,9.028053284,0.406805128,-3.940339088,1.181949258,1.22458148,0.949449897
160,3560907210,176.9189758,-67.45993042,135.9301147,9.04541111,0.418291241,-3.995001793,1.530486941,1.180399656,0.899082661
161,3560923877,176.9316711,-67.47193909,135.9349213,9.038975716,0.388087898,-3.92762804,1.542780995,1.30953896,0.638025165
162,3560940544,176.9306335,-67.47819519,135.9536285,9.025374413,0.392378241,-3.827077866,1.105943441,0.979532182,0.465549231
163,3560957211,176.9282684,-67.48342133,135.9582367,9.010825157,0.379326731,-3.870434046,0.863711536,0.913861156,0.535074949
164,3560973878,176.9263916,-67.48348999,135.9622498,9.035083771,0.402311444,-3.87392354,0.56613028,0.600886762,0.659629464
165,3560990545,176.9135742,-67.48254395,135.9699097,9.077583313,0.397377431,-3.952957153,0.151883304,0.549827754,0.562928617
166,3561007212,176.909317,-67.49371338,135.9811249,9.075255394,0.388077319,-3.905902386,0.838310003,1.284086347,0.536566854
167,3561023879,176.9163208,-67.49826813,135.9817657,9.048309326,0.404132336,-3.91541791,0.709574223,0.875134766,0.852979779
168,3561040546,176.9185333,-67.49926758,135.9892731,9.031414032,0.404441595,-3.891082525,0.932635248,0.678480327,0.637179911
169,3561057213,176.9210052,-67.50141144,136.0099792,9.026132584,0.363598734,-3.862125397,1.259376407,0.754306853,0.519066989
170,3561073880,176.9210815,-67.49991608,136.0196075,9.039240837,0.399386555,-3.835838318,0.630072355,0.529772997,0.711866498
171,3561090547,176.9143524,-67.49187469,136.0139313,9.066436768,0.369325668,-3.889529467,-0.050188079,0.136112273,0.807984531
172,3561107214,176.9104919,-67.49373627,136.0108032,9.075539589,0.390717685,-3.887762547,0.260327458,0.729308784,0.787590444
173,3561123881,176.903244,-67.49824524,136.0284424,9.0822258,0.374273568,-3.899857044,0.628983974,0.907573223,0.564452767
174,3561140548,176.8972778,-67.50121307,136.0416107,9.085474968,0.372272313,-3.879277945,0.904832721,0.820195496,0.480801612
175,3561157215,176.8916321,-67.50297546,136.0537872,9.079452515,0.394902289,-3.884701014,0.860766053,0.749542892,0.50782305
176,3561173882,176.8870697,-67.5014801,136.0694885,9.05657196,0.380076796,-3.853677511,0.864851177,0.55685854,0.52727586
177,3561190549,176.8818665,-67.49604034,136.0851898,9.029643059,0.402394712,-3.849622726,1.130262971,0.326267391,0.392232865
178,3561207216,176.8660889,-67.48623657,136.1059113,9.074672699,0.367240727,-3.920820713,0.724480748,0.072432704,0.288936853
179,3561223883,176.8496552,-67.48100281,136.1355133,9.063606262,0.362858325,-3.87057519,1.034112692,0.357617319,0.162666261
180,3561240550,176.8359222,-67.47543335,136.1652527,9.064042091,0.387371391,-3.864291906,0.928293824,0.334527493,0.274965107
181,3561257217,176.8220825,-67.46796417,136.1950073,9.069516182,0.387924105,-3.850942135,0.98332268,0.220294818,0.24581787
182,3561273884,176.8090363,-67.45995331,136.2199707,9.063514709,0.382855564,-3.858659744,1.184356809,0.194963887,0.185077369
183,3561290551,176.7940521,-67.45137787,136.2474518,9.061162949,0.375590801,-3.865134954,1.077577353,0.160681263,0.182234347
184,3561307218,176.7815247,-67.44020081,136.2797699,9.041583061,0.352646977,-3.853059053,1.361980915,0.010091403,0.11884293
185,3561323885,176.7659912,-67.42610168,136.3137207,9.03858757,0.363007754,-3.843720913,1.327864885,-0.160239458,0.049803894
186,3561340552,176.7513428,-67.41225433,136.3475494,9.048195839,0.378542989,-3.863413811,1.382906437,-0.148880213,0.050738759
187,3561357219,176.7318878,-67.39652252,136.3857727,9.067604065,0.370446324,-3.846254826,1.278598785,-0.249115542,-0.030472713
188,3561373886,176.7108002,-67.38232422,136.4256744,9.088191032,0.370005339,-3.871324062,1.432940841,-0.155731604,-0.128031477
189,3561390553,176.6972656,-67.37269592,136.4614716,9.081477165,0.378568679,-3.894184828,1.597874045,0.111632958,0.008631481
190,3561407220,176.6825562,-67.36180878,136.497818,9.043061256,0.389789671,-3.857009172,1.784692764,0.044860639,-0.101688817
191,3561423887,176.6707764,-67.3482132,136.5373688,9.044158936,0.401898921,-3.863498688,2.059030294,-0.114738479,-0.148905829
192,3561440554,176.6543884,-67.33055115,136.5797272,9.041363716,0.409586787,-3.837878942,1.954312921,-0.351489455,-0.232902676
193,3561457221,176.63591,-67.31152344,136.6260986,9.063410759,0.402501285,-3.894157887,1.913524747,-0.433911115,-0.269797772
194,3561473888,176.6136932,-67.29369354,136.6811981,9.078420639,0.392729402,-3.895030499,1.816721439,-0.358289629,-0.316476911
195,3561490555,176.5903015,-67.28173828,136.7309418,9.072581291,0.387725711,-3.890658855,1.778366685,-0.004635899,-0.308633029
196,3561507222,176.5726318,-67.26676941,136.7807465,9.059743881,0.366118282,-3.89923358,2.096386671,-0.183739111,-0.307166725
197,3561523889,176.5553436,-67.25119781,136.8251343,9.055537224,0.39381668,-3.918242931,2.163107872,-0.216356888,-0.328194737
198,3561540556,176.5398254,-67.23245239,136.8682556,9.024561882,0.408187777,-3.902615786,2.127429247,-0.40879792,-0.27962029
199,3561557223,176.5150452,-67.21040344,136.9184113,9.059020042,0.403263748,-3.915825367,1.928674459,-0.593286097,-0.438892812
200,3561573890,176.487793,-67.19532013,136.9723358,9.062290192,0.395566344,-3.88760829,1.923820972,-0.171624303,-0.473751694
201,3561590557,176.4621887,-67.1767807,137.0255737,9.048766136,0.407679617,-3.872877121,1.633833885,-0.390804976,-0.320818245
202,3561607224,176.4194641,-67.15200806,137.0804901,9.069187164,0.407176554,-3.942980528,0.974960208,-0.751867294,-0.499185115
203,3561623891,176.377243,-67.13217926,137.131897,9.055727005,0.424818218,-4.023090363,0.877952099,-0.458172768,-0.426016062
204,3561640558,176.3446655,-67.12175751,137.1839447,9.011289597,0.434329093,-3.976055861,1.35966301,0.111761019,-0.348889768
205,3561657225,176.3276978,-67.10541534,137.2200165,9.002938271,0.457484573,-3.973145008,1.631298423,-0.259322196,-0.089868553
206,3561673892,176.3078613,-67.08285522,137.2633972,9.017810822,0.431325436,-3.934104681,1.645615935,-0.617541432,-0.187939614
207,3561690559,176.2902832,-67.05880737,137.3130493,9.012957573,0.391594201,-3.925000668,2.060861826,-0.702357888,-0.309702367
208,3561707226,176.2637177,-67.03512573,137.3623047,9.043382645,0.362019032,-3.937681198,1.485946417,-0.677872181,-0.295487314
209,3561723893,176.2407227,-67.01903534,137.3940887,9.045758247,0.380644411,-3.943248272,1.572286844,-0.223938242,-0.214576811
210,3561740560,176.2258148,-67.00854492,137.4360504,9.027853012,0.401132494,-3.923649788,2.078022242,0.112350106,-0.201757625
211,3561757227,176.2124481,-67.00137329,137.4854279,9.055234909,0.410042405,-3.946158886,2.36026144,0.320273966,-0.268529952
212,3561773894,176.2014771,-66.99915314,137.5352173,9.068022728,0.398444623,-3.96222353,2.411973476,0.61293757,-0.20881395
213,3561790561,176.187912,-66.99964905,137.5720978,9.041595459,0.393377215,-3.969210148,2.18192029,0.771326423,-0.166591406
214,3561807228,176.1785278,-67.00106049,137.6145477,9.004620552,0.4099316,-3.989225388,2.545684576,0.834244013,-0.211042255
215,3561823895,176.1664276,-66.99549103,137.6638947,9.016097069,0.403031111,-3.979594231,2.555968046,0.424696892,-0.310739636
216,3561840562,176.1416626,-66.99435425,137.7241974,9.031288147,0.403750211,-4.008737564,2.103058815,0.700366557,-0.421988457
217,3561857229,176.1152802,-66.99653625,137.7830048,9.010762215,0.412464082,-3.958883762,2.084118366,0.907752514,-0.4420304
218,3561873896,176.0840912,-66.9858551,137.8273163,9.008095741,0.457011789,-4.00528717,1.491747618,0.131201059,-0.364820868
219,3561890563,176.0508118,-66.97431946,137.8737335,8.999326706,0.477326572,-4.015526772,1.299114466,0.082460083,-0.337159157
220,3561907230,176.0272217,-66.96038055,137.9204254,8.974048615,0.461265385,-4.03202486,1.501314044,-0.068225823,-0.183482975
221,3561923897,176.0092926,-66.9411087,137.9709167,8.968361855,0.445706069,-4.001424789,1.762550592,-0.384056032,-0.169447199
222,3561940564,175.9868774,-66.91790009,138.0038605,8.98000145,0.407964617,-4.059244633,1.312036276,-0.621626616,-0.109884895
223,3561957231,175.9575806,-66.88004303,138.0267944,8.961871147,0.383006245,-4.078434467,0.819568038,-1.491613269,-0.138583928
224,3561973898,175.919342,-66.83734131,138.0575562,8.971315384,0.367079169,-4.095911026,0.103757054,-1.780153155,-0.087115198
225,3561990565,175.8786926,-66.79795074,138.0802307,8.979422569,0.364486724,-4.185172558,-0.104134843,-1.574483037,-0.050578684
226,3562007232,175.812149,-66.77333069,138.1413727,8.971597672,0.399345368,-4.290298462,-0.885142982,-0.661800086,-0.322713614
227,3562023899,175.730011,-66.73093414,138.1976624,8.845258713,0.391705394,-4.24023962,-1.154255509,-1.681684852,-0.691715777
228,3562040566,175.6470795,-66.66003418,138.2391663,8.830101967,0.35337624,-4.362407207,-1.101378202,-3.368319988,-0.872323811
229,3562057233,175.5645905,-66.59076691,138.3310089,8.846611977,0.272106409,-4.534204006,-0.042805225,-3.216679335,-1.322441339
230,3562073900,175.4675903,-66.53529358,138.4315338,8.825583458,0.2484366,-4.547306538,0.605996549,-2.310195208,-1.936531544
231,3562090567,175.3554993,-66.48153687,138.5500488,8.823506355,0.320045292,-4.472178936,0.218642831,-2.155968189,-2.173321009
232,3562107234,175.2150116,-66.38878632,138.6736603,8.724265099,0.373836786,-4.417589188,-1.103504062,-4.446012974,-2.554553509
233,3562123901,175.0634613,-66.29412079,138.8126068,8.745700836,0.405672342,-4.473655224,-0.930848837,-4.499287128,-2.959233999
234,3562140568,174.9153748,-66.212883,138.9664307,8.797187805,0.305906624,-4.49289465,0.14754194,-3.629991531,-3.302661657
235,3562157235,174.7927094,-66.15336609,139.1064758,8.73137188,0.367759526,-4.491136551,0.911825061,-2.33323431,-2.881947756
236,3562173902,174.6857605,-66.10664368,139.2232361,8.704585075,0.313765109,-4.537055969,0.578923821,-1.590132356,-2.270021439
237,3562190569,174.4997253,-66.07608795,139.396759,8.644198418,0.413532555,-4.383521557,-1.193955302,-0.4683218,-3.51057291
238,3562207236,174.3779144,-65.97937012,139.4930878,8.671001434,0.492357433,-4.418474197,-1.451574206,-4.568755627,-2.096258879
239,3562223903,174.2610016,-65.88556671,139.5721893,8.691991806,0.570856869,-4.49941206,-1.562317014,-4.389306068,-1.920587301
240,3562240570,174.1484985,-65.818367,139.6306915,8.769742012,0.577078938,-4.5290308,-3.581673622,-2.880385637,-0.756848931
241,3562257237,173.9801483,-65.78794098,139.6858673,8.636673927,0.618725061,-4.434430122,-6.438426018,-0.644883096,-0.758565068
242,3562273904,173.8280792,-65.70613861,139.6874084,8.687474251,0.674373031,-4.439943314,-9.052189827,-3.858995914,0.520667911
243,3562290571,173.6077728,-65.60392761,139.684433,8.554733276,0.782272339,-4.354989529,-13.12765217,-5.066483498,0.371807009
244,3562307238,173.3925018,-65.46239471,139.6238098,8.631166458,0.914209902,-4.444579601,-16.19872284,-7.569258213,1.621208549
245,3562323905,173.1638031,-65.29972076,139.5050812,8.625909805,0.987093985,-4.413189888,-19.69653511,-8.967731476,2.697187662
246,3562340572,173.0221405,-65.14792633,139.2751007,8.685076714,1.133968115,-4.495509624,-20.55410767,-8.659380913,5.572936535
247,3562357239,172.8719788,-65.04840851,138.953949,8.454961777,1.180065036,-4.315732956,-25.92345619,-5.83244276,8.235913277
248,3562373906,172.8402405,-64.8428421,138.4629974,8.47079277,1.349640727,-4.18385601,-28.02620888,-12.6991396,11.79162025
249,3562390573,172.7978668,-64.62898254,137.8880005,8.561361313,1.372601748,-4.457661629,-33.24429703,-13.48672485,14.02513885
250,3562407240,172.6468201,-64.45233917,137.3049469,8.551916122,1.417021871,-4.392640591,-40.11920929,-11.33450222,14.62189484
251,3562423907,172.4314728,-64.23696899,136.6556549,8.414328575,1.619815469,-4.343495846,-47.49932861,-13.92325783,16.13306046
252,3562440574,172.1315613,-64.01135254,135.9423065,8.534990311,1.900107026,-4.414230824,-55.93721008,-14.84834862,17.81998634
253,3562457241,171.7120819,-63.79071045,135.1916504,8.846474648,2.04119277,-4.286952019,-65.02146149,-14.82950401,18.93928909
254,3562473908,171.3750153,-63.59433365,134.2721863,8.735942841,2.011533022,-4.425812721,-69.05672455,-14.20920277,23.69135666
255,3562490575,171.1042786,-63.351017,133.2493286,8.660520554,1.959777832,-4.013702869,-70.50182343,-17.58629036,26.15904808
256,3562507242,170.6592407,-63.07710648,132.2507477,9.026154518,1.734491587,-4.149962425,-79.50618744,-19.52627373,25.39725876
257,3562523909,170.107132,-62.87266922,131.2785187,9.003656387,1.61541605,-4.144603252,-84.38781738,-15.58511353,25.46343613
258,3562540576,169.7575684,-62.60395813,130.1809692,8.842793465,1.505645037,-3.957120895,-78.7870636,-20.25609016,28.29024124
259,3562557243,169.462677,-62.27450943,128.995163,8.742064476,1.427434683,-3.918192387,-80.02480316,-24.53526688,30.24544144
260,3562573910,169.1909332,-61.94036865,127.777298,8.711918831,1.235482693,-3.854239941,-80.12934875,-25.23855782,31.3255558
261,3562590577,168.8097534,-61.73104477,126.6342087,8.935870171,1.326037049,-3.611681938,-82.56407166,-17.76560211,30.8331337
262,3562607244,168.5297546,-61.53477478,125.4313431,9.066401482,1.245900512,-3.344644785,-79.52333069,-17.61234856,32.76659775
263,3562623911,168.4292297,-61.31869888,124.1916809,9.400290489,0.875537276,-3.583328247,-70.55727386,-19.2139225,33.7254715
264,3562640578,168.3753662,-61.17392731,123.0415802,9.581880569,0.756680429,-3.695387602,-62.93442154,-14.66036224,32.2117157
265,3562657245,168.4411621,-61.11230469,121.9673615,9.524007797,0.865871727,-3.723734379,-51.71261597,-9.421257019,31.14550972
266,3562673912,168.6817932,-61.08638382,120.8799133,9.471327782,0.976468921,-3.70832324,-41.89268494,-7.388990879,31.99432373
267,3562690579,168.990036,-61.10786438,119.7819977,9.528285027,0.9625175,-3.710851192,-38.39000702,-4.572394848,32.86970901
268,3562707246,169.454071,-61.1892662,118.6250763,9.189067841,1.092430472,-3.462679625,-32.17341995,-1.197390556,35.1858139
269,3562723913,170.0469971,-61.23410797,117.3922501,8.576880455,1.266971111,-3.354713678,-28.47093773,-3.480267525,36.89300156
270,3562740580,170.6928253,-61.1372757,116.0844193,8.081707001,1.544199228,-3.551755905,-29.21703911,-11.8949461,37.67896271
271,3562757247,171.2529449,-60.80301285,114.8584976,8.106239319,1.565011144,-4.400455952,-29.90886688,-25.27832985,33.48281479
272,3562773914,171.5580444,-60.37646103,113.9146118,8.471716881,1.79744339,-5.544050694,-30.21660614,-29.33854485,25.06397438
273,3562790581,171.5078888,-60.07183456,113.2666321,8.353351593,2.148313999,-5.80092907,-35.92502213,-20.77358437,17.81581497
274,3562807248,171.1691742,-59.86856842,112.8770142,7.655727386,1.825160861,-5.485920906,-39.71012497,-13.64076138,11.16889572
275,3562823915,170.7030945,-59.83813477,112.7214203,6.86232996,0.705353618,-4.726980209,-35.17496109,-2.329921007,5.807916641
276,3562840582,170.2545776,-59.98800278,112.737587,6.529432774,0.032555677,-4.573214054,-25.22084045,9.186692238,2.462994337
277,3562857249,170.0072021,-60.09457397,112.6330566,6.500784874,0.889251471,-5.215897083,-19.44380951,6.024583817,5.603754044
278,3562873916,170.1036987,-59.67422104,112.2325363,7.119035721,1.15455389,-5.954871655,-14.17218304,-26.60888481,8.936693192
279,3562890583,170.4005432,-58.74508667,111.583931,9.480199814,1.63608551,-6.855226994,-14.79265308,-57.93727112,11.60773182
280,3562907250,170.4922028,-58.039711,110.8577652,11.38536072,2.303018808,-7.209477425,-30.76463699,-45.10875702,16.91007614
281,3562923917,170.4927673,-57.86222839,109.8863144,10.60909653,1.990976095,-7.253624439,-48.50455093,-15.1956358,30.1788044
282,3562940584,170.9051208,-57.88127136,108.3922501,8.761386871,1.521967173,-6.932167053,-50.30074692,-6.152123451,48.67863083
283,3562957251,171.7331085,-57.83100891,106.5392761,7.460725307,0.956976175,-6.552839756,-43.58092499,-11.45235538,59.47058868
284,3562973918,172.6235657,-57.67411804,104.5856476,7.113107681,0.331330925,-6.21051693,-44.83838654,-17.33644676,62.12501144
285,3562990585,173.3933716,-57.45966339,102.6403961,6.509923935,-0.294569314,-5.888514519,-51.46489716,-19.85243607,61.98495865
286,3563007252,174.0839844,-57.03068161,100.7577667,6.008171082,-0.317415506,-5.480186462,-52.72451782,-31.67448044,59.32635498
287,3563023919,174.7515869,-56.40920258,98.98558807,5.690466404,-0.084892377,-5.063473701,-48.01377106,-42.18115234,55.78631592
288,3563040586,175.3213196,-55.73370743,97.46378326,5.21735239,-0.083145186,-4.464017868,-40.76089478,-44.15621185,48.57925034
289,3563057253,175.7343292,-54.85004425,96.13996887,4.701791286,-0.019042853,-3.926496029,-39.70573807,-55.73781586,42.24305725
290,3563073920,175.7227478,-53.638134,94.97874451,5.370012283,0.132402301,-4.397139549,-56.42433929,-74.89237213,36.44652557
291,3563090587,175.2122955,-52.29399109,93.9618988,6.429656029,0.375233859,-5.618505955,-78.51609802,-82.64761353,31.50247192
292,3563107254,174.4967957,-51.10370636,93.15789795,6.934640884,0.196105838,-5.998579502,-79.96237183,-73.15639496,24.59975433
293,3563123921,173.8983612,-50.25862885,92.72002411,5.787850857,-0.183856815,-5.25506258,-55.41168976,-51.473526,12.63742065
294,3563140588,173.2866974,-49.43085098,92.4646759,4.533747673,-0.31697312,-4.060352325,-47.60540009,-49.79986572,5.44721508
295,3563157255,172.4379578,-48.33491516,92.18890381,4.885291576,-0.136826262,-3.765942574,-62.60005188,-65.94261169,3.765541792
296,3563173922,171.3357239,-47.01383591,91.8387146,5.923048019,0.148488969,-3.864773512,-80.8872757,-79.83563232,3.928533077
297,3563190589,170.1258545,-45.62677383,91.48656464,6.327287674,0.388011336,-4.228363514,-87.09444427,-83.90367126,2.079403877
298,3563207256,168.9862976,-44.30884933,91.27909851,5.582370281,0.687845767,-4.534126759,-76.39441681,-78.83002472,-4.618498325
299,3563223923,167.7225494,-43.07866669,91.2360611,4.679633141,0.608039916,-4.731308937,-76.83235168,-72.16615295,-12.03660107
300,3563240590,166.3200836,-41.81550598,91.29146576,4.828729153,0.90294379,-5.343774319,-81.13548279,-72.806427,-18.3998909
301,3563257257,164.8869629,-40.50881958,91.44225311,5.155691624,0.978036046,-5.74661684,-79.27025604,-73.75027466,-25.09866714
302,3563273924,163.6937561,-39.08881378,91.58653259,6.027529716,1.128800392,-5.830822945,-65.29963684,-79.72110748,-28.50416374
303,3563290591,162.8329926,-37.64773178,91.58650208,7.719521999,1.623225927,-5.859199524,-50.90753937,-82.33178711,-23.96086693
304,3563307258,162.0503082,-36.60198212,91.55890656,9.145559311,2.409345388,-5.493235588,-47.22114563,-59.82024384,-16.76397133
305,3563323925,161.2621918,-35.87321472,91.96567535,8.857460976,2.316296101,-6.445841312,-32.09909058,-35.02352905,-31.56824684
306,3563340592,160.9310913,-35.35204697,91.93089294,5.984168053,2.622970581,-5.797200203,-20.31517792,-29.93663788,-7.676968575
307,3563357259,160.4880371,-34.71611786,91.46060181,3.639692307,2.202346325,-4.89389801,-42.00091934,-43.48328781,10.042099
308,3563373926,160.0546722,-33.60647583,90.69571686,3.649401903,2.336962223,-6.373400211,-50.98147964,-75.32070923,14.10919666
309,3563390593,159.7297058,-32.32557678,89.85813141,5.3734622,3.173331261,-8.049860954,-46.05906296,-86.46895599,14.00370693
310,3563407260,159.436676,-31.10964394,89.01876831,6.924736977,2.938851357,-8.333278656,-43.27226639,-83.11418152,15.5203743
311,3563423927,159.36026,-30.22966957,88.22649384,6.714232922,2.933191776,-7.735589981,-28.05113983,-63.63905334,20.4879055
312,3563440594,159.4933319,-29.33374977,87.30254364,5.996654987,2.247161627,-8.222701073,-18.77244186,-67.10683441,26.92908478
313,3563457261,159.732132,-28.5613575,86.36346436,4.834290028,2.146050215,-8.748621941,-12.1920023,-60.51138687,30.81236649
314,3563473928,160.0175934,-27.64069748,85.3562088,4.362155437,3.283008814,-9.27107048,-10.62260532,-70.095047,31.77122307
315,3563490595,160.144043,-26.50112534,84.33220673,5.215136528,4.531682968,-9.059716225,-19.66757965,-82.78051758,28.85913086
316,3563507262,159.9450989,-25.45232582,83.36794281,5.366809368,4.759225845,-8.528108597,-36.54660034,-76.75839233,28.13440704
317,3563523929,159.3921356,-24.44424248,82.50946808,4.911065102,4.505804062,-8.847197533,-54.13138199,-72.81695557,23.50175285
318,3563540596,158.6532135,-23.59795761,81.82195282,4.287583351,4.024821758,-9.171437263,-60.33033752,-60.78025055,17.72722435
319,3563557263,158.0529633,-22.78466988,81.15849304,4.014601231,3.977532864,-9.060462952,-50.88997269,-58.72353745,16.72654915
320,3563573930,157.5140686,-22.02874947,80.49264526,4.334680557,4.230321884,-9.389151573,-46.75645828,-55.81360626,17.75611877
321,3563590597,156.9360199,-21.26216125,79.81813812,3.995675325,4.561394691,-9.399868011,-48.80383301,-56.82781601,17.58339119
322,3563607264,156.2963409,-20.44526291,79.11686707,3.988805532,4.896476746,-9.718802452,-52.54235458,-60.44215393,17.33579636
323,3563623931,155.6322784,-19.60573769,78.42230988,4.282622814,5.158695698,-9.613912582,-53.28932571,-61.79101563,15.94052315
324,3563640598,154.9614258,-18.78048706,77.73053741,4.213020325,5.289047718,-9.782942772,-53.05481339,-61.207901,15.60560799
325,3563657265,154.2431183,-18.03116608,77.06791687,3.934032917,5.164373875,-10.13561726,-54.7989769,-56.63759613,15.47575569
326,3563673932,153.4481201,-17.29848289,76.39624786,3.689369917,5.285870552,-9.840106964,-59.07405472,-56.22901917,15.75939655
327,3563690599,152.7888641,-16.6821022,75.78881836,3.563918352,5.193995476,-9.619521141,-49.34947586,-48.58551788,15.02816677
328,3563707266,152.1341248,-16.18317986,75.25926208,3.419388056,5.231167793,-9.288292885,-47.41635513,-40.47246933,13.83289337
329,3563723933,151.6304474,-15.84443569,74.86608887,3.564475536,5.517533302,-9.127402306,-35.86899185,-28.44935799,11.06279373
330,3563740600,151.2065582,-15.6407814,74.57750702,3.588382959,5.843016624,-8.789322853,-29.26529503,-18.54510117,9.426534653
331,3563757267,150.835556,-15.609972,74.39736176,3.406113386,6.005655289,-8.775036812,-24.28545952,-6.508958817,8.846027374
332,3563773934,150.5167236,-15.70864487,74.29438019,3.390318871,5.987364769,-8.621022224,-19.89564514,2.397512674,8.72492218
333,3563790601,150.2740326,-15.86371517,74.22899628,3.271547079,5.982218266,-8.476106644,-14.70185947,6.372850418,8.516917229
334,3563807268,150.1140289,-16.06038475,74.21239471,3.14344883,5.893278599,-8.528499603,-8.930873871,9.911847115,7.340803146
335,3563823935,150.0473175,-16.23610687,74.21324921,3.067786455,5.693553448,-8.370997429,-3.029061794,9.316822052,5.867250919
336,3563840602,150.0231781,-16.41725159,74.23310852,3.234688044,5.742651939,-8.493813515,-0.142163366,10.14653397,5.09402895
337,3563857269,150.0202179,-16.62674332,74.30656433,3.580673456,6.012358665,-8.541773796,2.059102297,13.16320133,3.283889771
338,3563873936,150.0332336,-16.87292099,74.43756104,3.573061228,6.191939831,-8.7579813,4.048354149,16.71858597,1.527011395
339,3563890603,150.0827332,-17.1029377,74.58837891,3.452780247,6.056927681,-8.680135727,6.633011818,16.44521141,0.062219724
340,3563907270,150.1800537,-17.28576469,74.75926208,3.27107954,5.989466667,-8.723600388,9.907290459,14.56276131,-2.349455357
341,3563923937,150.3233185,-17.42476654,74.96939087,3.364497662,6.053876877,-8.584589958,13.40658283,13.39485359,-5.617103577
342,3563940604,150.5355225,-17.51262856,75.20317841,3.510222912,5.997289658,-8.714780807,18.01150513,11.38205433,-8.336039543
343,3563957271,150.822052,-17.58836937,75.47137451,3.612193823,6.326824188,-8.851093292,23.12760544,11.67863464,-10.44195366
344,3563973938,151.1815796,-17.71598816,75.79841614,3.693459749,6.52556181,-9.17937851,28.62890053,15.97377872,-11.92459297
345,3563990605,151.5796356,-17.88434792,76.20758057,3.694877386,6.455430031,-9.314141273,32.51888657,20.28762436,-14.95024586
346,3564007272,152.0264893,-18.11221313,76.68982697,3.64791131,6.232169628,-9.508708954,36.90495682,25.28864288,-17.04842567
347,3564023939,152.5503082,-18.41661453,77.2259903,3.664729118,6.389046192,-9.46161747,42.68069077,30.62886429,-17.79494858
348,3564040606,153.1557312,-18.76663399,77.80339813,3.738501549,6.495933533,-9.775483131,48.56303787,33.94098282,-18.86187172
349,3564057273,153.8015289,-19.14849281,78.41825867,3.892994165,6.470182419,-9.868218422,51.94849396,36.37207031,-20.19723511
350,3564073940,154.5153046,-19.559412,79.04701996,3.910568953,6.255199432,-9.917867661,56.56954956,38.01748657,-20.47826767
351,3564090607,155.275528,-19.99972343,79.65842438,4.070953846,6.110627651,-10.12469006,59.2891655,38.9037056,-19.22286224
352,3564107274,156.0571442,-20.45605087,80.25765228,4.229960442,5.993226528,-10.13051128,60.60933685,39.20415115,-18.61038399
353,3564123941,156.8461914,-20.96040344,80.860466,4.517885685,5.698152065,-10.28518772,61.43365097,41.63264465,-18.06266594
354,3564140608,157.6027374,-21.59230995,81.50296783,4.887478352,5.559885025,-10.23051262,60.70170212,49.25489044,-17.56772614
355,3564157275,158.2583466,-22.46008301,82.24843597,5.185041904,5.567568302,-9.868350983,57.44726563,64.23068237,-17.96920967
356,3564173942,158.7489319,-23.4930191,83.09957123,5.026416302,5.352127075,-9.623273849,50.73003006,75.29860687,-20.12257957
357,3564190609,159.1494141,-24.51115227,83.9962616,4.928003311,4.936412334,-9.176185608,47.29473877,75.08110046,-22.98587418
358,3564207276,159.541748,-25.50408936,84.94210052,4.979679585,4.553499699,-8.694043159,48.93114471,74.31790924,-26.1483345
359,3564223943,159.9599304,-26.46531868,85.91106415,5.51100111,4.320752144,-8.384197235,51.98080063,72.63780212,-28.08803558
360,3564240610,160.3678589,-27.44241714,86.855896,6.118674755,3.928125858,-8.369847298,51.60443115,72.73803711,-26.63595581
361,3564257277,160.6569061,-28.59863663,87.9226532,6.10333395,3.753405571,-8.067196846,48.85339737,84.68392181,-29.1023941
362,3564273944,160.810379,-29.72396851,89.04524994,6.178120613,3.659645319,-7.904069901,43.47750473,83.57654572,-32.20444489
363,3564290611,161.1354523,-30.97993851,90.22156525,6.727191925,3.216138601,-7.779141903,56.62437057,91.52261353,-31.94719887
364,3564307278,161.6557465,-32.43709946,91.45223999,6.996528625,2.793493271,-7.754731655,71.48174286,103.3155899,-30.55721474
365,3564323945,162.3353882,-34.16724777,92.72631073,6.484250069,2.80691433,-7.225368977,84.19302368,118.8747711,-27.57063293
366,3564340612,163.0167389,-35.98904037,94.02529907,6.149665356,2.888820887,-6.512784004,87.10739136,123.7401352,-27.20335007
367,3564357279,163.6924744,-37.84168625,95.34286499,6.176244736,2.622723579,-6.240834713,89.46295166,125.0080795,-27.54076767
368,3564373946,164.4349518,-39.68593979,96.6541214,6.248735428,2.04224515,-6.235785484,95.24185944,123.6560822,-27.39771461
369,3564390613,165.3040771,-41.63953781,98.01262665,6.112083435,1.017065883,-6.2999897,106.6760025,129.7111511,-27.85008049
370,3564407280,166.2833099,-43.70733643,99.42085266,5.701555729,0.425646901,-6.052342415,117.4067764,135.9546509,-28.50961685
371,3564423947,167.437439,-45.80633926,100.7507629,5.200609684,-0.096257493,-5.572245598,126.7661285,135.9835968,-25.26703835
372,3564440614,168.8005066,-47.82484436,101.9237289,4.730909348,-0.582906127,-4.619114876,134.3847961,128.9218597,-20.90122986
373,3564457281,170.3329773,-49.70769119,103.0057373,4.246684074,-0.696589291,-3.890532494,142.0064392,119.3648071,-20.32791328
374,3564473948,171.8404999,-51.44744492,104.0386505,3.773744106,-0.483868688,-3.401311874,139.5194244,109.7587357,-21.4085331
375,3564490615,173.3838501,-52.94014359,104.9909134,3.462748766,-0.007930018,-3.167648792,138.9023438,93.88591003,-21.91692162
376,3564507282,174.6706238,-54.27865601,105.9566803,3.206259251,-0.021308348,-2.874175072,124.9915924,84.04495239,-24.5323391
377,3564523949,175.6990051,-55.14631653,106.9499588,3.506982088,-0.561297297,-3.104665279,111.475174,55.38767624,-28.63539886
378,3564540616,176.6129913,-55.58582687,108.088356,3.837371111,-1.578758955,-3.673313856,112.1446228,29.56490517,-35.67936325
379,3564557283,177.473465,-55.66497803,109.3657608,5.714707375,-1.907432437,-4.501004696,115.9598694,7.655272007,-41.72096252
380,3564573950,178.2781982,-55.77389145,110.7272339,6.985965252,-2.40302372,-5.395096302,116.811676,8.93611908,-44.52644348
381,3564590617,178.9406433,-55.94659805,112.300827,7.372423649,-2.132455349,-5.964948177,118.8737488,12.36376381,-51.55670166
382,3564607284,179.4424591,-56.18455887,114.1238556,7.049334526,-1.520952106,-6.704607487,121.7992249,15.87919426,-59.7326355
383,3564623951,179.7718658,-56.53819656,116.0924835,6.773300171,-0.896701574,-6.954610825,119.0130539,22.44661713,-64.20246887
384,3564640618,-179.9390564,-57.02550125,118.0483704,6.221254826,-0.557198405,-6.928924561,116.4151917,30.16542816,-63.19733047
385,3564657285,-179.6073456,-57.43431854,119.9300537,6.186761379,-0.301422626,-7.219504833,115.7216568,25.17747116,-60.19068146
386,3564673952,-179.3334961,-57.87731552,121.7339401,6.503014565,-0.095384434,-7.351512432,108.7552643,26.99834061,-57.16428375
387,3564690619,-179.031601,-58.34298325,123.4949951,6.320412159,-0.402698517,-6.946378231,108.7152176,28.15867424,-55.25946808
388,3564707286,-178.5846405,-58.8020134,125.1914978,6.184205055,-0.217187613,-6.465584755,114.5583801,27.50660896,-52.71768188
389,3564723953,-178.2384338,-59.16072845,126.8687744,6.31334734,-0.391881227,-6.408343792,107.9023285,21.20207596,-51.54870987
390,3564740620,-177.9950562,-59.46204376,128.5064392,6.54153204,-0.781167865,-6.59139061,99.98789978,17.5925808,-49.86423874
391,3564757287,-177.6707611,-59.65586853,130.093277,6.705996037,-0.785944462,-6.981915951,102.4215851,11.01400089,-47.83127975
392,3564773954,-177.3879242,-59.79189301,131.6517334,7.022756577,-0.411896497,-7.138713837,98.6036911,7.384273052,-46.68450928
393,3564790621,-177.4425049,-60.06647873,133.2394867,7.637050629,0.572232962,-6.876692295,80.05068207,15.62056255,-47.69734573
394,3564807288,-177.6482239,-60.53666306,134.8556976,7.254886627,0.676204801,-6.26025629,72.79368591,27.47990608,-48.49345779
395,3564823955,-178.2906189,-61.06547928,136.5457306,6.885876179,1.099719763,-5.833607197,50.8925705,31.34789848,-49.85527039
396,3564840622,-179.4062805,-61.63100433,138.3726196,5.865865231,1.176130056,-5.858603001,30.19237709,34.2935791,-52.52072525
397,3564857289,179.1288757,-61.96450806,140.2728729,5.473064899,2.10248208,-5.612812519,13.55644131,21.61502266,-53.12296295
398,3564873956,177.4316254,-62.04412079,142.0598907,6.052627087,2.759592772,-5.436997414,-6.158212185,7.816029072,-49.43604279
399,3564890623,175.7240753,-61.98503876,143.6308289,7.104461193,2.809710979,-5.730429649,-18.17739105,0.680983007,-43.60372543
400,3564907290,174.3853912,-61.82663345,144.7015686,8.434004784,3.254288435,-6.55909586,-22.56495857,-5.239892006,-30.16998482
401,3564923957,173.3450317,-61.59481812,145.1638031,10.99906349,3.795161247,-6.590762138,-36.87037277,-10.76558685,-13.72951889
402,3564940624,172.741745,-61.64996338,145.2748108,14.52187729,3.481755733,-5.469211102,-29.15620041,5.33834362,-1.866691351
403,3564957291,173.1048279,-62.68420029,145.3356323,12.11824512,1.000277996,-4.748289108,26.21550179,63.41900253,6.883144379
404,3564973958,174.292923,-63.74303436,145.337677,8.006322861,0.53417623,-2.19537425,72.59425354,64.73937225,7.855076313
405,3564990625,174.4862366,-64.11362457,145.4339447,8.02294445,0.653919458,0.103149578,17.97937775,23.92443657,0.591027737
406,3565007292,173.3012238,-63.63914871,145.9989624,9.742341042,1.728236675,-1.342897058,-39.49106979,-25.25442314,-16.90158653
407,3565023959,171.8752136,-63.21364212,146.6200714,10.6403141,2.372086525,-4.449841499,-51.0656929,-21.76422691,-18.81675911
408,3565040626,171.1060638,-63.15836334,147.1639099,10.46443272,2.066163301,-4.834928036,-15.84532738,0.28090772,-14.00839424
409,3565057293,170.5090485,-63.32252884,147.7827759,9.876731873,1.463821888,-3.348165989,-1.468051314,13.76537037,-13.87196445
410,3565073960,169.5208435,-63.50531769,148.6320343,9.476304054,0.593071401,-2.963568926,-12.53348732,16.09601212,-19.47945213
411,3565090627,168.302887,-63.81932068,149.8024902,8.887083054,0.50654,-3.042076349,-8.96741581,25.78525352,-25.86477661
412,3565107294,167.2415771,-64.15551758,150.9663239,8.003603935,0.829974174,-2.680633068,0.234805524,27.47585487,-24.56832314
413,3565123961,166.7137146,-64.30072784,151.8121796,7.523553848,1.203719378,-2.116160631,15.17631149,14.71250057,-18.44167709
414,3565140628,166.6876984,-64.22180176,152.2747192,7.862725735,1.687316298,-1.901571274,24.57457542,-0.609321296,-11.71656513
415,3565157295,166.8709412,-64.10228729,152.5286255,8.169026375,1.844189763,-2.31704998,25.84564972,-4.270064354,-6.991318226
416,3565173962,167.3087463,-63.95211411,152.6233368,8.369637489,1.82403326,-3.273846388,32.51964188,-7.062274933,-3.315698624
417,3565190629,167.9185181,-63.84381485,152.6064453,8.552270889,1.592848063,-4.025240421,36.82774353,-5.291884422,0.170683846
418,3565207296,168.5498657,-63.72463989,152.5466766,9.089164734,1.171158195,-4.31805563,35.82548141,-6.174168587,1.22068119
419,3565223963,168.8141174,-63.63744736,152.6076355,9.574953079,0.744139671,-4.216118813,20.29656982,-3.665944815,-1.49279356
420,3565240630,168.8389587,-63.65784073,152.7935181,9.199785233,0.273071975,-4.194152355,12.6443367,3.291009426,-3.504011631
421,3565257297,168.9953003,-63.74467468,152.9872284,8.726646423,0.118833072,-3.585267305,20.94639397,7.221089363,-2.945996761
422,3565273964,169.3347778,-63.74532318,153.1182709,8.42959404,0.49771902,-3.480716705,28.5510807,1.795621514,-2.31464529
423,3565290631,169.8510895,-63.70934296,153.196106,8.949166298,0.822874188,-4.080746651,36.28682709,-0.658383846,-1.337213039
424,3565307298,170.5370941,-63.73469543,153.2527161,9.005753517,1.244350672,-4.422410011,45.3250351,2.835282326,-0.143233657
425,3565323965,171.3583374,-63.79064178,153.2044373,8.632399559,1.393829226,-4.917918205,47.80464554,4.192500114,2.867851496
426,3565340632,172.4775848,-63.77020645,152.9493561,8.059248924,2.045053005,-5.454916954,54.56317902,-1.072037458,7.595822811
427,3565357299,173.6472778,-63.49405289,152.6412811,8.481832504,2.102068186,-6.289710522,54.79695892,-16.32273293,7.2186656
428,3565373966,174.4773102,-62.99650955,152.6826019,9.970100403,0.705841541,-7.389304161,53.23028946,-28.42197227,-3.133106947
429,3565390633,174.8050537,-62.92555618,153.2408905,10.65559864,-0.306204915,-7.660595894,50.7374115,-1.623969793,-14.51884747
430,3565407300,174.4559631,-63.37865067,154.3363647,7.922973633,-1.011072397,-5.558703899,38.93681717,31.06868935,-25.99946404
431,3565423967,173.7908173,-63.86493301,155.6974335,6.012143135,-1.122717738,-3.025122881,34.47937393,33.98714066,-32.12083817
432,3565440634,173.8061371,-63.91883087,156.8098145,5.329878807,-0.788117468,-1.627765775,62.05041885,7.63350296,-27.89095116
433,3565457301,174.5536346,-63.42789841,157.5647888,6.834951401,-0.794584155,-1.594339609,86.62023163,-26.03627777,-22.03753853
434,3565473968,175.4126587,-62.63611221,158.1896057,9.123793602,-0.017491616,-3.854826689,86.08561707,-44.64115524,-20.17914391
435,3565490635,175.7328644,-62.11106491,158.8401337,11.21552849,1.278390765,-6.557137012,54.91271591,-28.83411217,-19.58544731
436,3565507302,175.6871796,-62.10930252,159.5468292,11.86734295,2.348340034,-6.990101814,35.87062836,2.567291021,-18.89991951
437,3565523969,175.4640808,-62.38127899,160.204071,11.21059036,2.999557734,-5.148635864,22.67076111,18.88736534,-16.14564896
438,3565540636,175.2528229,-62.80448532,160.633194,10.00607491,2.287759066,-3.401687622,11.36667252,27.4517746,-8.820230484
439,3565557303,175.3964844,-63.16257858,160.7542572,8.557825089,1.235212445,-2.150074482,16.27795219,22.83921623,-0.563538611
440,3565573970,175.924118,-63.10580444,160.6013641,8.189565659,0.133342475,-2.440318584,24.64888382,-2.594962835,4.869356155
441,3565590637,176.5428925,-62.9261322,160.3886871,8.897014618,-0.612648368,-3.876245022,26.91032028,-10.05408478,6.064721107
442,3565607304,177.0221252,-62.93252182,160.2986145,8.869832039,-0.792488992,-4.560297966,25.07882118,1.30928576,3.459835291
443,3565623971,177.2657318,-63.03942108,160.3296967,8.611203194,-0.469351947,-3.814446688,17.40101051,7.504377365,0.4399243
444,3565640638,177.3990479,-63.06557465,160.4164886,8.400993347,-0.244403929,-3.398693085,13.7476387,2.719904184,-1.324875355
445,3565657305,177.5027313,-62.99951935,160.5021057,8.63878727,-5.39E-04,-3.610239983,11.88981819,-2.831671238,-1.547296047
446,3565673972,177.479538,-62.9272995,160.6045074,9.047265053,0.17095989,-3.877451897,5.158398628,-3.198149204,-2.023000002
447,3565690639,177.3201904,-62.89960861,160.7419586,9.236305237,0.231495917,-3.937119484,-1.146968842,-0.497277051,-2.868552208
448,3565707306,177.0902405,-62.91186905,160.8973389,9.055499077,0.243010193,-3.792088032,-4.438066006,1.916316748,-3.242388487
449,3565723973,176.9237213,-62.89236069,161.0126648,8.865068436,0.067394219,-3.709724188,-2.782954693,-0.047069743,-2.241502047
450,3565740640,176.8715668,-62.81347275,161.0925751,8.826246262,-0.067371495,-3.892344713,2.173148155,-3.665401936,-1.471789122
451,3565757307,176.8400116,-62.69828796,161.1948853,8.991746902,-0.16483061,-4.282176495,4.589002609,-5.820429802,-2.218501806
452,3565773974,176.7944794,-62.61410141,161.3069611,9.429440498,-0.230598584,-4.567697048,4.255589008,-3.955196857,-2.403336048
453,3565790641,176.7006378,-62.64491653,161.4501801,9.457317352,-0.264916807,-4.678444862,3.005586863,2.98168993,-2.883036137
454,3565807308,176.4733429,-62.76514435,161.6531219,9.171040535,-0.074402936,-4.499963284,-1.824297071,8.4349823,-4.194599152
455,3565823975,176.0804596,-62.91897964,161.9232483,8.774048805,-0.013662495,-4.185368538,-8.168016434,10.58614635,-5.834161282
456,3565840642,175.638916,-63.06053543,162.2393341,8.573313713,-0.073246151,-4.054188251,-8.621873856,9.980648994,-7.030313492
457,3565857309,175.201416,-63.20178223,162.581604,8.484800339,-0.174940854,-4.028356552,-6.96600008,10.06898689,-7.629843712
458,3565873976,174.7745972,-63.30079269,162.9261932,8.43723011,-0.022006935,-4.228055954,-6.19079113,7.604170799,-7.810103893
459,3565890643,174.3409729,-63.29063797,163.2220306,8.687748909,0.069455206,-4.810594559,-9.213321686,1.021230102,-7.061533928
460,3565907310,173.9707489,-63.23619461,163.4545135,9.285125732,0.183078498,-5.323060989,-8.809062004,-1.73643291,-5.645662308
461,3565923977,173.6657104,-63.29640961,163.666153,9.61039257,0.259746403,-5.221967697,-6.014446259,5.089002132,-4.366448402
462,3565940644,173.4779053,-63.48537827,163.8621979,9.151795387,0.335170448,-4.681249619,0.196039721,12.74064732,-3.046664238
463,3565957311,173.4482269,-63.65748596,163.9915619,8.683187485,0.478220552,-4.121371746,6.114395142,11.53491688,-1.339794636
464,3565973978,173.4423828,-63.73262024,164.041214,8.611415863,0.608616769,-4.019045353,3.260279655,5.508011818,0.121250533
465,3565990645,173.375885,-63.78687668,164.0891418,8.674289703,0.654504776,-4.064445972,-0.472189277,4.252655506,0.030351046
466,3566007312,173.1995239,-63.81999588,164.1280518,8.762803078,0.642328143,-4.103997231,-7.550158024,2.96350503,0.131956637
467,3566023979,172.9802094,-63.84606934,164.1234436,8.898224831,0.548699141,-4.198597431,-12.47066975,2.398054361,1.234942555
468,3566040646,172.8249207,-63.8943634,164.066452,9.059167862,0.406329036,-4.243715286,-11.45343494,3.544351339,2.778966665
469,3566057313,172.7189178,-63.97900391,164.0069427,9.049044609,0.34728381,-4.23728323,-8.638750076,5.69306469,3.121741056
470,3566073980,172.6298981,-64.08787537,163.9357452,8.92885685,0.273863673,-4.280292511,-8.256608963,7.083054066,3.613402843
471,3566090647,172.5757904,-64.19774628,163.8733673,8.766583443,0.252004653,-4.256816864,-5.697387218,7.16877985,3.39099431
472,3566107314,172.5474854,-64.28569031,163.8005829,8.76159668,0.262182295,-4.207595825,-4.716535091,5.825699329,3.485325575
473,3566123981,172.5225983,-64.34765625,163.7376862,8.859397888,0.238456577,-4.118549347,-3.985151291,4.310810089,3.022682905
474,3566140648,172.5279846,-64.42463684,163.7058258,8.92345047,0.210472047,-4.113618374,-0.497264177,5.302751541,2.334444046
475,3566157315,172.5260468,-64.51338196,163.6891785,8.950259209,0.352805763,-4.063251019,-0.121474646,6.052525043,2.030741692
476,3566173982,172.5092773,-64.59990692,163.6634064,9.039819717,0.261239737,-4.087157249,-1.510400414,5.881611824,2.245107412
477,3566190649,172.5083618,-64.7045517,163.6592865,9.101574898,0.351521552,-3.925261974,0.604446948,7.028957367,1.831935763
478,3566207316,172.5667267,-64.83522797,163.6486359,8.961294174,0.347498506,-3.851417542,3.800605059,8.548419952,2.196724892
479,3566223983,172.6962433,-64.93622589,163.6222382,8.833417892,0.383529127,-3.819355726,7.205200672,6.726665497,2.351938248
480,3566240650,172.8468475,-65.0149765,163.5755157,8.833238602,0.468336374,-3.888742208,7.360348701,5.332424164,2.677321434
481,3566257317,172.9644165,-65.07813263,163.5367126,8.878359795,0.552794814,-3.835688114,5.801635742,4.433302879,2.350605726
482,3566273984,173.0767365,-65.11089325,163.4869232,9.010453224,0.476969987,-3.864057064,4.885840416,2.582618475,2.395876408
483,3566290651,173.1988525,-65.17593384,163.4767303,9.022838593,0.481501251,-4.027275562,7.623161316,4.624438286,1.630133629
484,3566307318,173.2714539,-65.21907043,163.5075226,9.006598473,0.368400812,-4.105858803,6.881787777,3.435470343,0.444674969
485,3566323985,173.2537842,-65.25565338,163.6173401,9.269785881,0.237388015,-4.137495518,5.768941879,3.279092073,-1.576020122
486,3566340652,173.1879578,-65.32511902,163.7672272,9.208146095,0.336137325,-4.216166496,5.061531067,5.355206013,-2.335974693
487,3566357319,173.2029724,-65.43759155,163.9051819,8.851733208,0.28910464,-4.128561497,9.26379776,7.878405571,-1.721142292
488,3566373986,173.2784729,-65.50263214,164.0140076,8.595781326,0.629339039,-4.022716045,11.30496502,4.966125488,-1.331841707
489,3566390653,173.2927856,-65.39651489,163.9967346,9.027848244,1.108000636,-4.162918091,0.753256798,-5.601709366,0.584891677
490,3566407320,173.276886,-65.35662842,163.9998016,9.134044647,0.978443742,-4.199024677,0.059472684,-1.599429727,0.549571574
491,3566423987,173.2382202,-65.33638,164.0582733,8.766030312,0.678837717,-3.809342384,1.718215108,-0.265315533,-0.685978472
492,3566440654,173.2991638,-65.26574707,164.1467896,8.378560066,0.159406722,-4.086667538,9.33357811,-3.184306622,-1.788042426
493,3566457321,173.4928436,-65.0823288,164.2316284,8.094312668,-0.116026662,-4.361854076,17.08644867,-9.920178413,-2.480983973
494,3566473988,173.7910309,-64.74692535,164.2855988,8.206230164,-0.271296889,-4.86053896,21.67019653,-19.07059669,-2.694751978
495,3566490655,174.1388855,-64.3693161,164.4825287,8.466415405,-0.087452881,-5.181763649,32.38823318,-21.2088604,-6.545546055
496,3566507322,174.2317047,-64.0873642,164.8892822,8.985230446,0.069277421,-5.21329689,28.40037155,-14.95140362,-11.3990612
497,3566523989,174.2070313,-63.93983841,165.3617706,9.051920891,0.374533087,-4.829575539,24.86039734,-6.742619991,-12.38786697
498,3566540656,174.0839386,-63.84910202,165.8155823,8.849019051,0.491764754,-4.340440273,17.92444992,-3.376226664,-11.61561489
499,3566557323,174.0074921,-63.77110672,166.2230225,8.522500038,0.502487659,-3.987209558,18.20664024,-2.716212273,-10.35836315
500,3566573990,173.895462,-63.60538483,166.5829163,8.415204048,0.618037522,-3.772768974,13.49240112,-8.068195343,-9.708691597
501,3566590657,173.7576752,-63.32831192,166.8749084,8.632012367,0.693395913,-3.880182981,8.260093689,-14.87845612,-8.707606316
502,3566607324,173.6166077,-63.00315475,167.0604095,9.036115646,0.660443544,-4.28503561,2.314686775,-18.03920746,-6.274843693
503,3566623991,173.4733582,-62.76539612,167.2361603,9.105003357,0.560090721,-4.599624634,1.638611913,-12.83701038,-5.514411449
504,3566640658,173.4283905,-62.59404755,167.369751,8.883218765,0.706571698,-4.607008934,5.269621849,-9.00091362,-3.962061644
505,3566657325,173.4689789,-62.41711044,167.4602051,8.657880783,0.696859479,-4.290672779,8.094999313,-9.468987465,-2.833591938
506,3566673992,173.4277954,-62.1804924,167.4863586,8.826795578,1.010840535,-4.072591305,-0.236014739,-13.23013878,-1.476668954
507,3566690659,173.2727966,-61.95001984,167.4768066,8.688090324,1.15277195,-4.455310345,-8.962266922,-12.98757553,-0.459677875
508,3566707326,173.1113129,-61.72037125,167.4324341,8.319688797,1.549005032,-4.492321014,-11.18597984,-13.05392838,0.494299948
509,3566723993,172.9738312,-61.37485123,167.211441,8.594259262,1.647803068,-4.417163372,-19.04722404,-20.56698608,4.647988319
510,3566740660,172.9166565,-61.02981567,166.8680115,9.531040192,1.359079957,-4.188812733,-20.61717224,-20.9908886,8.20563221
511,3566757327,172.7756958,-60.94720459,166.5658569,9.864812851,0.932152152,-4.460891247,-23.44300652,-5.258100986,9.014065742
512,3566773994,172.5820923,-61.13135529,166.4207306,8.811017036,0.251487494,-5.074485779,-18.37356377,11.16317272,6.504765511
513,3566790661,172.4615173,-61.29271698,166.3510437,7.95357275,0.290943652,-4.903948784,-10.04135799,10.08130836,4.167919636
514,3566807328,172.3270874,-61.28333282,166.2347565,8.40260601,0.927331209,-4.076010227,-13.32912159,-0.252842337,4.155356407
515,3566823995,172.1014557,-61.23146439,166.0279846,8.792830467,1.266149759,-3.875136137,-23.56017113,-3.149338007,6.402433395
516,3566840662,171.8409271,-61.21224594,165.7219849,8.938643456,1.31450367,-4.264593124,-30.86985397,-1.649841666,9.513002396
517,3566857329,171.6890564,-61.22314453,165.3173828,8.896384239,1.135817766,-4.633921623,-29.53634834,-0.306450695,12.59171009
518,3566873996,171.5906982,-61.25999451,164.853302,9.29470253,0.389178038,-4.866859913,-29.45411873,0.952898502,14.50943279
519,3566890663,171.5396729,-61.40868759,164.4816284,9.401978493,-0.304330945,-4.79665184,-21.78025436,7.965620041,12.82200432
520,3566907330,171.4496918,-61.72930908,164.2539978,8.586218834,-0.643581152,-4.629047394,-16.57565117,18.76846886,10.20170403
521,3566923997,171.5767517,-61.88297653,163.9779053,8.040854454,-0.770220399,-4.271132469,-6.161503792,8.666294098,10.01832485
522,3566940664,171.5641022,-61.81432724,163.7099304,8.53978157,-0.479008883,-4.503935814,-14.13875771,-4.482784271,7.806195259
523,3566957331,171.4674225,-61.78823471,163.5469513,8.81082058,-0.295378864,-4.906907558,-13.63515568,-1.527792335,5.23548317
524,3566973998,171.5559692,-61.83979034,163.4420776,8.843069077,-0.259260863,-4.617554188,0.535126269,3.323875904,4.287195206
525,3566990665,171.6829071,-61.91307068,163.3738403,8.855070114,-0.326364338,-4.321080208,4.760031223,4.77021265,3.434266806
526,3567007332,171.7282715,-61.97958755,163.3687897,8.878866196,-0.389701009,-4.429167747,3.196721315,4.624514103,1.593570948
527,3567023999,171.7641449,-62.05906677,163.4462891,8.786408424,-0.445574671,-4.582675934,6.976439476,5.727718353,-0.601059735
528,3567040666,171.8566437,-62.11954117,163.5866699,8.740624428,-0.308309764,-4.544321537,13.6999855,4.843966961,-2.520861387
529,3567057333,171.9590302,-62.17073059,163.7589111,8.906369209,-0.002914142,-4.401595592,15.975811,4.412035465,-3.491276741
530,3567074000,172.064209,-62.23289871,163.9532013,8.923974037,0.184825927,-4.353675842,17.302742,5.136684418,-4.009781837
531,3567090667,172.2019653,-62.29112625,164.1470337,8.935687065,0.313684285,-4.367085934,19.23790359,4.887883186,-4.033371449
532,3567107334,172.3824768,-62.35766602,164.3253632,8.904823303,0.34149608,-4.360835075,20.96403122,5.302337646,-3.532810688
533,3567124001,172.5647583,-62.41043854,164.4825897,8.837960243,0.357677817,-4.400462627,19.95880318,4.387500763,-3.070512533
534,3567140668,172.6537018,-62.44745636,164.6808167,8.826490402,0.365851998,-4.350479126,16.51398468,3.5828619,-4.312741756
535,3567157335,172.6519775,-62.49316406,164.9159241,8.79287529,0.357728839,-4.357856274,13.06235886,4.224677563,-5.268312454
536,3567174002,172.6794586,-62.56381607,165.1351776,8.735123634,0.421151847,-4.461538315,13.96712875,5.648386955,-4.628994465
537,3567190669,172.8159943,-62.59422302,165.2748718,8.717212677,0.57428652,-4.523319244,16.27838707,2.966427803,-2.750416517
538,3567207336,172.9904022,-62.69114304,165.4321289,8.637952805,0.490559846,-4.545053959,19.48541069,6.974866867,-2.733660221
539,3567224003,173.1413574,-62.73681259,165.5722961,8.760193825,0.526334822,-4.375741959,17.17483711,3.854952097,-2.646972895
540,3567240670,173.2538452,-62.83080292,165.6958771,8.912819862,0.463517517,-4.492468834,13.99603367,6.668335438,-1.854789972
541,3567257337,173.4390564,-62.9756012,165.8042297,8.888933182,0.34258768,-4.55014801,17.54821777,9.64177227,-1.087792039
542,3567274004,173.6038666,-63.17090988,165.9466705,8.781075478,0.40764612,-4.543503284,18.14949799,12.7480526,-1.676194072
543,3567290671,173.6572266,-63.36130905,166.1102142,8.660275459,0.637599528,-4.452382565,12.61389732,12.5114584,-2.275953293
544,3567307338,173.6251373,-63.5161972,166.2414093,8.673141479,0.856711924,-4.331351757,5.764922619,10.29453087,-1.624172568
545,3567324005,173.5783081,-63.65075302,166.3240204,8.807273865,0.919647694,-4.262177467,2.282975912,8.938092232,-0.442581177
546,3567340672,173.5148621,-63.78282928,166.3815765,8.805894852,0.845505178,-4.237259388,-0.050360989,8.714326859,0.222139031
547,3567357339,173.4421539,-63.8950882,166.4292297,8.81475544,0.590034962,-4.341151714,-1.132023811,7.500999928,0.366325736
548,3567374006,173.3619232,-64.00707245,166.4885254,8.857872009,0.357241094,-4.461550713,-0.953029633,7.51942873,0.075326964
549,3567390673,173.2738342,-64.12465668,166.5638428,8.884623528,0.323180795,-4.508397579,-0.55633992,7.906564713,-0.287765145
550,3567407340,173.1353455,-64.23735809,166.6435852,8.694815636,0.379503757,-4.563637733,-3.338443756,7.631498337,-0.416853219
551,3567424007,172.9850616,-64.30384827,166.7119446,8.511714935,0.412560731,-4.574569702,-4.653860569,4.851289749,-0.435780972
552,3567440674,172.8329773,-64.31617737,166.7596741,8.507618904,0.597239017,-4.325744152,-5.873343945,1.564513087,-0.292247295
553,3567457341,172.6886902,-64.3216629,166.7839813,8.63902092,0.732859194,-4.09180212,-6.667505741,1.090422392,0.26296562
554,3567474008,172.6122284,-64.31407928,166.7848816,8.540037155,0.802489638,-4.128748894,-3.862504482,0.233613476,0.769162297
555,3567490675,172.5691376,-64.25818634,166.753952,8.62902832,0.678305149,-4.358510494,-3.583441257,-2.745047808,1.220906258
556,3567507342,172.4803619,-64.2084198,166.7511902,8.780361176,0.537740588,-4.48628521,-4.791323185,-2.28570962,0.536573291
557,3567524009,172.3319855,-64.18314362,166.777771,8.757421494,0.498791158,-4.493273735,-6.775002003,-0.724487424,-0.039923802
558,3567540676,172.1612244,-64.13892365,166.8136139,8.616009712,0.458452523,-4.455105782,-7.620055199,-1.812399864,-0.435857832
559,3567557343,172.0226135,-64.05770111,166.8499451,8.592285156,0.395246148,-4.40540123,-5.663770199,-3.999968767,-0.764071882
560,3567574010,171.8831329,-63.96566391,166.9100037,8.666845322,0.395370513,-4.35632658,-4.432144165,-4.550782204,-1.491459727
561,3567590677,171.6642456,-63.85406494,166.997345,8.678955078,0.340821445,-4.399463177,-7.720443726,-5.597202301,-2.400825977
562,3567607344,171.4018555,-63.70410156,167.1233063,8.829242706,0.274916708,-4.44483757,-8.27000618,-7.707217216,-3.784809828
563,3567624011,171.1902466,-63.58029175,167.2815247,8.897620201,0.308702856,-4.408371449,-3.447528362,-5.998476982,-4.475007534
564,3567640678,171.0320282,-63.47579575,167.4626923,8.767129898,0.391024053,-4.219869614,0.921353042,-4.74592495,-4.91708231
565,3567657345,170.8659058,-63.31734848,167.6581268,8.81863308,0.447548866,-4.15213871,1.200237036,-7.86072588,-5.845722198
566,3567674012,170.6935577,-63.14797592,167.8268738,9.01144886,0.551426709,-4.271479607,-0.620384634,-8.599884033,-5.293999195
567,3567690679,170.6100464,-63.01483917,167.9855042,9.082802773,0.639293909,-4.338917732,4.147235394,-6.486501694,-4.711810112
568,3567707346,170.5508881,-62.90843201,168.120224,8.974170685,0.712658823,-4.230410576,4.295122147,-5.00714922,-3.820922375
569,3567724013,170.5253601,-62.78288269,168.2176514,8.958564758,0.610052645,-4.150560379,4.371102333,-6.299079895,-3.048136234
570,3567740680,170.539856,-62.66784668,168.2991028,9.028576851,0.573567986,-4.105001926,5.899720669,-5.748996258,-2.51727438
571,3567757347,170.5735474,-62.5831871,168.3778076,8.955591202,0.569206119,-4.224952221,6.929569244,-3.968336582,-2.165125132
572,3567774014,170.6203156,-62.49676514,168.4273376,8.953105927,0.630047739,-4.319355965,6.122076511,-4.211528778,-1.371950865
573,3567790681,170.6800995,-62.41862106,168.4433289,9.0187397,0.679157853,-4.456264973,4.981671333,-3.892587185,-0.30821687
574,3567807348,170.7227631,-62.38791275,168.4708252,9.00060463,0.675149679,-4.53174448,4.73510313,-1.014288425,-0.244601265
575,3567824015,170.725708,-62.39360046,168.5211639,8.862254143,0.699656904,-4.366867542,3.674539328,1.253114343,-0.573321104
576,3567840682,170.7125397,-62.38817978,168.5647278,8.743571281,0.692754865,-4.174433708,1.941160679,0.517056346,-0.293860883
577,3567857349,170.7051697,-62.37135696,168.5517883,8.817567825,0.719634056,-4.231244564,-0.49896735,-0.390318334,1.039593816
578,3567874016,170.7420044,-62.39685822,168.5301666,8.836622238,0.631692767,-4.431629658,1.682908177,2.07320714,1.690681458
579,3567890683,170.776413,-62.44693756,168.508316,8.792919159,0.664836645,-4.394294262,1.698518872,3.546653986,1.846765161
580,3567907350,170.7977142,-62.49029541,168.4711609,8.801136017,0.658899963,-4.307837486,-0.169728979,3.04970479,2.329654694
581,3567924017,170.8340149,-62.5356636,168.4105072,8.845211029,0.570288658,-4.395448685,0.215620503,3.144061089,2.623764992
582,3567940684,170.9009552,-62.5898056,168.3581696,8.891136169,0.478302717,-4.41329813,2.082901478,3.656263828,2.677922726
583,3567957351,170.9519806,-62.6590004,168.3232117,8.855993271,0.479320735,-4.40394783,1.809076548,4.601411819,2.458281517
584,3567974018,171.0020752,-62.72463989,168.2815857,8.823460579,0.486611545,-4.419023514,1.503516912,4.373574257,2.546159029
585,3567990685,171.0704651,-62.78672791,168.2474976,8.856514931,0.50295651,-4.390588284,2.148457527,4.109686375,2.717968702
586,3568007352,171.1167145,-62.86309433,168.1915131,8.854320526,0.519472301,-4.340919018,1.194813132,5.019890308,2.680439234
587,3568024019,171.1613617,-62.93613815,168.1500702,8.789147377,0.543377519,-4.391961098,1.062043428,4.803265095,2.644114494
588,3568040686,171.2396545,-63.00387955,168.1221619,8.775068283,0.532125652,-4.35946703,3.283496857,4.496873379,2.474455595
589,3568057353,171.3413391,-63.05701828,168.059494,8.804480553,0.508184373,-4.355037212,3.571293831,3.565594912,2.907630444
590,3568074020,171.458786,-63.11305237,167.974762,8.804603577,0.446981966,-4.422492981,3.841226816,3.698525667,3.270332098
591,3568090687,171.6106262,-63.17863464,167.8986664,8.734560966,0.397500008,-4.54435873,6.041318893,4.276834965,3.266823292
592,3568107354,171.7881317,-63.23598862,167.8461304,8.661653519,0.398208857,-4.561114788,7.401495457,3.752260923,3.242337942
593,3568124021,171.9959106,-63.25671005,167.7646637,8.739953995,0.34873417,-4.577763557,9.746026039,1.67082572,2.689276695
594,3568140688,172.1382294,-63.29800034,167.7666321,8.782858849,0.24639003,-4.713698864,9.540427208,3.141795635,0.983233511
595,3568157355,172.1590576,-63.36785889,167.8663025,8.608236313,0.155385435,-4.730575085,6.28334713,5.093944073,-0.815181911
596,3568174022,172.0882568,-63.36172485,167.92453,8.636464119,0.120986626,-4.816697121,1.943837285,0.735635102,-1.957328796
597,3568190689,172.0299377,-63.36713409,168.1386414,8.952501297,0.216189459,-5.008702755,4.513662338,1.419916868,-2.877017021
598,3568207356,172.0166779,-63.48215485,168.3356781,9.056181908,0.252281308,-4.984210491,9.607598305,8.174797058,-3.087350368
599,3568224023,172.0797577,-63.63384628,168.6388702,8.970480919,0.326425582,-4.849693775,14.21054268,10.23873901,-2.860730171
600,3568240690,172.2063141,-63.77383804,168.7476044,8.977710724,0.392526209,-4.511695862,15.88352966,9.558312416,-1.768911242
601,3568257357,172.3068695,-63.96474457,168.8991089,9.024313927,0.50799334,-4.404566765,14.26739407,12.52805805,-1.35808301
602,3568274024,172.3656769,-64.26060486,169.0605011,9.036126137,0.463061929,-4.386137962,13.45989513,18.89278412,-1.294039249
603,3568290691,172.5377808,-64.62159729,169.176651,8.72622776,0.501936793,-4.392148972,16.95805931,22.53010559,0.798887789
604,3568307358,172.7557526,-64.9859314,169.3050995,8.464363098,0.479542226,-4.237072468,20.71341705,22.78828239,0.333081454
605,3568324025,173.153244,-64.94069672,169.4572754,9.159092903,0.636701941,-3.72232008,33.19246292,-1.494859219,-3.563054562
606,3568340692,173.0738373,-65.1974411,169.4637909,9.698525429,1.020700455,-4.133662224,-3.767381191,15.99580956,2.482794762
607,3568357359,173.0503387,-65.64167786,169.3689117,9.326965332,0.294308007,-4.795517445,-6.138043404,26.84019089,6.461168289
608,3568374026,173.5344543,-66.25934601,169.2749481,9.591412544,0.18896015,-4.642010689,24.53846169,37.22154617,7.415185452
609,3568390693,173.8564453,-67.28363037,169.4541931,10.29676628,0.271912664,-3.802360058,29.82773018,62.23775101,3.341245413
610,3568407360,174.1454926,-68.53195953,168.97966,9.767440796,0.696881354,-3.727613449,-8.408512115,74.05072021,19.28198814
611,3568424027,175.1061096,-70.12783813,168.3572235,9.384271622,-0.173086494,-4.106529236,23.29818726,94.77584076,22.90933609
612,3568440694,176.8309631,-71.26107025,167.7713013,8.783037186,0.20320195,-1.105340123,70.92042542,67.68841553,17.18433762
613,3568457361,177.9812622,-71.70043945,167.2715607,9.254462242,0.45858416,-0.817601919,41.18186951,26.56707382,11.52079678
614,3568474028,177.8056641,-71.3549118,167.5749512,8.293372154,0.68772012,-1.612422585,7.307635784,-19.85668373,-5.705040455
615,3568490695,176.4515991,-69.9127655,168.5358429,9.14710331,0.062990688,-1.167503595,-26.27234268,-84.82148743,-22.599617
616,3568507362,173.9619141,-68.41590881,169.615509,10.42987537,0.494563043,-3.878657103,-88.26956177,-86.95524597,-29.63131714
617,3568524029,171.5910645,-68.12247467,170.8394012,11.04921246,-0.545736074,-6.617067814,-73.47826385,-13.42930317,-28.34935379
618,3568540696,169.0066681,-68.78167725,172.5744629,10.03540707,0.307584882,-4.44990778,-57.662117,46.06148911,-30.19991112
619,3568557363,165.1407013,-69.53889465,174.8440094,9.84380722,0.221221387,-2.420802593,-104.1120453,55.75530243,-36.23541641
620,3568574030,162.5648499,-69.39404297,176.6525269,8.10310936,-2.319613695,-1.196352482,-52.3733902,2.870957136,-38.15720749
621,3568590697,161.3109283,-68.65856171,177.6840515,9.502127647,1.502342939,-2.197781563,-16.9324646,-34.46730042,-33.9402504
622,3568607364,160.565979,-67.99523163,178.5517578,9.681640625,1.112054706,-3.899870396,4.212715149,-30.72771072,-30.36851311
623,3568624031,158.7214203,-67.69385529,179.7556458,10.32790279,2.401967525,-3.80753994,-43.53250504,-6.914072514,-30.92040062
624,3568640698,155.8598328,-67.70053101,-178.5729065,10.60668373,1.913375854,-4.344654083,-78.2695694,15.68972015,-34.18222809
625,3568657365,152.8634949,-67.94517517,-176.4653778,10.5904541,1.212774873,-3.870439291,-62.17761612,34.48828125,-35.85877991
626,3568674032,150.5996704,-68.11742401,-174.5941467,10.00934887,1.965057135,-2.936365604,-30.98361969,29.64034462,-31.35878944
627,3568690699,149.1733856,-68.15377808,-173.4069519,9.279193878,1.715819001,-2.723674536,-18.98682213,15.7925787,-21.03061867
628,3568707366,147.8294067,-68.27577209,-172.1477661,7.614912987,1.104071856,-2.627628803,-9.978478432,21.48577118,-19.27038765
629,3568724033,146.6119537,-68.19326019,-171.1934509,6.682035923,1.147060156,-1.843493104,-19.34039116,7.936399937,-19.73035812
630,3568740700,146.2005768,-67.74031067,-171.0923004,7.975106239,1.224892378,-2.261507988,-18.54976463,-20.7842617,-16.12821579
631,3568757367,146.4217529,-67.19758606,-171.3088379,9.23337841,1.316412807,-3.222212553,1.786415458,-29.26252174,-13.12124729
632,3568774034,146.2568512,-67.00769043,-171.0284576,9.027838707,1.465436816,-3.868356466,6.103420258,-5.26432848,-10.9652071
633,3568790701,145.579834,-67.04504395,-170.2867889,8.501781464,1.736698627,-3.187985897,0.863251388,12.19282341,-12.33950138
634,3568807368,144.9056702,-67.00158691,-169.8115692,8.604807854,1.969721556,-2.767553091,-13.68592453,4.807150364,-9.842799187
635,3568824035,144.5259857,-66.90776062,-169.4911957,8.908093452,1.797372937,-3.170964241,-4.577535152,0.356836259,-8.607414246
636,3568840702,144.1340179,-66.92537689,-168.9192352,9.006690025,2.006653547,-3.270858526,8.560283661,9.307305336,-9.52742672
637,3568857369,143.5114288,-67.06794739,-168.1204834,8.877860069,2.358585358,-3.211084604,7.267961025,18.56175995,-9.283164978
638,3568874036,142.6248627,-67.28613281,-167.2682343,8.797531128,2.49331522,-3.258141756,-5.550008297,22.98553658,-7.204118252
639,3568890703,141.7275543,-67.57167816,-166.4356079,8.772648811,2.636018038,-3.014568806,-7.189292431,25.90345955,-3.851769447
640,3568907370,141.0769043,-67.83864594,-165.7672577,8.774840355,2.591364384,-2.546810865,-1.413868308,22.62104797,-1.107949615
641,3568924037,140.8582306,-68.01747131,-165.3300171,8.607147217,2.140016317,-2.351826429,11.71795368,15.15145493,-0.110461317
642,3568940704,140.8977966,-68.09098053,-165.0856476,8.706451416,2.168502092,-2.195937157,16.49734116,7.484065533,-0.675362945
643,3568957371,140.9297333,-68.11740112,-164.9837494,8.793826103,2.415276289,-2.582341909,8.107803345,3.266913176,0.023333171
644,3568974038,140.9078674,-68.16499329,-164.9963531,9.049699783,2.218439341,-2.881835222,-1.491728425,2.639913559,2.814938307
645,3568990705,140.8737488,-68.23876953,-164.991272,9.312115669,2.089061975,-2.933822393,-1.249048114,4.104486942,3.502997875
646,3569007372,140.7871704,-68.35761261,-164.8417053,9.390926361,2.090559483,-3.089220524,3.687781811,8.23147583,2.718698978
647,3569024039,140.6402283,-68.48052979,-164.5694275,9.31672287,2.285960197,-3.099341393,6.895403385,10.11875057,0.813075542
648,3569040706,140.5788269,-68.53637695,-164.4084015,9.045330048,2.34465766,-2.957884073,5.840362072,5.442340851,0.179916441
649,3569057373,140.6786041,-68.5099411,-164.4850464,9.029476166,2.332385302,-2.980099916,2.237935305,-1.683836579,1.087784171
650,3569074040,140.7342529,-68.48139191,-164.5918579,9.288162231,2.098631144,-3.055321217,-2.093818903,-2.198229074,1.528412223
651,3569090707,140.6685486,-68.50005341,-164.5578918,9.259804726,2.093226671,-2.921607018,-1.502370358,1.958539009,0.921275973
652,3569107374,140.7178192,-68.50415802,-164.5435181,9.067224503,2.075485706,-2.841172218,4.285645485,1.005656958,0.705258489
653,3569124041,140.8063202,-68.4826355,-164.542572,9.037492752,2.083548307,-2.937947512,5.869585991,-0.375245273,-0.03395604
654,3569140708,140.7821045,-68.48175049,-164.4771881,9.21059227,2.108876228,-2.950134277,2.647879362,1.46827364,-0.33210066
655,3569157375,140.6681824,-68.5426178,-164.3240204,9.274130821,2.175092936,-3.020287514,2.201117277,5.567727566,0.510089815
656,3569174042,140.5244141,-68.6348114,-164.1411591,9.165658951,2.307289839,-2.968885183,2.268632412,7.478410244,1.160729289
657,3569190709,140.4086304,-68.7068634,-164.0190125,9.066537857,2.345974922,-3.01000309,0.591576636,5.700055599,1.431160927
658,3569207376,140.2688446,-68.77585602,-163.8805237,9.146229744,2.242676258,-2.831172228,0.03338616,5.771732807,1.071558595
659,3569224043,140.2135315,-68.813591,-163.8011017,9.144916534,2.240208149,-2.609540939,1.690336108,3.480484724,0.905882895
660,3569240710,140.3058777,-68.80516052,-163.8943329,9.099804878,2.352498055,-2.742544651,0.873610795,-1.049781442,2.020304203
661,3569257377,140.429306,-68.79866791,-164.0506897,9.055178642,2.214670897,-2.849131584,-0.802695692,-1.831673145,3.158788681
662,3569274044,140.5309601,-68.79164886,-164.2059784,9.02761364,2.066604614,-2.81547761,-2.152997017,-1.862830758,3.15855813
663,3569290711,140.64534,-68.75973511,-164.3767853,9.097941399,1.949556708,-2.626409054,-2.190865755,-3.211557627,2.456283808
664,3569307378,140.9193878,-68.67329407,-164.693573,9.096515656,1.956852078,-2.530476332,-0.738676786,-7.749053955,2.861579418
665,3569324045,141.4308777,-68.53044891,-165.1888428,9.202213287,1.787361622,-2.679120064,3.144075871,-12.94204712,3.995493889
666,3569340712,141.9569397,-68.43318176,-165.6538086,9.400108337,1.693958998,-2.945654154,6.108388901,-10.30131149,5.212353706
667,3569357379,142.2359009,-68.48462677,-165.8707428,9.33354187,2.038157701,-3.217506886,4.992185593,0.095035955,6.509162903
668,3569374046,142.4408569,-68.65988922,-166.0263367,8.888723373,2.528940439,-3.312614918,4.658043861,6.995396137,9.742372513
669,3569390713,142.8276367,-68.8607254,-166.3316498,8.820378304,2.591386318,-2.911796331,6.228386402,6.089731693,13.51612854
670,3569407380,143.3804474,-69.04347229,-166.7809753,9.138128281,2.057050943,-2.579225063,6.464678288,3.131348133,15.7817297
671,3569424047,144.0200043,-69.16670227,-167.3525238,9.409283638,1.674918294,-2.667426825,7.725168705,-0.453748584,14.75680828
672,3569440714,144.6994781,-69.23691559,-167.8870392,9.438144684,1.721646667,-3.077800274,10.65618515,-2.714826584,12.71245098
673,3569457381,145.4133911,-69.33876038,-168.3968201,9.353295326,1.897266507,-3.136408091,14.39002705,-0.619898498,13.27725506
674,3569474048,146.0837555,-69.5196228,-168.9792633,9.387265205,1.735883355,-2.784538507,14.75399971,4.061308861,14.88325405
675,3569490715,146.3908997,-69.78160858,-169.0877838,8.937367439,1.419885039,-2.303436995,12.81058311,12.44270802,11.42004204
676,3569507382,146.7337952,-69.73863983,-169.4340973,8.954894066,1.561392665,-1.841490388,-0.66624409,-5.914568424,6.089804173
677,3569524049,147.3732758,-69.63425446,-170.0773468,9.3598423,1.120775938,-3.227191925,5.92090559,-11.2934618,7.580763817
678,3569540716,147.6799469,-69.62776184,-170.1381226,9.250182152,1.609803557,-2.815237522,14.2573843,-0.610357463,2.049260855
679,3569557383,147.411087,-69.57694244,-169.925415,9.318511009,1.273132205,-2.461402655,-3.497830629,0.477164596,-4.660365105
680,3569574050,147.1851349,-69.63983154,-169.5016327,9.397789001,0.767945945,-2.926117897,15.0150919,9.394722939,-6.018549919
681,3569590717,146.8213654,-69.77830505,-168.658844,8.705188751,1.10376215,-2.417760849,19.48064232,15.88089657,-7.266372681
682,3569607384,146.5046082,-69.65822601,-168.3934479,7.700981617,1.563910365,-1.853635788,-0.312327743,-1.732936382,-8.853383064
683,3569624051,146.7695923,-68.92030334,-168.8178558,8.005419731,1.635429502,-2.057341099,-11.04875469,-42.02242661,-14.85877419
684,3569640718,146.7499542,-67.95431519,-169.3276367,8.747161865,1.56245625,-3.141011715,-32.64673615,-54.7361145,-20.37720108
685,3569657385,146.386795,-67.11952972,-169.2300568,10.03666115,1.462270379,-4.212539196,-18.62956047,-40.5386734,-27.69663048
686,3569674052,145.4229126,-66.71685028,-168.3696899,10.29271984,2.230320454,-3.910681009,-9.240538597,-7.893650532,-29.75681496
687,3569690719,144.0735016,-66.42896271,-166.9970856,8.12059021,2.050272226,-3.147391558,-8.056582451,4.678168297,-34.76795959
688,3569707386,144.0079956,-65.5898056,-167.084198,7.920670986,2.263850927,-0.485033929,-9.133871078,-41.59821701,-26.72449493
689,3569724053,144.7688599,-64.42566681,-167.9066162,8.829291344,1.997063518,-2.421193123,0.903722405,-68.44025421,-22.74004555
690,3569740720,145.6486053,-63.45835114,-168.4600677,10.59014606,1.943539619,-4.199079037,23.33791924,-55.40654373,-20.31536484
691,3569757387,146.2516327,-62.74066925,-168.9659119,10.21817303,2.665332794,-3.820397139,9.568551064,-42.76921082,-11.94538116
692,3569774054,146.4738922,-62.11804962,-169.5240631,9.875543594,2.532064199,-4.009052277,-15.84279346,-39.07564926,-7.024731159
693,3569790721,146.7264099,-61.5642662,-169.7910919,9.364120483,2.22982645,-3.881225824,1.495083213,-31.30377579,-11.19838238
694,3569807388,147.1344604,-61.00596619,-170.1026306,9.191617012,2.402214289,-3.386398315,8.607582092,-32.3610611,-9.998145103
695,3569824055,147.7010193,-60.47467422,-170.4761963,8.941267967,2.202053547,-3.627268314,14.93528271,-32.16225052,-7.171070099
696,3569840722,148.3085938,-59.94743729,-170.9318542,8.75914669,2.193365574,-4.059542179,13.22077274,-33.43307114,-4.481058121
697,3569857389,148.8869019,-59.43022156,-171.458313,9.033026695,2.45414114,-4.394141197,7.920774937,-34.19814301,-1.80117619
698,3569874056,149.3721313,-58.99104691,-171.8494415,8.978890419,2.485680819,-4.377303123,9.444647789,-28.1883316,-2.447538137
699,3569890723,149.7788849,-58.64224243,-172.1698303,8.821978569,2.886746168,-4.201544285,8.448455811,-22.49437714,-1.253302336
700,3569907390,150.1176605,-58.39429855,-172.3929596,8.98905468,2.97630477,-4.178545952,9.399744034,-15.79042053,-0.634023964
701,3569924057,150.3304596,-58.20931244,-172.525238,8.863807678,2.870723248,-4.172542095,6.510111332,-11.12109661,-1.127004147
702,3569940724,150.4898376,-58.02655029,-172.6177673,8.580491066,2.585456371,-4.294383526,5.343311787,-10.40322495,-2.096611977
703,3569957391,150.6564178,-57.78612137,-172.79216,8.267445564,2.761488914,-4.301805496,1.628610253,-14.71795845,-1.476938128
704,3569974058,150.8580017,-57.53123093,-173.1324158,8.448867798,3.025207758,-4.626653194,-4.652814865,-18.10256004,2.828183174
705,3569990725,151.0776825,-57.37078857,-173.5226135,8.815324783,2.999785662,-4.781788349,-6.050717831,-13.95108891,7.115138054
706,3570007392,151.2150116,-57.28335571,-173.8450928,8.851183891,3.103561401,-4.858568668,-7.542170048,-9.056751251,7.392956734
707,3570024059,151.1523132,-57.35182953,-174.0045013,8.545917511,2.752271414,-4.976928234,-11.30229664,1.688633561,7.282194138
708,3570040726,151.0336456,-57.48237228,-174.0895233,8.461170197,2.4949224,-4.902869225,-10.90462208,6.111181736,6.968349934
709,3570057393,150.8778076,-57.6632576,-174.1112366,8.462368965,2.288682699,-5.003831863,-9.93637085,9.733652115,6.655836105
710,3570074060,150.6479492,-57.94835663,-174.0216064,8.224946976,1.98670578,-5.087969303,-8.728595734,16.91336823,6.629036903
711,3570090727,150.5705109,-58.09022141,-174.0180664,7.860289574,1.826390505,-4.524233818,-3.953968048,8.064441681,4.849138737
712,3570107394,150.5418243,-58.06967545,-174.1256104,8.006654739,1.849109888,-4.767814159,-6.683513165,-2.153432846,3.129987478
713,3570124061,150.6590881,-57.93275833,-174.2982025,8.260670662,1.679849267,-5.192883015,-1.231183529,-9.24592495,1.507845759
714,3570140728,150.9107819,-57.72499466,-174.5072327,8.261285782,1.873658299,-5.051224709,4.98930645,-13.53021812,0.503507614
715,3570157395,151.1055145,-57.5811882,-174.6135254,8.376522064,1.886761189,-4.7414608,6.803619385,-8.586297035,-0.444361359
716,3570174062,151.2475128,-57.50263214,-174.628418,8.412307739,2.071351051,-4.19528532,8.269125938,-3.744621754,-1.102723002
717,3570190729,151.4002075,-57.37783813,-174.6646881,8.471447945,2.18527317,-4.311927795,7.831584454,-6.519350052,-1.820429683
718,3570207396,151.5958099,-57.23558044,-174.6984406,8.678232193,2.263624191,-4.6021595,10.53438091,-7.411263466,-2.365596294
719,3570224063,151.7458038,-57.15502167,-174.6745453,8.726229668,2.27080822,-4.315050125,10.71547318,-3.274271011,-2.239261389
720,3570240730,151.8384247,-57.11761093,-174.6246033,8.602497101,2.253819227,-4.167483807,8.575734138,-0.605465055,-1.752773166
721,3570257397,151.894928,-57.10083389,-174.5752411,8.580953598,2.290031433,-4.042672157,6.379055023,0.470178753,-1.154031515
722,3570274064,151.9167938,-57.1121254,-174.5250244,8.534565926,2.306596756,-3.918629408,4.347698689,1.966383338,-0.388749599
723,3570290731,151.934021,-57.12128448,-174.5047913,8.479322433,2.492165565,-3.895515203,2.56167984,1.383252263,0.409662336
724,3570307398,151.9584198,-57.12322235,-174.5342102,8.664953232,2.475606203,-4.197367668,0.488479018,0.236321986,1.634147882
725,3570324065,151.9388123,-57.163517,-174.5503235,8.79876709,2.417449951,-4.491020203,-1.486708403,2.463711262,2.336505651
726,3570340732,151.8734283,-57.25724792,-174.5173492,8.564743042,2.390265465,-4.589416504,-1.73706007,6.045801163,2.426483393
727,3570357399,151.8210144,-57.35393143,-174.4984741,8.315114021,2.267141581,-4.31005621,-1.680327773,5.979681969,2.926942587
728,3570374066,151.7832336,-57.3954277,-174.5308533,8.472149849,2.250986814,-4.292773724,-3.389975548,2.274062157,2.828052044
729,3570390733,151.6993256,-57.46593475,-174.5121155,8.676028252,2.153150558,-4.640732288,-3.450421333,4.618968964,2.122742176
730,3570407400,151.5839386,-57.62402725,-174.4044495,8.431798935,2.13530755,-4.688297272,-0.861259401,10.59230232,2.120463371
731,3570424067,151.5663757,-57.74655914,-174.3395996,8.288089752,2.023182154,-4.345582485,2.678038597,8.010027885,2.430927277
732,3570440734,151.56987,-57.79415894,-174.3141937,8.4678936,2.556718349,-4.5033288,1.971345425,3.460518837,1.385826349
733,3570457401,151.4195709,-57.90408325,-174.1972656,8.532934189,2.324962139,-4.840060711,-2.56687355,8.14911747,0.585596144
734,3570474068,151.3138275,-58.02163696,-174.0527954,8.238173485,2.173475027,-4.539362907,1.586751819,8.986069679,0.021764394
735,3570490735,151.221344,-58.10416794,-173.9572144,8.345819473,2.044707298,-4.571520329,-0.342621118,6.330481052,0.535260737
736,3570507402,151.1837006,-58.15148544,-173.8357849,8.450799942,2.166198015,-4.61562252,4.480897903,4.927480221,-1.312817574
737,3570524069,151.1046906,-58.21787643,-173.6660767,8.375818253,2.154634714,-4.46502924,4.159323692,6.586639404,-1.918346643
738,3570540736,151.0595856,-58.23468399,-173.5463409,8.382951736,2.126609802,-4.549834728,3.771662474,3.250841379,-2.033732176
739,3570557403,151.0783081,-58.21501541,-173.455658,8.564723969,2.2190063,-4.619249344,6.030190468,0.871779501,-2.240029335
740,3570574070,151.0740662,-58.21879959,-173.3081055,8.404248238,2.349109411,-4.419442654,7.112347126,2.85890913,-2.886590242
741,3570590737,151.0398712,-58.19372559,-173.1885834,8.261517525,2.310806513,-4.319281578,5.031603336,1.216244817,-3.596107483
742,3570607404,150.9605408,-58.16807175,-173.0430298,8.38487339,2.173274755,-4.410578728,5.012636662,1.946348071,-5.10287714
743,3570624071,150.8862457,-58.13407135,-172.8786774,8.331032753,2.403279781,-4.277314186,5.477686882,1.597297907,-5.423521996
744,3570640738,150.883667,-58.05076981,-172.8029938,8.585648537,2.685351372,-4.269723415,3.51795578,-2.805916309,-3.431148291
745,3570657405,150.9332123,-57.96565247,-172.805069,8.409550667,2.435870409,-4.32324934,3.746293068,-3.826364994,-1.924634576
746,3570674072,150.9515533,-57.89838791,-172.7180176,8.562389374,2.210825205,-4.483878136,3.033388615,-2.40297699,-1.968214273
747,3570690739,150.9564209,-57.87588882,-172.6645508,8.530903816,2.205830336,-4.422245979,4.124874115,0.376301765,-1.784968376
748,3570707406,150.9903564,-57.83446503,-172.6436005,8.497267723,2.263867855,-4.337257862,3.767653704,-1.236152053,-1.173196077
749,3570724073,151.029953,-57.80042267,-172.6278076,8.661960602,2.483639479,-4.373437881,3.718977451,-0.965451598,-0.745617807
750,3570740740,151.0935211,-57.79317474,-172.6204071,8.504177094,2.319126844,-4.331542969,4.947387695,0.365070641,0.14532645
751,3570757407,151.1510773,-57.80498505,-172.6169891,8.602207184,2.395581722,-4.354894638,3.881770611,1.172587752,1.095442295
752,3570774074,151.2175446,-57.84630585,-172.5684357,8.711744308,1.880446196,-4.398537636,5.764356136,3.167062044,1.223569989
753,3570790741,151.2782593,-57.89803314,-172.4932556,8.966438293,1.974395633,-4.434594154,7.702898979,4.367254734,0.241508588
754,3570807408,151.2805786,-58.01264191,-172.3428497,8.776177406,2.40076375,-4.410948277,7.85477829,8.777961731,0.049534984
755,3570824075,151.1837463,-58.15036011,-172.2271881,8.628734589,2.688041925,-4.245773315,3.49308753,10.30897617,-0.189322755
756,3570840742,151.0278168,-58.29732513,-172.0709076,8.332913399,2.27382803,-4.225234985,0.532104075,11.01879215,-0.158126459
757,3570857409,150.8164825,-58.43030167,-171.8426666,8.360683441,2.040431261,-4.317243099,-1.135725141,10.85535908,-1.35773623
758,3570874076,150.5019379,-58.57646942,-171.5304718,8.409910202,2.237376451,-4.302331448,-2.159030437,13.05143356,-3.671435833
759,3570890743,150.1548004,-58.76089096,-171.0484772,8.377440453,2.30003643,-3.939637661,0.222484961,16.54442406,-4.616046906
760,3570907410,149.8093109,-58.92110062,-170.5569458,8.625955582,1.979938865,-3.653788567,3.678423166,16.162117,-6.986991882
761,3570924077,149.4225769,-59.0896492,-170.0661469,8.824073792,2.328011036,-4.101621151,2.108363152,16.82429886,-7.045043945
762,3570940744,148.8360596,-59.36063004,-169.4622345,8.923647881,2.096879482,-4.797024727,-1.14136219,24.63550377,-8.162100792
763,3570957411,148.2290192,-59.75814438,-168.5569458,8.265338898,2.401788712,-4.433499336,10.17760944,35.0602417,-9.956115723
764,3570974078,147.6687775,-60.02480316,-167.8134003,7.848780155,2.784619331,-3.763165951,8.685691833,26.81417656,-11.42835331
765,3570990745,146.806778,-60.43177414,-166.693573,7.233517647,2.661643982,-4.527125835,8.187012672,39.41194153,-14.69245625
766,3571007412,146.5830536,-60.70064163,-165.8023682,7.14115715,2.083869457,-4.778343678,31.30873299,27.84194565,-11.26419926
767,3571024079,146.9050293,-60.79399109,-165.2425995,8.226172447,2.997776508,-4.241973877,43.52563095,12.79102516,-7.237068653
768,3571040746,146.7905121,-61.00014114,-164.880249,8.368870735,3.042569876,-4.677654266,13.70753098,16.97424316,-1.907259464
769,3571057413,146.6278534,-61.22834396,-164.6452484,7.982910633,3.154647827,-4.08932972,3.042215109,15.73520088,2.553242445
770,3571074080,146.5255127,-61.28884506,-164.5439606,8.536951065,2.608119249,-2.695837021,-0.356637657,5.19028616,0.298311144
771,3571090747,146.8516846,-60.98952103,-164.8320618,7.965381145,1.968082547,-1.871246576,5.203649521,-18.96357346,-2.300939322
772,3571107414,147.8590088,-59.87321854,-165.9144592,9.466333389,1.400980353,-3.350536108,4.675085545,-73.0790863,-8.53752327
773,3571124081,148.8166962,-58.48525238,-167.1913452,11.36359119,3.501262665,-4.777181149,-7.830604553,-90.94033813,-9.597742081
774,3571140748,149.4427032,-57.72460556,-168.0454865,11.91867256,3.712272644,-6.448895931,-5.382926464,-52.50946045,0.495059907
775,3571157415,149.5223999,-57.90729904,-168.0575714,10.26302814,2.321260214,-5.403791904,4.746433258,9.805623055,6.56307888
776,3571174082,149.808548,-58.31494141,-168.0229034,7.968492031,2.900104284,-3.637718201,19.36224365,22.18318748,12.14334393
777,3571190749,150.9835358,-58.288311,-168.8391724,7.51682806,2.750944138,-2.829497099,29.25136757,-13.58961296,22.33295631
778,3571207416,152.4773407,-57.92596817,-169.9037933,7.44870472,1.878557324,-3.580080032,35.68799591,-34.65394211,20.25472832
779,3571224083,153.9055634,-57.56092072,-170.5904999,8.330572128,1.459889889,-4.119803905,50.87042618,-29.05645561,10.73666954
780,3571240750,154.5960693,-57.42745209,-170.9141693,8.710589409,2.093805313,-4.468075275,25.4017868,-11.26282597,6.715860844
781,3571257417,154.7314453,-57.47594833,-170.8384705,8.12075901,2.335532904,-4.294929504,12.84335518,4.277938366,-0.490579575
782,3571274084,154.5753174,-57.4564743,-170.8434448,8.528439522,1.8094244,-4.318193436,-8.988465309,-0.584040165,0.274529785
783,3571290751,154.562149,-57.52556229,-170.845108,9.245625496,1.641386509,-5.041590691,0.105972543,4.335422993,2.247360706
784,3571307418,154.4127808,-57.93288803,-170.4653625,9.294219971,1.785065532,-5.006770611,10.82965851,27.81272316,0.229400873
785,3571324085,153.9768982,-58.45948029,-169.8797607,9.056558609,2.238917589,-3.886873722,4.094747543,36.98986435,-2.158475876
786,3571340752,153.4517517,-58.93205261,-169.3582764,8.717617035,2.373081446,-3.480022669,-4.942162037,32.98070145,-0.953519523
787,3571357419,153.5101471,-59.23544312,-169.1690826,8.68075943,1.792575717,-4.005956173,13.79139805,19.39776039,3.575700283
788,3571374086,153.626297,-59.60758209,-168.8713989,8.83022213,1.624657035,-4.554479122,22.64705276,24.48975182,2.6017735
789,3571390753,153.311264,-59.99574661,-168.4132233,8.877410889,1.555057168,-4.268968105,5.264063835,27.48558807,-1.231647611
790,3571407420,152.7809753,-60.4885788,-167.7925262,8.59837532,2.28878212,-4.009371758,1.071473598,35.23751831,-2.42236352
791,3571424087,152.2179871,-60.86305237,-167.2872162,7.4858675,2.488097429,-3.611525774,-6.073793411,27.43281555,-2.507176638
792,3571440754,152.1027374,-60.79918289,-167.3033295,7.393610477,2.643687963,-4.010846615,-6.618609905,-2.988675594,-1.009761572
793,3571457421,152.3394928,-60.61030579,-167.6923828,7.848541737,2.213402271,-3.982392073,-5.450547218,-14.8169651,5.416475773
794,3571474088,152.4929657,-60.35025406,-168.0409393,7.962303638,2.452365637,-4.237885475,-8.437302589,-18.0967617,2.579100132
795,3571490755,152.6271667,-59.80852509,-168.811615,7.932472706,2.027768135,-4.369356632,-30.75184441,-38.81653595,5.786331177
796,3571507422,153.0197449,-59.15481949,-169.7289886,9.191282272,1.595880508,-5.177651405,-23.56432152,-47.19936752,7.761698246
797,3571524089,153.226944,-59.00481796,-170.1352386,9.634128571,1.740631938,-5.893649101,-6.742862225,-12.91682148,7.116712093
798,3571540756,153.1101227,-59.17523575,-170.1138458,9.054325104,2.119410992,-4.930242538,-4.187800407,10.19529343,4.040930748
799,3571557423,152.8634949,-59.32702255,-170.1226044,8.485017776,2.158126354,-3.887934446,-12.17184925,9.05496788,3.650978088
800,3571574090,152.8750763,-59.36997986,-170.2415314,8.376440048,1.831701636,-4.484699726,-4.80237627,1.181322217,5.020552158
801,3571590757,152.9272614,-59.39258575,-170.3809052,8.733067513,1.984506249,-4.676501274,-0.983828783,0.328354865,3.686923027
802,3571607424,152.8397217,-59.46705627,-170.4458771,8.50739193,1.960708618,-4.322435379,-4.063807487,4.4445467,2.282757998
803,3571624091,152.7854919,-59.53175735,-170.4692841,8.454673767,1.925538182,-4.278083324,-1.778705835,4.104409218,1.902011752
804,3571640758,152.7418213,-59.5757103,-170.3869019,8.62299633,1.887744904,-4.282719612,-0.726382554,3.408243656,1.205628157
805,3571657425,152.6837921,-59.62938309,-170.3477325,8.724766731,1.929524422,-4.326608658,0.109942511,4.152023315,0.521525741
806,3571674092,152.6373901,-59.67646408,-170.3015747,8.650251389,1.897631049,-4.350603104,1.215796471,3.900737286,0.127948239
807,3571690759,152.6355896,-59.69067001,-170.343338,8.621763229,1.979079485,-4.208206177,2.37355423,1.559838772,-0.042036835
808,3571707426,152.6343536,-59.68852615,-170.3224335,8.595801353,2.098901033,-4.132435322,1.774050713,0.748582363,-0.098269522
809,3571724093,152.6226044,-59.68715286,-170.2751312,8.698166847,2.11935854,-4.124774933,1.379102945,0.924272656,-0.177002952
810,3571740760,152.5875854,-59.70883179,-170.151947,8.709841728,2.079827785,-4.025550365,1.686698556,2.745143414,-0.383927912
811,3571757427,152.579483,-59.72579193,-170.1051483,8.679607391,2.0955019,-3.964886665,2.925738573,2.168934822,-0.381149024
812,3571774094,152.5966644,-59.72948456,-170.0932159,8.666686058,2.134748936,-3.985836744,2.766196966,1.005259991,0.116806708
813,3571790761,152.6069641,-59.71418762,-169.9853363,8.729449272,2.152306557,-3.94529891,0.745713711,-0.038194936,0.541746974
814,3571807428,152.632782,-59.70742416,-170.131012,8.801646233,2.138759375,-3.941430807,0.967058778,-0.546709478,0.923837304
815,3571824095,152.6591492,-59.71670151,-170.0892181,8.87136364,2.066493511,-4.072490215,2.06906414,1.129795313,0.965016007
816,3571840762,152.6699066,-59.74664307,-169.9985199,8.716417313,1.936149836,-3.968188047,2.791836023,2.730877399,0.690608084
817,3571857429,152.699707,-59.76929092,-169.9761353,8.654531479,1.895854115,-3.952370405,4.021578789,2.13316679,0.377006203
818,3571874096,152.7188416,-59.77595901,-169.970932,8.702059746,1.90581882,-4.013674259,3.354918003,1.218754768,-0.065523691
819,3571890763,152.7218018,-59.76917648,-169.853302,8.703417778,1.933363795,-3.965719938,2.150993109,0.804136395,-0.215985507
820,3571907430,152.7379761,-59.73609924,-169.9005432,8.676504135,1.972906709,-3.973134041,1.942620873,-1.336054564,-0.551998496
821,3571924097,152.813858,-59.67082214,-169.9130859,8.701376915,2.014271259,-4.019431114,3.683465242,-3.31418705,-0.414227784
822,3571940764,152.8787231,-59.61414337,-169.894043,8.806870461,2.039772749,-4.036166191,4.076600075,-2.530124426,-0.709561408
823,3571957431,152.8954468,-59.61709595,-169.8934021,8.878240585,1.993414164,-4.065342903,4.776538372,1.313547373,-1.030110836
824,3571974098,152.8814545,-59.6464386,-169.7943115,8.874180794,2.006803036,-4.030254841,4.742909431,3.416350603,-1.194454908
825,3571990765,152.8463287,-59.69848251,-169.6227417,8.879061699,1.957778215,-4.126746655,4.775386333,5.130096436,-1.203944445
826,3572007432,152.8306885,-59.73102951,-169.4385376,8.862722397,1.939435124,-4.031319618,6.179078102,4.159631252,-1.854519725
827,3572024099,152.7721558,-59.751194,-169.2655334,8.736351013,2.023490906,-4.160980701,3.662910938,3.483878136,-2.225788832
828,3572040766,152.7097778,-59.78887939,-168.8361969,8.66075325,2.114902496,-4.128713608,4.393807411,5.486227512,-2.032873631
829,3572057433,152.6981812,-59.83730698,-168.8679657,8.56666851,2.158176422,-3.895972252,6.083797932,4.221588612,-1.391736627
830,3572074100,152.7234039,-59.84465027,-168.8196869,8.663470268,2.216624022,-3.949577093,5.335817337,1.695445657,-0.881006479
831,3572090767,152.6913605,-59.85568619,-168.6837311,8.799015999,2.24403429,-4.116201401,1.899341822,2.178571463,-0.707320333
832,3572107434,152.6216431,-59.89987183,-168.546875,8.777984619,2.250979662,-4.090741634,0.927147686,4.213346958,-0.470454097
833,3572124101,152.585083,-59.92482758,-168.5263977,8.622913361,2.233444214,-4.023300648,1.056408525,2.414240122,-0.103814669
834,3572140768,152.538208,-59.92484283,-168.5547485,8.609646797,2.219371319,-4.057889462,-1.226163268,0.601578295,0.05662968
835,3572157435,152.5151672,-59.92643356,-168.4956055,8.754447937,2.080688715,-4.187283516,-0.284268916,0.879117429,0.426861256
836,3572174102,152.4264526,-59.97939682,-168.4661865,8.71177578,2.034584999,-3.981069803,-1.488949418,4.057832718,0.38077119
837,3572190769,152.3624725,-60.00007248,-168.6723633,8.63149929,2.013554811,-4.004137516,-1.985528588,1.101525426,0.332785815
838,3572207436,152.3556519,-60.03045654,-168.9067383,8.731683731,1.863148212,-4.289081097,0.600925207,1.342387319,1.016593814
839,3572224103,152.4176025,-60.03329849,-168.927597,8.766731262,1.85548985,-4.34281683,3.539829016,0.388390988,1.057253838
840,3572240770,152.3592987,-60.0524025,-168.9045105,9.019635201,1.6995157,-4.386871338,-0.253162324,2.10991025,-0.253623337
841,3572257437,152.174118,-60.15045929,-168.731781,8.685189247,1.886305809,-4.302341938,-1.488335252,8.100723267,-1.272599459
842,3572274104,152.0861664,-60.23252869,-168.604538,8.563386917,2.257641077,-3.928188562,1.840810537,6.59002018,-0.415777385
843,3572290771,152.1251068,-60.28035355,-168.5341492,8.68253994,2.185608149,-3.902695894,5.376157284,3.739966631,0.709932864
844,3572307438,152.1409149,-60.31297684,-168.433548,8.681207657,2.130057335,-3.985609293,3.835450411,3.002346277,0.386918247
845,3572324105,152.1476288,-60.32513809,-168.3623657,8.695260048,2.165177345,-4.00173521,3.650167942,1.899309516,-0.393199742
846,3572340772,152.1614227,-60.32119751,-168.3546295,8.752638817,2.193419695,-4.127252102,3.001424313,0.613539398,-0.335315108
847,3572357439,152.1340942,-60.32829666,-168.4621887,8.73045826,2.154032707,-4.111662865,1.902806044,1.068830848,-0.831420243
848,3572374106,152.1290436,-60.35103989,-168.4083099,8.738008499,2.169089556,-4.162550449,4.223341465,2.632434845,-0.778337896
849,3572390773,152.1103516,-60.39238358,-168.3578949,8.702989578,2.130833149,-4.09546423,5.039875507,3.935494423,-1.10084033
850,3572407440,152.0838165,-60.42750549,-168.2468262,8.73207283,2.064883947,-4.044100761,5.250360489,3.955228567,-1.571127892
851,3572424107,152.0817108,-60.46154404,-168.1762238,8.757237434,2.013269663,-4.059424877,7.035631657,3.811068535,-1.797698379
852,3572440774,152.1226807,-60.48373032,-168.0391235,8.720420837,1.942220211,-4.06303072,9.569228172,3.414212704,-2.04167223
853,3572457441,152.1647644,-60.50170898,-167.8654022,8.709299088,2.011359692,-4.022294998,9.853580475,3.371400595,-2.242130041
854,3572474108,152.1941681,-60.51591492,-167.7542572,8.763432503,2.156738997,-4.000751019,8.519668579,2.831459045,-2.100657701
855,3572490775,152.2180023,-60.534832,-167.6853027,8.776568413,2.176118851,-4.032902718,7.862062454,2.831100225,-1.843711138
856,3572507442,152.230011,-60.56130219,-167.639267,8.75742054,2.156960487,-4.026683807,7.114889145,3.141602755,-1.627949834
857,3572524109,152.2452393,-60.58587646,-167.5757751,8.713891983,2.152015448,-4.034842968,6.690282822,2.998914957,-1.341856122
858,3572540776,152.2706909,-60.6068573,-167.4802856,8.699847221,2.122922182,-3.997690678,6.259616852,2.723001719,-0.875973701
859,3572557443,152.3095551,-60.61541748,-167.3902588,8.700349808,2.143642187,-3.999320745,5.485753059,1.735273123,-0.418031275
860,3572574110,152.3361969,-60.62235641,-167.3814087,8.743238449,2.116375923,-4.03096056,3.875868082,1.179554701,-0.07542301
861,3572590777,152.3534393,-60.62319565,-167.2996826,8.741494179,2.08972168,-4.001710415,2.557658434,0.963498592,0.192658737
862,3572607444,152.3810883,-60.6205864,-167.2960968,8.731107712,2.094279051,-3.985677004,2.306090593,0.334565908,0.490035027
863,3572624111,152.401474,-60.61177444,-167.2850037,8.728108406,2.129092455,-3.994049311,1.105853915,-0.10918054,0.716656208
864,3572640778,152.414978,-60.59289551,-167.1911774,8.747190475,2.144052505,-4.023680687,0.250172019,-0.421732277,0.724954605
865,3572657445,152.4242706,-60.58707047,-167.2028351,8.740918159,2.136684895,-4.053087711,-0.28187415,-0.164299071,1.156925678
866,3572674112,152.4380341,-60.57575989,-167.2349701,8.714332581,2.068446636,-4.036812782,-0.442683548,-0.631321013,1.206614256
867,3572690779,152.4382324,-60.55896378,-167.2776794,8.716680527,2.029020548,-4.043789864,-1.452989221,-0.989476264,1.149754047
868,3572707446,152.462677,-60.53653336,-167.356842,8.748008728,2.043103456,-4.008833408,-0.28638199,-1.493598104,1.11143744
869,3572724113,152.4578247,-60.52384186,-167.4466705,8.78082943,1.99862206,-4.069112301,-1.501038551,-0.911703169,1.094827533
870,3572740780,152.45401,-60.51100159,-167.4072876,8.75297451,2.034304142,-4.073564529,-0.857263505,-0.319179088,0.888709486
871,3572757447,152.4510956,-60.50439072,-167.4133606,8.772084236,2.020883322,-4.076332092,-0.321829945,-0.064025342,0.779176652
872,3572774114,152.4385071,-60.50167465,-167.4168243,8.786842346,2.059533834,-4.044262409,-0.746629357,0.170401275,0.804379582
873,3572790781,152.4111481,-60.50419235,-167.3912201,8.756843567,2.068432331,-4.077353001,-1.050242305,0.667556584,0.671782732
874,3572807448,152.3953094,-60.50183105,-167.2824097,8.716755867,2.068184137,-4.052017689,-0.60096997,0.67349869,0.721778691
875,3572824115,152.3793945,-60.50935745,-167.2973328,8.736561775,2.065104723,-4.044117451,-0.221133634,0.809578955,0.707358599
876,3572840782,152.3733368,-60.51654816,-167.3487549,8.75371933,2.055848122,-4.030890465,0.45622617,0.679927528,0.627844095
877,3572857449,152.3740234,-60.520401,-167.3278961,8.724524498,2.067576647,-4.072860718,1.018591404,0.802599609,0.505966067
878,3572874116,152.367691,-60.52386475,-167.3284912,8.734836578,2.055199385,-4.077326775,0.541004241,0.682488799,0.505594671
879,3572890783,152.3579102,-60.53017426,-167.3524933,8.750286102,2.062015772,-4.048213482,0.992901921,0.860356152,0.224764273
880,3572907450,152.3632507,-60.5334549,-167.2854462,8.747777939,2.039983749,-4.048413277,1.895032644,1.046419621,0.214147791
881,3572924117,152.3699036,-60.5414505,-167.2928162,8.753121376,2.028639317,-4.039022446,2.383197784,1.09682548,0.078899927
882,3572940784,152.3676147,-60.54914093,-167.2484131,8.781496048,2.032582521,-4.028803825,2.295704842,1.361468673,-0.121602699
883,3572957451,152.361557,-60.56031799,-167.2207642,8.771861076,1.995821476,-4.030538082,2.308293343,1.532164574,-0.161020651
884,3572974118,152.363327,-60.56814575,-167.1568604,8.77137661,2.01906395,-4.03441906,2.678268671,1.479300022,-0.173570871
885,3572990785,152.3537292,-60.57915497,-167.0902252,8.76666069,2.039580584,-4.026648521,2.415789604,1.711901546,-0.30575797
886,3573007452,152.3415527,-60.58842468,-167.1104889,8.763931274,2.056847095,-3.999530315,2.293617249,1.297116876,-0.432374418
887,3573024119,152.3298645,-60.59237289,-167.0736389,8.763432503,2.073589802,-3.976168394,2.218994379,1.217448235,-0.48655799
888,3573040786,152.3187866,-60.59815598,-167.0115814,8.768425941,2.077312946,-3.962254524,2.196455479,1.418879509,-0.379496962
889,3573057453,152.3031006,-60.61299896,-167.0138397,8.786764145,2.079842567,-3.956559896,2.2229774,1.695637703,-0.333919197
890,3573074120,152.2962799,-60.6267395,-166.9666443,8.789280891,2.069164276,-3.978099346,2.414381266,1.757377028,-0.154450983
891,3573090787,152.2789917,-60.64414978,-166.9541473,8.80120945,2.085275888,-3.96229744,1.93840754,1.846304297,-0.154527828
892,3573107454,152.2588196,-60.65699768,-166.8608246,8.783226967,2.065451384,-3.957894564,1.692647099,1.895346165,-0.184219345
893,3573124121,152.2384338,-60.6638298,-166.7381134,8.805487633,2.068832159,-3.958739996,1.457894206,1.667303681,-0.211727396
894,3573140788,152.2097473,-60.68125916,-166.7289276,8.781845093,2.072340488,-3.977033138,1.471065402,1.861876965,-0.263881236
895,3573157455,152.1831207,-60.70355225,-166.6918793,8.758749008,2.080204487,-3.92143631,1.777790189,2.275470495,-0.198261485
896,3573174122,152.1704712,-60.73101807,-166.6447449,8.784189224,2.070586443,-3.914209366,2.613609791,2.584334135,-0.041614234
897,3573190789,152.1506042,-60.75419235,-166.4899139,8.797869682,2.089186668,-3.938525915,2.201449871,2.774418831,-0.094261132
898,3573207456,152.1175537,-60.78738785,-166.3601379,8.803050995,2.100270033,-3.94417119,2.022263765,3.323683739,-0.141093999
899,3573224123,152.0873871,-60.82687759,-166.3076782,8.76600647,2.106135368,-3.969988108,2.472585917,3.413468361,-0.153119117
900,3573240790,152.0615082,-60.85513687,-166.1714172,8.795603752,2.130908966,-3.964919567,2.132449627,3.019481421,-0.107874297
901,3573257457,152.0367126,-60.88339996,-166.1389771,8.813211441,2.13313508,-3.920281649,2.087229967,2.595155478,-0.119899452
902,3573274124,152.0056458,-60.91318512,-166.0797272,8.790884018,2.126667023,-3.868340969,1.29451704,2.721912622,0.159349412
903,3573290791,151.9638672,-60.94827271,-166.0079498,8.805334091,2.068019867,-3.906090736,0.897763371,3.070834398,0.192620292
904,3573307458,151.9193268,-60.99180603,-165.9190369,8.815438271,2.107355595,-3.903876781,1.394189,3.700818062,0.111632973
905,3573324125,151.8775024,-61.03805542,-165.8253479,8.811864853,2.122476339,-3.93522644,1.811752677,3.910201073,0.06975618
906,3573340792,151.8323517,-61.09249878,-165.80159,8.828670502,2.144294024,-3.925919294,1.78306663,4.097225189,0.174691424
907,3573357459,151.790329,-61.14818573,-165.8365631,8.840159416,2.103528023,-3.865149021,1.603918552,3.856734753,0.357233107
908,3573374126,151.7462769,-61.19839478,-165.7835541,8.853999138,2.071347952,-3.84817028,1.610654593,3.951475859,0.208602607
909,3573390793,151.70755,-61.2428093,-165.5876312,8.845151901,2.063466787,-3.880322695,2.134268045,4.237532139,0.047152981
910,3573407460,151.6568604,-61.30226517,-165.4937897,8.826496124,2.051812649,-3.889504433,1.918327332,4.71406889,0.162730306
911,3573424127,151.6009064,-61.37055588,-165.4347229,8.809803963,2.06012702,-3.86128068,2.102905035,5.134207249,0.151345462
912,3573440794,151.5379181,-61.43264771,-165.3482361,8.828054428,2.079203367,-3.84585619,1.512455583,4.874724865,0.087518603
913,3573457461,151.4595795,-61.49554825,-165.2678375,8.815255165,2.069927454,-3.844879866,0.588631034,4.912579536,0.121993273
914,3573474128,151.3964233,-61.55878067,-165.238266,8.807902336,2.059832811,-3.854861021,1.582314134,4.698214531,0.05883237
915,3573490795,151.3393097,-61.6124382,-165.0204926,8.824044228,2.110649347,-3.825068951,1.472461343,4.851878166,0.15563558
916,3573507462,151.2801514,-61.67538452,-164.9687653,8.835003853,2.091621876,-3.833567619,1.3526963,4.693206787,0.318724424
917,3573524129,151.2204132,-61.73555374,-164.8743896,8.861305237,2.072037935,-3.824329376,1.206921697,4.702466011,0.333810329
918,3573540796,151.1589661,-61.78735352,-164.7715302,8.851941109,2.046092987,-3.854271412,0.922454178,4.272941113,0.195745066
919,3573557463,151.1054993,-61.83885193,-164.7246552,8.834507942,2.018203735,-3.845994473,1.547583342,4.047600746,0.085495196
920,3573574130,151.0708771,-61.88034058,-164.6529388,8.826877594,2.101084709,-3.82725668,2.025977612,3.485581636,0.127410397
921,3573590797,151.039032,-61.91794586,-164.671463,8.845721245,2.104258776,-3.788722277,1.643029094,2.811582804,0.220435694
922,3573607464,151.0235596,-61.9437294,-164.6143341,8.853900909,2.07604599,-3.771242857,1.916534424,2.360581636,0.272122145
923,3573624131,151.0119781,-61.97077179,-164.5879517,8.863904953,2.067221642,-3.762330055,2.301915646,2.347134829,0.217964068
924,3573640798,150.991333,-62.00018311,-164.5350494,8.877081871,2.042844057,-3.750119925,1.950624824,2.612840891,0.214775294
925,3573657465,150.9689636,-62.02389526,-164.4809418,8.85904026,2.05433917,-3.770105362,1.323843479,2.217560291,0.301704764
926,3573674132,150.9488983,-62.03856277,-164.473053,8.85820961,2.0400877,-3.757297039,0.992517769,1.474958658,0.230514303
927,3573690799,150.9350739,-62.05127335,-164.4894409,8.891224861,2.052102566,-3.782494783,1.305043936,1.234801173,0.181120217
928,3573707466,150.9152222,-62.0687027,-164.4499207,8.902259827,2.066158295,-3.717532873,1.278137684,1.776023149,0.199996769
929,3573724133,150.8962555,-62.08652878,-164.480072,8.866319656,2.027332306,-3.694502592,1.446221232,1.522969723,0.106638484
930,3573740800,150.8894043,-62.0943985,-164.4297791,8.879825592,2.061156988,-3.752611876,1.850402474,1.271388769,0.028417293
931,3573757467,150.8773651,-62.10599518,-164.4315643,8.889126778,2.082849026,-3.781625271,1.685174942,1.304378152,0.033603866
932,3573774134,150.8695679,-62.11505127,-164.4090118,8.879012108,2.083035946,-3.73730135,2.045084476,1.30469811,-0.070057139
933,3573790801,150.8618927,-62.12414169,-164.4716339,8.882769585,2.078747511,-3.741385698,1.853065729,0.890463889,-0.040051855
934,3573807468,150.8592682,-62.12379456,-164.4999542,8.886138916,2.0589118,-3.7295506,1.67624867,0.445622534,-0.064153403
935,3573824135,150.8685608,-62.11727142,-164.503006,8.884132385,2.046970129,-3.674700737,2.182240486,0.208372131,-0.124970786
936,3573840802,150.858551,-62.12857437,-164.5023499,8.900935173,2.040747404,-3.687572718,1.628660083,1.268456101,0.110659666
937,3573857469,150.8502808,-62.13661575,-164.4568939,8.865818977,2.048864126,-3.693022966,1.878845096,1.306657553,-0.023326768
938,3573874136,150.8583069,-62.1409111,-164.4381714,8.892181396,2.069995403,-3.74038434,2.581516743,0.948335826,-0.020330081
939,3573890803,150.8625641,-62.14582062,-164.4428253,8.92395401,2.082826138,-3.739300966,2.468667269,0.894497871,-0.076383464
940,3573907470,150.8630829,-62.15058899,-164.4717255,8.914111137,2.097637892,-3.746253014,2.203306913,0.737825036,-0.081518821
941,3573924137,150.8587494,-62.15851212,-164.5369568,8.917815208,2.081409216,-3.711080074,2.156435728,0.811397552,-0.133448571
942,3573940804,150.8590088,-62.16187286,-164.5088806,8.906371117,2.075054169,-3.709269047,2.431067705,0.991966963,-0.191704646
943,3573957471,150.8588562,-62.17194748,-164.5596161,8.876484871,2.076220989,-3.705534458,2.625391245,1.014954448,-0.166117564
944,3573974138,150.8570251,-62.17636871,-164.4700623,8.897483826,2.096144915,-3.705339909,2.573333263,1.31733799,-0.247015268
945,3573990805,150.8518829,-62.18983078,-164.4627686,8.896139145,2.093001127,-3.688595057,2.466938496,1.470348239,-0.086871877
946,3574007472,150.8433533,-62.20361328,-164.5167084,8.884542465,2.081520796,-3.66919589,2.377089262,1.259773493,-0.176490724
947,3574024139,150.855484,-62.19284821,-164.3866577,8.935673714,2.080142975,-3.693832397,2.620345831,0.559227705,-0.282873064
948,3574040806,150.8527527,-62.19159317,-164.4035034,8.918974876,2.081969023,-3.713269711,2.54455781,0.574505687,-0.50481993
949,3574057473,150.8605499,-62.18644333,-164.3717957,8.890582085,2.087922812,-3.688105106,2.912151337,0.552914143,-0.452570051
950,3574074140,150.8755951,-62.18069839,-164.3402405,8.883477211,2.079711676,-3.690546989,3.095768929,0.486666977,-0.351284623
951,3574090807,150.8857727,-62.17435074,-164.3294525,8.935020447,2.097424269,-3.68846035,2.973263025,0.37499553,-0.467668712
952,3574107474,150.8889008,-62.16636658,-164.2862244,8.945212364,2.089887619,-3.697492599,2.468513489,0.41159603,-0.451545477
953,3574124141,150.8940735,-62.15731812,-164.2316589,8.904416084,2.053267956,-3.716352701,2.50303936,0.375161976,-0.434051991
954,3574140808,150.9056549,-62.14550781,-164.2395782,8.881360054,2.072464705,-3.695736647,2.628695488,-0.026349064,-0.431785315
