PacketCounter,SampleTimeFine,Euler_X,Euler_Y,Euler_Z,Acc_X,Acc_Y,Acc_Z,Gyr_X,Gyr_Y,Gyr_Z
0,2095620619,-151.3630524,-19.73488617,138.2532806,0,0,0,0,0,0
1,2095637286,-151.1787567,-19.71627998,138.1459503,3.338516235,-4.49983263,-7.995211124,1.622096896,0.44319573,-0.806377351
2,2095653953,-151.0189362,-19.75368309,138.1358948,3.3257792,-4.42341423,-7.782439232,1.23457706,0.065882273,-1.196382165
3,2095670620,-150.8804321,-19.82846642,138.1078949,3.297661304,-4.330073357,-7.831441879,1.272381425,-0.297914118,-1.07970345
4,2095687287,-150.7943573,-19.89054298,138.0883789,3.288892984,-4.260378361,-7.823041916,2.528748035,-0.267383754,-0.675406814
5,2095703954,-150.7594452,-19.94124222,138.0085449,3.288269043,-4.301534653,-7.932666779,2.358859301,-0.025894443,-0.19546333
6,2095720621,-150.7535248,-19.97227478,137.9384766,3.27028513,-4.470458031,-8.01646328,2.176983356,-0.140011832,-0.246944845
7,2095737288,-150.7453918,-19.97821426,137.9135132,3.276360989,-4.431416035,-8.011267662,1.86655736,-0.424095064,-0.392322481
8,2095753955,-150.7368469,-19.97497749,137.9003601,3.351811409,-4.370214462,-8.016007423,1.878070235,-0.437375247,-0.467687875
9,2095770622,-150.7340546,-19.97412872,137.9087067,3.324602365,-4.295320511,-7.987949848,1.847783208,-0.497974843,-0.443752795
10,2095787289,-150.7401123,-19.97283173,137.9122314,3.332149029,-4.277355671,-7.946269035,1.683093667,-0.545243144,-0.291165143
11,2095803956,-150.7440796,-19.9732399,137.9107056,3.326571703,-4.309382439,-7.973474979,1.897804737,-0.48715353,-0.123350747
12,2095820623,-150.7457886,-19.96981621,137.8927765,3.274127245,-4.343165874,-7.998943806,1.981596947,-0.644569159,0.085322306
13,2095837290,-150.7402496,-19.95823097,137.8896179,3.318911791,-4.316854954,-7.855363369,2.268715382,-0.84836942,0.323648483
14,2095853957,-150.7506104,-19.95469856,137.8916931,3.28148365,-4.470109463,-7.945124149,1.085639119,-0.529683411,0.126187369
15,2095870624,-150.7553864,-19.94318581,137.9241486,3.288109779,-4.440697193,-7.98960638,1.090915322,-0.932135761,0.119630508
16,2095887291,-150.7339935,-19.92362976,137.9322357,3.38272953,-4.32150507,-7.973971367,2.369962215,-1.144042492,0.53691262
17,2095903958,-150.7208099,-19.91086388,137.9269867,3.356606007,-4.358677864,-8.116558075,1.714161873,-0.642981172,0.885117233
18,2095920625,-150.709198,-19.89599228,137.9102783,3.344737768,-4.315509319,-8.076190948,1.619317889,-0.636116982,1.126952171
19,2095937292,-150.6982117,-19.88102341,137.8919525,3.342155695,-4.344696522,-7.950926781,1.597304106,-0.559125304,1.280654311
20,2095953959,-150.6829834,-19.87319756,137.8717346,3.314126015,-4.470630169,-7.945965767,1.787965059,-0.229028791,1.078710914
21,2095970626,-150.6546021,-19.86467743,137.862381,3.338671684,-4.356582642,-7.9320364,2.410827637,-0.286670178,1.016869187
22,2095987293,-150.6383057,-19.8612442,137.8578339,3.356492758,-4.400728703,-7.90195322,1.732564569,-0.181478783,0.645753801
23,2096003960,-150.6197968,-19.85884094,137.8403625,3.384969711,-4.517483711,-8.007115364,1.668929935,-0.02262882,0.88336277
24,2096020627,-150.5632019,-19.85342216,137.8152618,3.382903576,-4.363618374,-7.96198225,3.709455252,-0.024793094,1.266989827
25,2096037294,-150.5209961,-19.84376335,137.7689362,3.399397373,-4.37309742,-7.880237579,2.839109898,-0.269189477,1.425468206
26,2096053961,-150.4906616,-19.83687782,137.743866,3.403398514,-4.428267479,-7.925223351,2.084259033,-0.168224216,1.382214904
27,2096070628,-150.4537048,-19.83213043,137.7204132,3.358048201,-4.448766232,-7.975059509,2.240003347,0.18572408,1.807955742
28,2096087295,-150.4104462,-19.82689285,137.6915131,3.360274553,-4.339396477,-7.888531685,2.656875849,0.071606711,1.640333295
29,2096103962,-150.3844604,-19.8285408,137.6522064,3.396459341,-4.36631012,-7.838563919,1.560767531,0.51626879,1.610072136
30,2096120629,-150.3660278,-19.83177185,137.6129608,3.366396666,-4.374353886,-7.853814125,0.979384899,0.711744964,1.834464788
31,2096137296,-150.3383484,-19.8291893,137.5753937,3.399265289,-4.513271332,-7.894927502,1.526497602,0.389959693,1.990804672
32,2096153963,-150.3119812,-19.82757187,137.5397644,3.407618999,-4.55268383,-7.932527542,1.339102268,0.495983541,2.068718433
33,2096170630,-150.2972717,-19.83141327,137.5320282,3.4229877,-4.525140285,-7.912671089,0.684979618,0.635508657,1.646749258
34,2096187297,-150.2926331,-19.83772087,137.5114136,3.47031188,-4.508470058,-7.873635292,0.037733909,0.754582107,1.571588635
35,2096203964,-150.3040161,-19.84404564,137.4732819,3.463153601,-4.41199398,-7.922824383,-1.036469102,0.826643527,1.756947994
36,2096220631,-150.3372192,-19.83811378,137.4219971,3.414621592,-4.359956264,-7.853906631,-2.428724051,0.293041289,2.347871065
37,2096237298,-150.4129028,-19.83024979,137.3810425,3.499287844,-4.331218243,-7.83596611,-5.052233219,0.293092549,2.612463474
38,2096253965,-150.5075531,-19.81282806,137.3606873,3.432065964,-4.394786358,-7.893967152,-6.135510921,-0.303536177,2.808823586
39,2096270632,-150.6204376,-19.78191566,137.3538361,3.372274399,-4.323581696,-7.923102856,-7.021773815,-1.309526324,2.691978455
40,2096287299,-150.755722,-19.7408905,137.3468933,3.406667948,-4.284906864,-7.828493595,-8.10299015,-2.170267344,2.380925179
41,2096303966,-150.8886261,-19.70633316,137.335968,3.345804214,-4.466417789,-7.882585526,-7.892311096,-1.936192393,2.031247377
42,2096320633,-150.9125824,-19.65750313,137.3153076,3.353999853,-4.454978466,-7.957706451,-1.482053638,-2.559836149,2.636206627
43,2096337300,-150.8282623,-19.60327911,137.2834778,3.383942604,-4.28964901,-7.895460129,4.668600559,-2.390830517,3.564078093
44,2096353967,-150.7487946,-19.54849243,137.2604523,3.365760565,-4.220364571,-7.926794529,4.550640583,-2.645817518,3.179387808
45,2096370634,-150.6781158,-19.47582817,137.2383575,3.279501915,-4.183959007,-7.99698925,4.199221611,-3.783623457,3.344948292
46,2096387301,-150.6200714,-19.38191605,137.2371979,3.255077124,-3.907281876,-7.798280239,3.552078247,-4.960796356,3.809178591
47,2096403968,-150.6240387,-19.29607201,137.227478,3.2724967,-4.159876823,-7.972044468,0.013081687,-4.689787865,3.310242891
48,2096420635,-150.6348419,-19.20949173,137.2259216,3.20562315,-4.384377956,-8.134697914,-0.08416333,-5.101179123,2.6517663
49,2096437302,-150.6064911,-19.10746384,137.2342224,3.202037334,-4.085363865,-8.170763969,2.467111826,-6.156270027,2.590872288
50,2096453969,-150.5774841,-19.05277252,137.2471313,3.284134388,-4.31282711,-8.511304855,2.473207235,-3.513716698,1.446855068
51,2096470636,-150.5246735,-18.98052025,137.2756042,3.265624046,-4.242124557,-7.972751141,4.304708004,-4.905254841,1.06639123
52,2096487303,-150.4788666,-18.92590332,137.301651,3.2651124,-4.279802799,-8.065956116,3.836802006,-3.901992321,0.697670758
53,2096503970,-150.4220428,-18.88023376,137.3244171,3.274036646,-4.225814819,-8.039052963,4.527909756,-3.461825609,0.386297166
54,2096520637,-150.4208984,-18.84033585,137.3453979,3.342289925,-4.490047932,-7.953990459,1.246691704,-3.220796824,0.115775801
55,2096537304,-150.4693756,-18.80226135,137.3849335,3.407341719,-4.472663403,-7.905035019,-1.430520773,-3.612262011,-0.77109611
56,2096553971,-150.5444794,-18.77116966,137.4440002,3.310871601,-4.379205704,-7.938698292,-2.735653877,-3.740081787,-1.800419092
57,2096570638,-150.5741425,-18.75451469,137.5095062,3.484120607,-4.346380711,-8.117092133,-0.157966316,-2.795280457,-1.875502706
58,2096587305,-150.4739532,-18.74518776,137.5303497,3.429462671,-4.40460825,-8.323643684,6.96345377,-1.458688259,-0.341743916
59,2096603972,-150.4110718,-18.74437714,137.5342255,3.534295559,-4.236330032,-7.943858147,4.501067162,-0.678775012,0.022084553
60,2096620639,-150.40802,-18.75368309,137.5196533,3.49652195,-4.347226143,-8.043025017,0.676745236,0.167372599,0.370686203
61,2096637306,-150.3699036,-18.76476479,137.4976654,3.334002495,-4.233834743,-8.205878258,2.592844009,0.510634005,0.818332255
62,2096653973,-150.3237,-18.77010727,137.4905548,3.299196005,-4.324577808,-7.984102249,3.232188463,0.032867495,0.674772978
63,2096670640,-150.3201141,-18.78267288,137.4900818,3.299861431,-4.419586182,-7.911242962,0.834160745,0.174159944,0.05410042
64,2096687307,-150.328064,-18.79885674,137.4970703,3.267762899,-4.521781445,-7.999897003,0.280324548,0.140197501,-0.436491609
65,2096703974,-150.3100128,-18.80803299,137.5048218,3.288233519,-4.44404459,-8.047158241,1.918858647,-0.362816691,-0.482492
66,2096720641,-150.2731628,-18.80890083,137.5043945,3.267008305,-4.182135105,-7.976819515,2.954674721,-0.670207441,-0.019363202
67,2096737308,-150.244873,-18.81415939,137.4987335,3.261249781,-4.20976162,-7.95789814,2.282981634,-0.179993242,0.309100479
68,2096753975,-150.2396698,-18.80776405,137.5050049,3.234208584,-4.349679947,-7.936143398,1.055685043,-0.997063994,0.292618692
69,2096770642,-150.2220001,-18.80205536,137.5086212,3.293779373,-4.369820118,-7.937091827,1.698621154,-0.806454182,0.536688447
70,2096787309,-150.1873169,-18.79390144,137.5058746,3.259231806,-4.420016766,-8.059755325,2.647923946,-0.834961176,0.789044023
71,2096803976,-150.1502838,-18.78253746,137.4953766,3.283810616,-4.252038002,-8.022824287,2.692439318,-0.857282698,1.126581073
72,2096820643,-150.1335144,-18.77888298,137.4714355,3.277807713,-4.212799072,-7.970856667,1.368467212,-0.273889393,1.218043923
73,2096837310,-150.1114807,-18.77692223,137.4516754,3.274806261,-4.303473949,-8.056567192,1.635479689,-0.095343277,1.335631728
74,2096853977,-150.0713959,-18.77095795,137.4326477,3.29572916,-4.249615669,-7.971858978,2.651458979,-0.184513912,1.658352137
75,2096870644,-150.0489502,-18.76959801,137.4071045,3.339894533,-4.273599148,-7.972579479,1.491600394,0.219584092,1.81896925
76,2096887311,-150.0375977,-18.77131081,137.3769379,3.311333418,-4.430169582,-8.052916527,0.819913566,0.396382093,1.775600076
77,2096903978,-150.020813,-18.76667595,137.3535919,3.306149483,-4.391205311,-7.997693539,1.263481021,-0.106612869,1.668865919
78,2096920645,-150.0078735,-18.7656517,137.3233948,3.351282597,-4.410448551,-7.990322113,1.020608425,0.098256715,1.597265601
79,2096937312,-149.9849243,-18.76100349,137.297821,3.2506423,-4.373344421,-8.015145302,1.717235565,-0.23677659,1.469009995
80,2096953979,-149.9508972,-18.74762726,137.280838,3.294405937,-4.179558277,-7.893761158,2.39593339,-0.700789094,1.70696497
81,2096970646,-149.9292755,-18.74427414,137.2567291,3.27616477,-4.360974789,-8.018751144,1.519217253,0.034538727,1.795783162
82,2096987313,-149.893631,-18.7381897,137.2351379,3.261373997,-4.39884901,-8.048130035,2.406998396,-0.166380093,1.779897094
83,2097003980,-149.864563,-18.73785591,137.2137451,3.347122431,-4.326209545,-8.002024651,2.059075356,0.071068838,1.497235417
84,2097020647,-149.8424225,-18.74110603,137.1902466,3.301353693,-4.436175823,-8.067721367,1.708437562,0.172405496,1.262610197
85,2097037314,-149.8132935,-18.73951912,137.1745758,3.330533981,-4.367990494,-7.951770782,2.264002323,-0.273748517,1.074331045
86,2097053981,-149.7930145,-18.74314499,137.1615448,3.385914326,-4.393200397,-8.004130363,1.691468835,0.057545327,1.03999722
87,2097070648,-149.7453766,-18.74520493,137.1428986,3.288713217,-4.347996712,-8.049968719,3.183120251,0.199458897,1.491401792
88,2097087315,-149.6976624,-18.74467087,137.1148529,3.358608484,-4.214624882,-7.967301846,3.076680899,0.247040898,1.885318995
89,2097103982,-149.6732025,-18.74942589,137.0800934,3.327580929,-4.280032158,-7.992344379,1.583031416,0.686766088,2.031957865
90,2097120649,-149.6526337,-18.74741554,137.0393219,3.325364351,-4.329009533,-7.925181389,1.371252656,0.322630405,2.230289698
91,2097137316,-149.6225891,-18.73616791,136.9973602,3.366760015,-4.326094627,-7.967401505,1.837147355,0.003483327,2.79670167
92,2097153983,-149.5941467,-18.71586418,136.9555817,3.314436674,-4.333226204,-8.033958435,1.705505013,-0.402004182,3.202529192
93,2097170650,-149.5935059,-18.69534302,136.924469,3.298222303,-4.4333148,-8.025774956,0.232851475,-0.686305106,2.754472971
94,2097187317,-149.6063385,-18.67303848,136.9013214,3.329467773,-4.428454399,-8.004887581,-0.419177443,-1.003902555,2.432444572
95,2097203984,-149.6072083,-18.64605713,136.8791351,3.309633255,-4.308945656,-7.950678825,0.407837421,-1.408467889,2.310937881
96,2097220651,-149.6175232,-18.61012459,136.8638458,3.315057278,-4.261284828,-7.747277737,0.01316493,-2.115404367,2.187824249
97,2097237318,-149.6413422,-18.57870102,136.853363,3.255004168,-4.385045528,-7.886740208,-0.771339238,-1.923283339,2.008259535
98,2097253985,-149.6369019,-18.53684044,136.8449097,3.203350782,-4.327321529,-7.963158607,0.975664437,-2.53862834,2.20922327
99,2097270652,-149.6006317,-18.51416206,136.8381195,3.229916096,-4.433832645,-8.139360428,2.842849731,-1.464790463,1.768678665
100,2097287319,-149.5799713,-18.46632767,136.8464355,3.266930342,-4.468848705,-7.81393671,2.29982233,-3.339896202,1.551073074
101,2097303986,-149.5458832,-18.42547989,136.8499451,3.352076769,-4.542804718,-7.968319893,2.985064507,-2.810405016,1.643163562
102,2097320653,-149.4734344,-18.37651634,136.8544312,3.226868629,-4.476463318,-7.982130527,5.414985657,-3.435924292,1.562707543
103,2097337320,-149.3859406,-18.32510948,136.8614044,3.278948069,-4.476651669,-7.902338028,6.335636139,-3.585048914,1.607850432
104,2097353987,-149.3058319,-18.2702446,136.8714752,3.288149118,-4.423023701,-7.869404316,5.910681248,-3.797486544,1.675429225
105,2097370654,-149.2345428,-18.21133232,136.8643494,3.35812068,-4.465981007,-7.996387959,5.028784752,-3.458771229,2.74737215
106,2097387321,-149.1253815,-18.14778137,136.8387756,3.342148304,-4.315895081,-8.122469902,7.013284206,-3.244470358,3.676563263
107,2097403988,-149.0072174,-18.09343147,136.7884521,3.231159925,-4.160427094,-8.208604813,7.151708126,-2.102925062,4.529120922
108,2097420655,-148.9272614,-18.07158852,136.7453461,3.169558525,-4.13907814,-8.067883492,5.092535496,-0.731594801,3.030751228
109,2097437322,-148.9303589,-18.06398964,136.7360687,3.273601055,-4.520338058,-7.997265816,0.699931085,-0.878323555,1.140751362
110,2097453989,-148.8802185,-18.05620956,136.7301025,3.281446695,-4.45569849,-8.052461624,3.917750359,-0.921045482,1.110227227
111,2097470656,-148.8151398,-18.03896713,136.7236481,3.30719018,-4.231977463,-8.019339561,4.78182745,-1.336624503,1.539976478
112,2097487323,-148.7801208,-18.02137947,136.7153931,3.253863811,-4.271329403,-8.027261734,3.016644955,-1.381216168,1.536870956
113,2097503990,-148.7665405,-18.00647163,136.7048645,3.241365194,-4.329411507,-7.987508297,1.739063859,-1.224018097,1.505309463
114,2097520657,-148.7635651,-18.00125694,136.6921387,3.250626087,-4.523753643,-8.091225624,1.12195158,-0.733451724,1.217589378
115,2097537324,-148.7600555,-17.99743652,136.6870117,3.257768869,-4.518835545,-8.00959301,1.253677607,-0.802016973,0.953932166
116,2097553991,-148.767746,-17.99507523,136.6841278,3.299592495,-4.48309803,-7.95692873,0.659206867,-0.843778431,0.737594545
117,2097570658,-148.7599335,-17.99461555,136.6825104,3.298270702,-4.484334946,-7.956314564,1.574380517,-0.716348648,0.752942801
118,2097587325,-148.7486572,-17.99712563,136.685257,3.272544146,-4.430723667,-7.940776348,1.850901723,-0.667761445,0.514495075
119,2097603992,-148.7421875,-17.99936867,136.6859436,3.283311844,-4.470067024,-7.920336246,1.582698464,-0.703805029,0.512164354
120,2097620659,-148.7345428,-18.00510216,136.6777496,3.244860888,-4.462967396,-7.924537182,1.65125072,-0.515346766,0.444700509
121,2097637326,-148.7333221,-18.01680374,136.6781769,3.277243376,-4.573550224,-7.922633648,1.311133385,-0.275643885,0.170599803
122,2097653993,-148.7269287,-18.02614594,136.6851196,3.297562599,-4.526102066,-7.925708771,1.717306018,-0.549386024,0.011461684
123,2097670660,-148.7183075,-18.03486633,136.697998,3.304498672,-4.475996494,-7.911749363,1.918659925,-0.687310338,-0.116864324
124,2097687327,-148.7120514,-18.04206276,136.7104797,3.266230583,-4.436001301,-7.991122723,1.80607295,-0.809502184,-0.1159871
125,2097703994,-148.6925507,-18.0481472,136.7171326,3.277720451,-4.386556149,-7.917644501,2.523599863,-0.726337612,0.169319138
126,2097720661,-148.6859436,-18.05511093,136.7120209,3.209080935,-4.47417593,-7.964944363,1.678880334,-0.555296123,0.3757447
127,2097737328,-148.6776123,-18.06301689,136.7102203,3.202625275,-4.452718258,-7.968040943,1.795731902,-0.513733089,0.345207959
128,2097753995,-148.6732025,-18.07080269,136.714386,3.219977379,-4.453166008,-7.932632923,1.640819907,-0.629483283,0.181946203
129,2097770662,-148.6746368,-18.06984711,136.72789,3.251909018,-4.444073677,-7.901463509,1.405772209,-1.246736407,0.188746378
130,2097787329,-148.6828308,-18.06262016,136.7416992,3.290858984,-4.459387779,-7.950871944,1.028343558,-1.605826616,0.344381928
131,2097803996,-148.7042389,-18.05340958,136.7535706,3.301134825,-4.484257698,-7.98917532,0.26749903,-1.747503161,0.361920267
132,2097820663,-148.7233276,-18.04285049,136.7644653,3.243083477,-4.456779003,-7.993029594,0.462283581,-1.895102859,0.295621783
133,2097837330,-148.7385254,-18.03092003,136.7805634,3.255428791,-4.462930679,-7.886036396,0.756061316,-2.046858072,0.220064342
134,2097853997,-148.752594,-18.02295685,136.7996216,3.244265318,-4.436441422,-7.987629414,0.868885279,-1.909497261,0.004994477
135,2097870664,-148.7663727,-18.01268959,136.8255157,3.23286581,-4.445508003,-7.986712933,0.984116852,-2.167762995,-0.137431338
136,2097887331,-148.7559967,-18.00785255,136.8396454,3.27649188,-4.458100319,-7.994346142,2.263503075,-1.602612257,0.181241885
137,2097903998,-148.717514,-17.99253273,136.8631744,3.087694645,-4.595201015,-7.942475319,4.163811207,-2.473072529,-0.021553088
138,2097920665,-148.7262573,-17.98264885,136.9039917,3.393305779,-4.618821144,-7.745077133,1.723606706,-2.81744194,-1.220963836
139,2097937332,-148.6995697,-17.97879028,136.9476776,3.323608637,-4.790315151,-7.986035824,3.859936237,-2.547112703,-1.43366456
140,2097953999,-148.6130829,-17.95817184,136.981781,3.324065924,-4.442072868,-7.95106411,7.292787552,-3.179240704,-0.513918936
141,2097970666,-148.5131989,-17.93598557,136.9865265,3.395373344,-4.188249111,-8.120491982,7.491696358,-2.277929783,1.173759699
142,2097987333,-148.4022369,-17.90437889,136.9382782,3.284490824,-4.04061985,-8.205176353,7.228698254,-1.218940496,4.01645565
143,2098004000,-148.3124084,-17.88507843,136.8760834,3.060251713,-3.999041796,-7.999468327,5.796192646,-0.248321533,4.200764656
144,2098020667,-148.3199158,-17.89924622,136.8366241,3.103774071,-4.480102062,-7.939059734,0.440781742,0.738683105,1.97700572
145,2098037334,-148.3316345,-17.90929794,136.828064,3.152607203,-4.886332989,-7.928019047,0.785157204,-0.421604246,0.571969986
146,2098054001,-148.2939453,-17.92699623,136.8329773,3.224252701,-4.63512516,-8.000751495,3.964679718,-0.399667054,-0.266378522
147,2098070668,-148.2698364,-17.94803238,136.8452759,3.31246829,-4.47861433,-8.107046127,3.153345823,-0.228305191,-0.361158252
148,2098087335,-148.2510376,-17.97103119,136.8482971,3.305098772,-4.460575581,-8.133481979,2.770974159,-0.002759769,-0.198812157
149,2098104002,-148.2330627,-17.99328041,136.8474884,3.309185743,-4.423405647,-7.943219185,2.7412889,-0.045007918,-0.163607523
150,2098120669,-148.2329102,-18.01193619,136.8475342,3.31273818,-4.487589359,-7.852219105,1.713451266,-0.282155931,-0.112369329
151,2098137336,-148.2385712,-18.02806473,136.8499756,3.305794001,-4.462386131,-7.833023548,1.39133966,-0.447530717,-0.067054048
152,2098154003,-148.254425,-18.04440117,136.851059,3.302945614,-4.455088615,-7.899312496,0.716611326,-0.328482896,0.12744239
153,2098170670,-148.2813873,-18.06075668,136.8544769,3.265603065,-4.522357464,-7.965201378,0.071337767,-0.352597207,0.108847566
154,2098187337,-148.3008575,-18.07748985,136.8521576,3.292917967,-4.505130768,-7.905692577,0.462450087,-0.226640359,0.283404529
155,2098204004,-148.32547,-18.09687614,136.8508301,3.292467356,-4.575077534,-7.922740459,0.199087486,-0.157742202,0.111031033
156,2098220671,-148.3361511,-18.11459351,136.8520813,3.310455322,-4.575080395,-7.911142349,1.106186986,-0.354460567,4.48E-04
157,2098237338,-148.3416901,-18.13131523,136.8553772,3.303460121,-4.512188911,-7.869744301,1.43726933,-0.43972522,-0.006179064
158,2098254005,-148.3543396,-18.14759064,136.8644562,3.289757729,-4.563190937,-7.896342754,1.070489287,-0.558408082,-0.12812753
159,2098270672,-148.3642426,-18.16463852,136.8761597,3.281371593,-4.492511272,-7.93030405,1.295368791,-0.610568404,-0.28713119
160,2098287339,-148.3710632,-18.17816925,136.8826141,3.271308184,-4.425760746,-7.895039558,1.42110765,-0.68663156,0.006121435
161,2098304006,-148.384201,-18.19264984,136.8802643,3.276840687,-4.460161686,-7.946970463,0.9366436,-0.45565632,0.288514227
162,2098320673,-148.3907623,-18.19988632,136.879303,3.248733044,-4.475503445,-7.9245224,1.367423773,-0.871670663,0.45516333
163,2098337340,-148.4047699,-18.21012115,136.8840637,3.271758556,-4.523097992,-7.886370182,1.019474983,-0.862193823,0.136336386
164,2098354007,-148.4090881,-18.21461868,136.8953857,3.255311251,-4.512793541,-7.932013988,1.747144818,-1.387113333,-0.046621516
165,2098370674,-148.4060211,-18.21754456,136.9123383,3.284911871,-4.444572449,-7.937742233,2.221844196,-1.507896423,-0.054465409
166,2098387341,-148.411911,-18.21788216,136.9263916,3.277080774,-4.376366615,-7.905905724,1.69100821,-1.636318684,0.045238432
167,2098404008,-148.427536,-18.21727371,136.9348297,3.266890764,-4.414737225,-7.940113544,1.073793173,-1.618376732,0.197467491
168,2098420675,-148.4366302,-18.21215248,136.9411163,3.308202505,-4.384020329,-7.867178917,1.434343338,-1.781350613,0.460010529
169,2098437342,-148.4497986,-18.20297432,136.9399109,3.330980539,-4.434909821,-7.888593674,1.107217908,-1.848276496,0.834749937
170,2098454009,-148.4664612,-18.19152641,136.9425201,3.309199095,-4.547698975,-7.961551666,0.905319273,-1.968758702,0.916601658
171,2098470676,-148.4729156,-18.17983246,136.9490967,3.318026543,-4.512892246,-7.966897488,1.523174524,-1.990702391,0.923978209
172,2098487343,-148.4811859,-18.17260361,136.9558258,3.292618036,-4.469892979,-7.974442959,1.457362652,-1.823489785,0.697459459
173,2098504010,-148.4859924,-18.16699791,136.9621582,3.311647892,-4.402132034,-7.899866581,1.685898304,-1.763511062,0.620704591
174,2098520677,-148.4936066,-18.16472054,136.960022,3.327581882,-4.357493877,-7.887396812,1.436795592,-1.454999924,0.75713712
175,2098537344,-148.5032501,-18.16401672,136.9554749,3.313821793,-4.385320663,-7.918417931,1.263628244,-1.28356123,0.878835678
176,2098554011,-148.5167236,-18.16063309,136.9543915,3.316381693,-4.451753139,-7.918545246,1.061159611,-1.454743624,0.924016476
177,2098570678,-148.5365143,-18.16024017,136.9567261,3.297031641,-4.550273895,-7.957166672,0.757073045,-1.414800763,0.661127865
178,2098587345,-148.5445709,-18.16035271,136.959259,3.31591177,-4.471048355,-7.950134277,1.456965566,-1.378341079,0.671667516
179,2098604012,-148.5564423,-18.16293526,136.9530182,3.304353714,-4.46901226,-7.981938839,1.139252782,-1.107960582,0.846179485
180,2098620679,-148.5541534,-18.16155243,136.9457397,3.290182114,-4.417581558,-7.945038795,2.011954308,-1.340036988,0.934645772
181,2098637346,-148.560318,-18.16736412,136.9372559,3.306539297,-4.444924831,-7.886801243,1.481707215,-0.924150884,0.79798913
182,2098654013,-148.5760345,-18.1693306,136.9375153,3.333305836,-4.478291035,-7.830962658,1.026480198,-1.307137728,0.630546272
183,2098670680,-148.6071167,-18.17416763,136.9493408,3.391599178,-4.601983547,-7.880795479,0.264310271,-1.41755414,0.136490092
184,2098687347,-148.618454,-18.17720985,136.9577179,3.33122468,-4.560662746,-7.946416855,1.445260644,-1.515842795,0.202967852
185,2098704014,-148.6190338,-18.18724823,136.9589233,3.345147133,-4.449924469,-7.99195528,1.988794208,-0.996679783,0.257670164
186,2098720681,-148.6151428,-18.19890594,136.9525604,3.354994297,-4.307663918,-7.994504929,2.15104413,-0.741199553,0.505428255
187,2098737348,-148.6171112,-18.20179367,136.9435883,3.327063322,-4.254694939,-7.91584301,1.708930612,-1.028727651,1.062209845
188,2098754015,-148.6334381,-18.20435333,136.9321899,3.313436985,-4.312357426,-7.898549557,0.803265512,-0.960559487,1.230446935
189,2098770682,-148.6738739,-18.21155739,136.9281921,3.270167828,-4.404960632,-7.966456413,-0.490643233,-0.953080535,0.72157377
190,2098787349,-148.7243805,-18.20875549,136.9385681,3.24709487,-4.436131477,-7.930470467,-0.84329164,-1.851471543,0.408432871
191,2098804016,-148.7962799,-18.23314667,136.9544983,3.414053679,-4.592385292,-8.188987732,-1.98821795,-0.668075264,-0.784292936
192,2098820683,-148.7869568,-18.2357235,136.9670105,3.1073699,-4.486749172,-8.090285301,2.914007902,-1.826396704,-0.163953274
193,2098837350,-148.7768097,-18.23664665,137.0012512,3.274050474,-4.232093811,-7.643498421,3.329471588,-2.468839884,-1.045632005
194,2098854017,-148.7997742,-18.24825859,137.0541077,3.256933689,-4.613835812,-7.828866005,1.643855214,-2.392136574,-2.139966965
195,2098870684,-148.8451691,-18.24261665,137.1273651,3.348235369,-4.520033836,-7.716385841,0.629585862,-3.806969881,-2.479822159
196,2098887351,-148.886261,-18.23048973,137.1953278,3.225273848,-4.382780552,-7.650051594,0.819708943,-4.04796648,-2.117523909
197,2098904018,-148.911087,-18.22968292,137.2342682,3.407563925,-4.340927601,-7.95049715,1.315404296,-2.715695381,-1.219913721
198,2098920685,-148.8186035,-18.21136856,137.2223206,3.322399378,-4.12644434,-8.082913399,7.522143841,-2.306071997,1.51108551
199,2098937352,-148.7684631,-18.1912632,137.182663,3.416507959,-4.014248371,-7.858376026,4.441678047,-1.513947606,3.041136742
200,2098954019,-148.7632141,-18.17674446,137.1215668,3.337430239,-4.27431345,-8.052909851,1.290476799,-0.484169692,4.119745255
201,2098970686,-148.7422638,-18.16091347,137.05896,3.225333452,-4.30783987,-8.174246788,2.206341982,-0.492621809,4.273593426
202,2098987353,-148.7242126,-18.1504631,137.0084686,3.231347799,-4.523374081,-8.072576523,2.199074268,-0.452999026,3.713310003
203,2099004020,-148.737381,-18.15200996,136.9695435,3.250847101,-4.688758373,-8.046445847,0.611432731,-0.286055416,2.600233078
204,2099020687,-148.7527466,-18.15782928,136.9459076,3.263860941,-4.710391045,-8.026776314,0.862392366,-0.676168859,1.459629416
205,2099037354,-148.7566376,-18.16361809,136.9372253,3.314611673,-4.565327168,-7.950651169,1.789918065,-1.068388939,0.816853046
206,2099054021,-148.7624054,-18.17038918,136.930069,3.390849352,-4.441905022,-7.88781786,1.662264228,-1.000476956,0.823333025
207,2099070688,-148.7631073,-18.17088509,136.9196777,3.410337687,-4.439965725,-7.926751137,1.827568412,-1.110316873,1.388758898
208,2099087355,-148.7623138,-18.16675568,136.9028625,3.405774593,-4.477388382,-7.980406761,1.808371782,-1.178753972,1.829246163
209,2099104022,-148.7667542,-18.16453362,136.8834991,3.330397367,-4.445796967,-7.993972778,1.486829996,-1.071769834,1.801571488
210,2099120689,-148.7811584,-18.16714287,136.8617401,3.286505938,-4.441481113,-7.915816307,0.941087365,-0.903058887,1.529295921
211,2099137356,-148.7818298,-18.1709919,136.8414764,3.312007189,-4.415675163,-7.818677902,1.738231659,-0.798238933,1.567407608
212,2099154023,-148.7723083,-18.17077255,136.819931,3.285603285,-4.370928764,-7.822498322,2.292349577,-0.92006588,1.849211216
213,2099170690,-148.7645416,-18.1674099,136.7961273,3.27969265,-4.383079529,-7.963031769,2.111030579,-0.962499619,2.155135393
214,2099187357,-148.7603149,-18.16142845,136.7702484,3.239843607,-4.4007864,-8.003006935,1.862395167,-1.033766866,2.344195843
215,2099204024,-148.7546844,-18.15057182,136.7370453,3.264326334,-4.387100697,-7.909086704,1.844280601,-1.107947707,2.786008358
216,2099220691,-148.756424,-18.139925,136.7003784,3.218155861,-4.443185806,-7.893352032,1.45110023,-1.172722101,2.66187644
217,2099237358,-148.7563171,-18.13161469,136.6726379,3.216819525,-4.528423309,-7.940567017,1.660432935,-1.20952785,2.332087755
218,2099254025,-148.7506104,-18.12410164,136.6552429,3.234919786,-4.554158688,-7.977737427,2.123984098,-1.367365837,1.97941339
219,2099270692,-148.7390747,-18.11556816,136.6473236,3.23946619,-4.476632118,-7.928739548,2.609889269,-1.641902208,1.64386797
220,2099287359,-148.7308807,-18.10499001,136.632309,3.278754711,-4.436153412,-7.850749016,2.381507158,-1.698326826,1.786652207
221,2099304026,-148.727356,-18.09039116,136.6147308,3.30016017,-4.488019466,-7.800522327,2.012613773,-1.767596364,2.147272587
222,2099320693,-148.7067719,-18.06644058,136.5883789,3.329013348,-4.488831043,-7.798092365,2.938813925,-2.098941803,2.689871073
223,2099337360,-148.682312,-18.03038788,136.553894,3.314377069,-4.425047398,-7.762625694,2.987094164,-2.436747551,3.547320604
224,2099354027,-148.6755219,-17.99229813,136.5162048,3.242283583,-4.531411171,-7.836656094,1.818706512,-2.373342991,3.89898324
225,2099370694,-148.6585846,-17.93693161,136.480423,3.209631681,-4.520015717,-7.747494221,2.320484877,-3.095813513,4.712685585
226,2099387361,-148.6212921,-17.86055946,136.4280853,3.030261517,-4.367938519,-7.705281258,3.367122889,-3.892074585,5.828464985
227,2099404028,-148.5249176,-17.79361725,136.3751221,2.86603117,-4.575943947,-8.070022583,6.931963444,-3.424322367,5.496499062
228,2099420695,-148.4664459,-17.67234612,136.3693237,3.054679871,-4.406145096,-7.473023891,5.560455322,-7.651162624,4.798464298
229,2099437362,-148.4674835,-17.57501221,136.3439941,3.232715368,-4.94361496,-8.082668304,1.616776347,-5.820609093,5.039158821
230,2099454029,-148.3397064,-17.4339695,136.303009,3.079037666,-4.773082256,-8.220163345,9.004829407,-7.501843452,7.307026863
231,2099470696,-148.1559296,-17.24184036,136.2287292,3.127445936,-4.286437988,-7.999386311,11.68076229,-8.923443794,10.81177425
232,2099487363,-147.9628143,-17.06170845,136.1183624,2.797693968,-4.068223,-7.944637299,11.67241478,-7.260107994,12.10087681
233,2099504030,-147.8654633,-16.91772652,136.031662,2.739605665,-4.209064007,-7.688723564,6.472454548,-6.258479595,9.565842628
234,2099520697,-147.9056091,-16.74777031,135.9950409,2.90160203,-4.763301849,-7.568365097,-0.847646236,-9.16062355,7.85488081
235,2099537364,-147.8785553,-16.55682564,135.9608002,2.970082998,-4.942326069,-7.573558331,3.162568331,-10.20134544,8.564699173
236,2099554031,-147.808136,-16.31904602,135.9386292,2.821500301,-4.84869051,-7.577021599,5.894853115,-12.83969879,9.649038315
237,2099570698,-147.7054443,-16.04764557,135.909317,2.72659874,-4.520637035,-7.473240852,7.729417801,-14.36335182,11.00292969
238,2099587365,-147.6579742,-15.77287769,135.8823853,2.672378063,-4.782372952,-7.529344082,4.439013004,-14.5539999,11.07176304
239,2099604032,-147.5960846,-15.46646976,135.8486786,2.704777718,-4.998166561,-7.713235855,5.184965611,-15.92740154,12.4408884
240,2099620699,-147.4579163,-15.1306076,135.7991791,2.632124662,-4.962563992,-7.59886837,9.568206787,-17.02681351,13.98849392
241,2099637366,-147.3574524,-14.76805592,135.7622833,2.544578552,-4.942142963,-7.502699375,7.407746792,-18.55354118,14.56056976
242,2099654033,-147.3076477,-14.40402222,135.7129059,2.415777445,-4.874522209,-7.681964397,4.214488983,-18.29719162,15.11167717
243,2099670700,-147.266922,-14.00726318,135.6624298,2.318569183,-4.779816151,-7.616956711,3.580906868,-19.72408485,16.50682068
244,2099687367,-147.2415924,-13.58873081,135.5834198,2.285157681,-4.779407978,-7.655347824,2.332362652,-20.05299759,18.39126205
245,2099704034,-147.2082214,-13.15526199,135.4805756,2.122147083,-4.939518452,-7.829266548,2.521967888,-20.06179047,20.01741219
246,2099720701,-147.1601715,-12.70423412,135.3614655,2.031529903,-5.022504807,-7.974021912,3.173269749,-20.29057884,21.57873917
247,2099737368,-147.1234436,-12.24084091,135.2193604,1.850397825,-4.962963581,-8.008331299,2.245088577,-20.15222168,23.12588501
248,2099754035,-147.0983276,-11.77440929,135.0391998,1.745567083,-4.940000534,-8.080301285,1.137643218,-19.06019783,25.10836983
249,2099770702,-147.0645752,-11.2872448,134.8211517,1.768697977,-4.795033455,-7.906951904,1.288746476,-18.86127281,27.66268158
250,2099787369,-147.0241852,-10.78749561,134.5548401,1.713239074,-4.686624527,-7.854149342,1.243386626,-17.91236496,30.47784805
251,2099804036,-146.9657593,-10.24892712,134.2407379,1.57122016,-4.462193966,-7.60128355,1.948086739,-18.28643227,34.13885117
252,2099820703,-146.9291382,-9.702635765,133.8735962,1.553444862,-4.540956974,-7.592568398,0.268076867,-16.91651154,37.05150986
253,2099837370,-146.89151,-9.150458336,133.4564972,1.252237916,-4.736310959,-7.941239834,0.045552485,-15.55716991,39.75460052
254,2099854037,-146.870224,-8.60352993,132.9930573,1.159295678,-4.87305975,-8.176937103,-1.123175621,-13.74035931,41.90933609
255,2099870704,-146.85849,-8.047582626,132.4777679,1.03057456,-4.717393875,-8.289861679,-1.88134408,-12.46782017,44.80789566
256,2099887371,-146.8304749,-7.448505878,131.9062195,0.934837759,-4.446782589,-8.034766197,-1.039744139,-12.75605965,49.04842377
257,2099904038,-146.7937317,-6.806854248,131.266861,0.831264079,-4.098530769,-7.666817188,-0.639914572,-12.62193298,53.86045837
258,2099920705,-146.757019,-6.09597826,130.5741425,0.636691153,-3.878863811,-7.152128696,-0.53594625,-14.28363705,58.84085083
259,2099937372,-146.839035,-5.358110428,129.8262634,0.455630153,-3.944086313,-7.217931747,-7.456037045,-13.82526493,62.51283646
260,2099954039,-147.0588684,-4.58403635,129.0533447,-0.009070585,-4.149368286,-7.777404785,-15.2529211,-14.95550156,64.95061493
261,2099970706,-147.3640594,-3.753191233,128.260025,-0.322433352,-3.88017416,-7.99902153,-19.80334663,-17.40597916,67.7770462
262,2099987373,-147.8143158,-2.862683535,127.4133453,-0.39062047,-3.688798189,-7.913107395,-27.94792366,-19.1078701,72.29665375
263,2100004040,-148.2850952,-1.931468606,126.5100479,-0.62586844,-4.088900089,-8.012768745,-28.48704338,-19.91737175,76.32971954
264,2100020707,-148.5170746,-0.905532181,125.5843124,-0.726518154,-4.319354534,-7.779719353,-13.25299549,-24.47842026,80.33285522
265,2100037374,-148.5369415,0.212226406,124.6730042,-0.713668525,-3.95116663,-7.532752514,0.514573097,-29.77718925,82.40510559
266,2100054041,-148.7722321,1.290986776,123.8018494,-1.027290821,-3.656179905,-8.198003769,-11.38655758,-29.20319176,79.03684235
267,2100070708,-149.5175476,2.256393909,123.0031967,-1.502528191,-3.784472942,-9.374268532,-41.16042328,-26.25769043,71.52739716
268,2100087375,-150.5171661,3.20472765,122.2899246,-1.828296781,-4.918848038,-10.0659256,-55.81607056,-28.99250984,66.12858582
269,2100104042,-151.1523743,4.220223427,121.6347961,-1.460635543,-5.12305212,-9.721133232,-33.43292236,-35.12673187,64.57156372
270,2100120709,-151.4179535,5.241257191,121.0507889,-1.30743742,-4.113391876,-9.25924015,-10.91623878,-37.97412491,60.66011429
271,2100137376,-151.5176849,6.307752132,120.5914612,-1.152457237,-3.263431072,-8.787853241,-1.064617038,-44.13935852,55.23381424
272,2100154043,-151.6208191,7.361866474,120.215004,-0.788993657,-3.691291332,-8.661873817,-1.319363832,-45.96195221,50.39368439
273,2100170710,-151.6621857,8.287381172,119.8812408,-0.85996598,-3.601731539,-9.129712105,2.444353819,-40.48446655,44.38661957
274,2100187377,-151.6901703,9.123263359,119.6209412,-0.808811903,-3.420874357,-9.216695786,2.911373854,-37.88761902,37.93095016
275,2100204044,-151.7524414,9.948302269,119.4143295,-0.5171808,-3.149326086,-8.921869278,0.580402136,-38.8944397,34.7629509
276,2100220711,-151.9512177,10.77971649,119.2202148,-0.384875298,-3.004898071,-8.699689865,-7.527397156,-39.71256256,34.17980194
277,2100237378,-152.2354126,11.60199928,119.0275116,-0.4433662,-3.36345005,-8.805058479,-12.46809769,-39.47050476,33.66414261
278,2100254045,-152.4811554,12.42745972,118.8274689,-0.547406793,-3.675640345,-8.709652901,-9.880164146,-39.65782928,33.9327507
279,2100270712,-152.567337,13.23801422,118.6136246,-0.575114548,-3.491633177,-8.09689045,0.055503234,-38.65542603,34.10092545
280,2100287379,-152.6486816,13.92672539,118.3633957,-0.687584996,-3.336944103,-7.811395168,1.027435303,-31.30166435,32.54428101
281,2100304046,-152.8162842,14.60034752,118.0901489,-1.207859755,-3.315924644,-8.009513855,-3.629492044,-30.01703644,33.22733307
282,2100320713,-153.0769806,15.36369991,117.7739487,-1.961522222,-3.390807629,-8.552158356,-8.344111443,-33.85722351,37.74028015
283,2100337380,-153.4387665,16.21338654,117.4453354,-2.458583593,-3.992501736,-8.757888794,-13.93718052,-38.41316605,40.46052551
284,2100354047,-153.8013611,17.19663811,117.065033,-2.700782776,-4.511202812,-8.389674187,-12.80063438,-44.57285309,46.3571434
285,2100370714,-154.1261139,18.27560234,116.5657196,-2.997761011,-4.463181019,-8.165938377,-7.996170998,-47.08155823,54.61073685
286,2100387381,-154.2674255,19.43470573,115.966217,-2.992311954,-4.582493305,-7.933983803,5.470493793,-49.23609161,61.4657135
287,2100404048,-154.191803,20.68702126,115.3145752,-3.107679367,-4.704480171,-7.359554291,20.22257805,-53.14597321,66.28808594
288,2100420715,-153.9957733,22.06190681,114.5885544,-3.367066622,-4.564632893,-6.500540257,29.8526268,-57.93141174,73.08175659
289,2100437382,-153.9033813,23.55080414,113.8054504,-3.806907177,-4.131243229,-6.014017105,25.9032402,-62.67904663,78.69845581
290,2100454049,-154.4046173,25.17776108,112.9472351,-4.416635036,-2.842188835,-5.792826653,-6.741287231,-68.82432556,85.3141861
291,2100470716,-155.8892975,26.88672638,111.938942,-5.235808372,-2.45033741,-5.480910778,-60.46154404,-71.58013153,92.92677307
292,2100487383,-157.7232361,28.63523483,110.764534,-5.693095684,-3.761825323,-5.003659248,-75.16792297,-73.20025635,99.08327484
293,2100504050,-159.0527496,30.46067047,109.4433136,-6.540000439,-4.880617619,-4.636105537,-38.70799637,-77.67919922,104.8746033
294,2100520717,-159.6706848,32.45715332,108.0104065,-7.559642792,-4.183897972,-4.74942255,9.642258644,-87.4128952,111.2652969
295,2100537384,-160.0019073,34.64490509,106.5067596,-8.586135864,-3.372941017,-5.272869587,31.74859047,-98.35192108,116.2299423
296,2100554051,-160.5019073,36.97986221,104.9999695,-9.238380432,-3.605368376,-5.374494076,24.60033417,-108.0159454,116.7090988
297,2100570718,-161.2745667,39.38989639,103.5517807,-9.075357437,-4.356269836,-4.754737854,8.99529171,-115.0792084,112.222908
298,2100587385,-162.2327271,41.82172775,102.2498627,-8.77116394,-4.54742384,-4.223216534,-5.091248989,-120.6978607,102.3574295
299,2100604052,-163.3054504,44.17360306,101.1674957,-8.512040138,-4.223773003,-4.367651939,-18.60982513,-121.2970047,87.53929901
300,2100620719,-164.3760681,46.46020508,100.3973312,-9.018263817,-4.118983269,-5.118103981,-29.99431419,-123.2320786,69.79808807
301,2100637386,-165.3903046,48.79478836,99.96910095,-8.904470444,-4.218558311,-5.669250488,-40.55291748,-131.141571,53.69067001
302,2100654053,-166.4477997,51.09360886,99.79520416,-8.140540123,-4.890442848,-5.629885674,-54.20396805,-132.5398254,40.57357407
303,2100670720,-167.5584259,53.30729675,99.8853302,-7.614501953,-4.62526083,-6.132431984,-69.72518158,-130.5405426,27.23210716
304,2100687387,-168.4964447,55.38365173,100.2589645,-7.839768887,-4.324775696,-7.196053505,-73.37012482,-124.9849091,13.74641991
305,2100704054,-169.0125275,57.37035751,100.7853394,-7.321144104,-4.471981525,-7.533569813,-56.18269348,-120.7873306,6.873624325
306,2100720721,-168.9606018,59.23748016,101.484169,-6.766762733,-4.694653988,-7.967585564,-31.52419472,-114.7232437,0.65224719
307,2100737388,-168.3689117,60.93420792,102.4337997,-6.01809597,-3.995548725,-8.031906128,-12.88062763,-106.0753403,-6.86457634
308,2100754055,-167.5298615,62.44216537,103.5665512,-6.033312798,-3.279713392,-7.941017151,-8.49907589,-96.02591705,-11.55365753
309,2100770722,-166.3833618,63.7469635,104.9429855,-6.000408649,-2.655716419,-8.015831947,-3.858311176,-85.6566391,-17.58757591
310,2100787389,-164.8860779,64.87315369,106.4872971,-6.319116116,-2.53467083,-7.815140724,7.349760056,-76.52115631,-20.94139671
311,2100804056,-163.2254791,65.75804901,108.0078964,-7.1102314,-1.805336237,-7.925559044,17.77575493,-62.75444031,-20.7974453
312,2100820723,-164.0567474,66.24927521,107.8027191,-4.367155075,3.933054686,-9.816233635,-37.55487442,-28.24738312,14.37875175
313,2100837390,-164.0273285,65.26767731,105.6508942,-8.871248245,1.760502338,-20.11417198,120.6617813,69.62493896,35.93264389
314,2100854057,-164.6925354,64.44611359,103.0341034,-9.388498306,7.353588581,-12.2143383,103.5096207,63.45881653,52.07502747
315,2100870724,-165.5209503,63.93053818,100.9598389,-7.446249485,-3.216907978,-4.20242691,63.76522446,41.66778183,45.34803009
316,2100887391,-165.8401337,63.41582108,99.18821716,-8.917224884,-3.974800587,-2.273168325,77.50253296,39.43136215,39.05815887
317,2100904058,-166.5952759,62.67281342,97.63647461,-10.47054291,0.794781089,-4.531608105,38.99902725,51.26794052,31.48251343
318,2100920725,-167.6788177,61.91842651,96.09164429,-10.87362766,2.23190999,-6.657110214,18.38169861,51.68104172,32.99937439
319,2100937392,-168.6410522,61.54393387,94.59568787,-10.69926357,0.495255202,-5.188545227,22.68750572,28.68023109,37.97351837
320,2100954059,-169.1359406,61.36511993,93.06929016,-10.09495735,-1.10182333,-3.280612707,52.14023209,16.96202469,41.82354736
321,2100970726,-169.5329437,61.27939224,91.52640533,-9.654590607,-0.145934492,-3.085058451,58.75128174,11.35429859,43.66458893
322,2100987393,-169.9293671,61.32666397,90.06893921,-9.546560287,-0.708018124,-4.275218487,54.26639175,2.849390507,42.77375412
323,2101004060,-170.1716003,61.44541931,88.77394867,-8.900558472,-1.411221504,-4.985217094,55.01146317,-2.393333673,38.83892059
324,2101020727,-170.2544098,61.4972496,87.71878052,-8.730216026,-1.355339766,-6.516217232,51.97579193,0.284368664,31.30971336
325,2101037394,-170.41539,61.52328491,86.90320587,-8.281572342,-1.628732324,-6.033638954,34.67198563,0.557988942,24.28337288
326,2101054061,-170.4870453,61.48403168,86.33687592,-8.647816658,-1.796690345,-5.849800587,26.87361145,3.169217348,16.63398933
327,2101070728,-170.4884949,61.41607285,86.00947571,-9.020946503,-1.468040824,-5.442701817,18.47371292,3.713168383,9.654478073
328,2101087395,-170.4363403,61.31154251,85.82306671,-8.891816139,-1.344596624,-5.587319374,14.24593639,5.214301586,5.332824707
329,2101104062,-170.3523865,61.18871307,85.64865112,-8.817069054,-1.124766827,-5.814414978,15.507864,6.243920803,4.832288265
330,2101120729,-170.2133331,61.06000137,85.54814148,-8.747962952,-1.365894675,-5.942549229,14.92664623,6.229539394,2.675236225
331,2101137396,-170.0991516,60.92126465,85.47703552,-8.838777542,-0.79211241,-6.05396843,11.88543987,6.668078423,1.73865521
332,2101154063,-170.2516785,60.7641983,85.43146515,-9.14039135,-0.177254617,-5.549208164,-5.452465534,7.615272522,0.82259047
333,2101170730,-170.5016022,60.62004089,85.33409882,-9.205903053,-0.2067478,-4.867828846,-8.572125435,7.10782814,2.469852686
334,2101187397,-170.7013245,60.49127197,85.14043427,-9.270332336,0.188264698,-4.915655136,-0.527544856,6.679338932,5.445741653
335,2101204064,-170.8926239,60.40221024,84.93817139,-9.350795746,0.379375488,-5.46987772,0.432611376,4.377415657,6.098346233
336,2101220731,-171.0395813,60.33141708,84.79988861,-9.403417587,0.127368346,-5.566648483,-0.236450046,3.000591993,4.394460678
337,2101237398,-171.1607208,60.25181961,84.70893097,-9.402853966,-0.420053154,-5.204880714,-1.142589092,3.307112217,2.917273998
338,2101254065,-171.2541504,60.17853165,84.55451965,-9.21983242,-0.925812006,-4.962564945,3.828459501,3.237279892,4.847768784
339,2101270732,-171.3004913,60.0983696,84.34321594,-8.798981667,-1.231722593,-5.226238728,9.606649399,3.917016268,6.482628345
340,2101287399,-171.2859039,60.01819611,84.20927429,-8.455021858,-0.459058464,-5.962346077,9.228401184,3.573229074,4.220757008
341,2101304066,-171.2635651,59.93177414,84.21366882,-8.543801308,-8.47E-04,-5.950844765,2.509749651,3.309800625,0.058870789
342,2101320733,-171.1334686,59.78635406,84.34461212,-8.877324104,-0.307915956,-6.027962685,2.430696964,6.213001728,-4.274549484
343,2101337400,-170.8802948,59.60741806,84.62789917,-9.094861031,-0.923610151,-5.91657114,1.944619536,7.45396471,-9.202845573
344,2101354067,-170.5381622,59.39830399,85.04159546,-9.05990696,-0.930185914,-6.075297356,0.578578532,8.538128853,-13.51049995
345,2101370734,-170.1382141,59.1690979,85.5616684,-8.937627792,-0.815954447,-5.849432945,-1.381352305,9.067163467,-17.07172585
346,2101387401,-169.6543732,58.93169403,86.1679306,-8.89281559,-0.853081644,-5.76205492,-0.708806932,8.926366806,-19.9720726
347,2101404068,-169.1413269,58.68893433,86.79296875,-9.079081535,-0.640187681,-5.777186394,0.168839231,8.932497025,-20.82980347
348,2101420735,-168.6678925,58.46457672,87.38350677,-9.355991364,-0.421440095,-5.828001499,-0.348813504,7.850381374,-19.78737068
349,2101437402,-168.179718,58.24952698,87.91627502,-9.479629517,-0.574196875,-6.086668491,3.57435298,7.480973721,-18.1040287
350,2101454069,-167.6593781,58.05916214,88.48197174,-9.87599659,-0.688337564,-6.299996376,3.900288105,5.637919903,-19.00341988
351,2101470736,-167.0941467,57.91165161,89.07809448,-9.741002083,-0.867891788,-5.375626564,5.114606857,2.716922045,-19.55014229
352,2101487403,-166.3436279,57.81215668,89.70640564,-9.682730675,-0.639592052,-5.445363522,14.64375877,-0.544623196,-20.01392555
353,2101504070,-165.4118347,57.7689209,90.41561127,-9.662905693,-0.616091073,-6.01845932,21.45512581,-4.742239475,-21.76662064
354,2101520737,-164.3182526,57.7906189,91.25035095,-9.366739273,-0.951074243,-5.928183079,24.80792236,-9.937011719,-24.5910778
355,2101537404,-163.0670319,57.82549667,92.25750732,-9.219941139,-1.190706968,-5.761640072,25.51846313,-12.74681282,-29.4729538
356,2101554071,-161.6930237,57.86717987,93.42053986,-9.195163727,-1.379942536,-5.799792767,24.95513535,-15.30975151,-33.8074379
357,2101570738,-160.2011566,57.92499161,94.74253845,-9.013599396,-1.438688517,-5.564601898,23.93193626,-18.71421051,-37.88551331
358,2101587405,-158.562088,58.0115509,96.19487,-8.802081108,-1.24933362,-5.226599216,26.09863472,-22.80031967,-40.60598755
359,2101604072,-156.7488708,58.15193939,97.79914093,-8.733565331,-0.918576837,-5.369739532,28.73449326,-28.78632736,-43.05691147
360,2101620739,-154.8278198,58.34989166,99.56584167,-8.522090912,-0.868689418,-5.029066086,26.79027557,-35.34162521,-45.2123642
361,2101637406,-152.8411255,58.60371399,101.4903717,-8.376021385,-1.235119462,-4.935983181,22.45979691,-41.90963745,-46.70944214
362,2101654073,-150.7973938,58.89040375,103.6353989,-8.318206787,-1.913449407,-5.371099949,14.30994129,-48.3016243,-49.99347305
363,2101670740,-148.7347717,59.17375946,105.9329529,-8.057408333,-2.173560143,-5.301077366,7.290962219,-52.01218033,-51.99298096
364,2101687407,-146.6735229,59.44506454,108.3610001,-7.964732647,-2.323642254,-5.141823769,0.151918486,-55.09914398,-53.43634415
365,2101704074,-144.697113,59.70587921,110.9542618,-7.93423748,-2.329445124,-5.382347584,-13.80924034,-58.95823288,-55.54898834
366,2101720741,-142.8026123,59.93524551,113.7446136,-7.952562332,-3.067616701,-5.397060871,-29.2563839,-62.49110031,-59.04111862
367,2101737408,-140.9233398,60.13790894,116.6646194,-7.763094902,-3.028089046,-5.673325062,-37.20113754,-65.24088287,-60.62498474
368,2101754075,-139.0996094,60.27352905,119.6675644,-7.640347481,-2.593204021,-5.763866425,-45.0824585,-65.43012238,-62.68275833
369,2101770742,-137.394455,60.42086411,122.7007828,-7.711950779,-2.80146575,-5.141852379,-53.96147156,-68.24106598,-60.6266098
370,2101787409,-135.6702423,60.64476395,125.9253845,-8.090526581,-2.975830555,-4.704163074,-63.07745361,-76.92371368,-59.19630814
371,2101804076,-134.0291901,60.97677994,129.2908478,-8.346703529,-3.003592253,-4.310267925,-75.88256073,-85.56732941,-54.72554016
372,2101820743,-132.2636261,61.56824112,132.7811127,-8.388677597,-2.375574827,-3.333019495,-75.75233459,-99.40061951,-42.37848663
373,2101837410,-130.4082794,62.47839737,136.4028625,-8.33622551,-1.985552073,-2.943962097,-78.63291931,-114.2790451,-25.81870079
374,2101854077,-128.8779602,63.64352036,140.0396576,-8.671002388,-0.694340646,-3.292296886,-100.7521744,-122.3702316,-8.802034378
375,2101870744,-128.0675049,64.85010529,143.8450012,-9.741286278,-0.615291715,-4.029140949,-155.0481567,-124.3349915,-4.701834202
376,2101887411,-127.9682159,66.12017059,147.4206848,-10.43759918,0.612970829,-4.544082642,-187.2622681,-118.6824722,5.438037872
377,2101904078,-128.6794586,67.43011475,150.603363,-9.914516449,0.142987266,-4.63855648,-216.1645203,-109.4197998,15.06172466
378,2101920745,-130.3169403,68.48446655,152.8595886,-10.23569775,-1.871764779,-5.832416534,-221.7189789,-81.03618622,16.49177933
379,2101937412,-132.3968048,69.50605774,154.1060333,-9.799254417,-3.648352623,-5.958935738,-192.5874329,-62.23057938,28.22926903
380,2101954079,-134.742157,70.5164566,154.1450195,-9.614170074,-4.338127613,-5.316765308,-140.894928,-44.00483322,43.2954483
381,2101970746,-137.5292969,71.53964233,152.8493805,-9.419904709,-3.999245882,-4.171685219,-91.69924164,-28.42313194,60.69298553
382,2101987413,-141.0312958,72.37819672,150.3218079,-9.344916344,-3.865619421,-3.038794041,-63.91661835,-9.193516731,68.37049103
383,2102004080,-145.1042786,72.91413116,146.8954926,-9.448539734,-4.166980267,-2.110654354,-46.18330383,9.430459976,68.31423187
384,2102020747,-149.3425446,73.16428375,142.9864502,-9.270258904,-4.141084671,-1.714893341,-28.00836182,22.70965004,65.68095398
385,2102037414,-153.2545166,73.13239288,139.0766449,-8.912540436,-3.993905544,-1.448539972,-8.287827492,32.62847519,58.82346725
386,2102054081,-156.6901398,72.82002258,135.3678741,-8.795860291,-3.434865236,-1.615879059,8.51817131,42.8462677,51.26040649
387,2102070748,-159.4851685,72.31884003,132.0792236,-9.125859261,-2.481669903,-2.018838644,22.41320992,48.26818085,43.83599091
388,2102087415,-161.8410645,71.72229004,129.2329102,-9.250332832,-1.55502975,-2.228339911,22.9209404,49.55737686,38.15350342
389,2102104082,-163.9815369,71.03923798,126.8193893,-9.243993759,-1.483260512,-2.494011879,10.63273335,51.10103607,32.44273376
390,2102120749,-165.8261108,70.31822205,124.8341522,-9.182040215,-1.721167803,-2.264853239,3.545626163,50.39247513,27.09500694
391,2102137416,-167.3216705,69.59927368,123.2863922,-9.255825043,-1.613710284,-1.932354808,-0.686247647,47.72716904,21.27726936
392,2102154083,-168.5066833,68.90965271,122.1506424,-9.462982178,-1.268755317,-1.90287149,-5.581306458,43.92852402,15.3016901
393,2102170750,-169.4744873,68.27718353,121.3188629,-9.846943855,-0.810987771,-1.934650779,-9.827857971,39.18432617,11.00610733
394,2102187417,-170.3660889,67.73332977,120.5451355,-9.439689636,-0.830127954,-1.13577795,-8.678941727,33.66773605,11.78675652
395,2102204084,-171.2560883,67.2216568,119.7176056,-8.910053253,-1.136587262,-0.675658703,-5.776982307,31.90005684,14.25613499
396,2102220751,-172.1690063,66.76465607,118.8109665,-8.616369247,-1.168753743,-0.550719738,-2.961601973,28.81390381,17.48254204
397,2102237418,-173.1570435,66.39563751,117.8277283,-8.455432892,-1.066217661,-0.751487672,-3.425972939,23.63384056,20.83533669
398,2102254085,-174.3336945,66.16156769,116.6690598,-8.411095619,-0.830323398,-1.065141916,-5.242733955,15.74183273,26.68932915
399,2102270752,-175.7557831,66.03971863,115.3095245,-8.532238007,-0.708268762,-1.382302046,-9.053398132,8.925981522,32.71569824
400,2102287419,-177.4506836,65.98838806,113.7219467,-8.661623955,-0.983002365,-1.765745163,-12.98343658,4.203228951,38.90143585
401,2102304086,-179.4303894,65.97984314,111.859642,-8.58736515,-1.083877087,-1.812704802,-15.05228901,0.625723362,45.88551331
402,2102320753,178.4272614,65.97496796,109.8414307,-8.482300758,-1.175062656,-1.793842912,-16.2863903,-1.228525043,49.75358582
403,2102337420,176.252182,65.93612671,107.7708893,-8.714400291,-1.132234097,-2.006169796,-15.41523552,-1.075398445,51.14802933
404,2102354087,174.1073456,65.84239197,105.7281036,-9.457332611,-1.111232877,-2.199300528,-15.19782829,0.37672174,50.86213303
405,2102370754,172.084671,65.76039124,103.7438812,-10.58653259,-1.7150563,-2.104491472,-11.16147518,-1.969749689,49.56131363
406,2102387421,170.3077545,65.77796936,101.794632,-11.3299284,-2.200523615,-1.921885967,1.614964485,-9.328876495,47.8322258
407,2102404088,168.8228149,65.87241364,99.95467377,-11.6106205,-2.047492027,-2.614693642,13.17546749,-14.65146828,44.04351807
408,2102420755,167.6720276,66.06661987,98.34545898,-11.2589941,-1.340704441,-3.69546628,20.66904259,-20.26574898,36.77772141
409,2102437422,166.9968109,66.40410614,97.10134125,-9.992443085,-0.579935551,-4.345192432,29.31950951,-27.1890316,25.60681343
410,2102454089,166.800354,66.84751892,96.30181885,-8.936564445,0.710541368,-4.453764439,33.74894333,-31.06595421,13.22738075
411,2102470756,167.0187378,67.33229828,96.05413055,-8.401774406,1.711673975,-4.159594059,28.2946434,-30.49484444,-0.226763427
412,2102487423,167.4567261,67.8458786,96.34409332,-8.155835152,2.419105768,-4.017036438,11.70665932,-29.45849037,-12.56584644
413,2102504090,167.7463379,68.40468597,96.92728424,-8.023838043,2.946067572,-4.178590775,-13.5746851,-30.82395363,-19.25004196
414,2102520757,167.7523651,68.98931122,97.63938904,-7.753349781,2.852633715,-4.51693964,-37.91070938,-31.87541008,-21.96793175
415,2102537424,167.5045319,69.57827759,98.28372192,-7.393312931,2.252066851,-4.792440414,-49.48171997,-32.50226974,-20.32089424
416,2102554091,167.1170349,70.15633392,98.73225403,-7.199445248,1.627421141,-4.854729652,-46.96009064,-32.74857712,-16.07387352
417,2102570758,166.6208801,70.75189209,98.84091187,-7.129502296,1.374306083,-4.639976978,-34.34616852,-35.29265213,-9.675193787
418,2102587425,166.0207062,71.33641052,98.64846039,-6.999888897,1.565550208,-4.841367722,-23.52116585,-35.98549652,-4.093076229
419,2102604092,165.4355927,71.88664246,98.32070923,-7.076516628,2.038260221,-5.717903614,-14.87246037,-34.5896759,-1.586228013
420,2102620759,164.9263763,72.4488678,97.84828949,-7.017829895,2.530588388,-6.324947357,-1.985595107,-35.95726013,0.284052521
421,2102637426,164.526947,73.0226059,97.38246155,-6.877133846,3.138602972,-6.389372349,4.317175865,-36.58756256,-0.573970556
422,2102654093,164.1961517,73.56409454,97.08450317,-6.735094547,3.491652966,-6.412289619,-1.123736262,-33.93744278,-3.355392694
423,2102670760,163.8860626,74.05880737,97.08332062,-6.868872643,3.691573381,-6.419420719,-16.91997337,-29.88381004,-7.734427929
424,2102687427,163.5081787,74.48294067,97.44000244,-6.815034389,3.604344606,-6.613720417,-41.63996124,-24.20614052,-12.35663319
425,2102704094,163.1036835,74.82717133,98.16992188,-6.895413399,3.463657618,-7.042500019,-64.8574295,-17.92943382,-16.73176575
426,2102720761,162.710144,75.06768036,99.20590973,-7.038774967,3.247543573,-7.273957253,-81.9736557,-10.602314,-19.42470551
427,2102737428,162.4116974,75.17042542,100.4991226,-7.291371346,2.701187134,-7.293362141,-91.21689606,-1.537641764,-20.66406631
428,2102754095,162.2494812,75.11815643,101.8929672,-7.562003613,1.885787487,-7.067946434,-88.87197113,7.792629719,-19.33030319
429,2102770762,162.3283386,74.86695099,103.3427887,-7.800789356,1.151108623,-6.608222008,-77.58171844,19.4388237,-16.75323677
430,2102787429,162.7581329,74.41011047,104.9172974,-8.371079445,0.646472335,-6.11648941,-63.58581161,31.81830597,-15.54682541
431,2102804096,163.4727325,73.78761292,106.5905914,-9.675949097,0.539897561,-5.841619492,-51.94569016,41.83787537,-15.37006378
432,2102820763,164.234436,73.0059433,108.1963654,-11.11174011,0.704908729,-5.904364109,-44.88597488,50.77841187,-13.29559708
433,2102837430,164.9567261,72.03958893,109.6101151,-11.38027287,0.061356708,-5.744112968,-35.81557846,60.70145035,-9.047143936
434,2102854097,165.8345795,70.88468933,110.8219223,-10.28745365,-0.976701379,-4.970397472,-14.50199986,70.89487457,-4.766368389
435,2102870764,167.152359,69.5921936,112.0417023,-9.070752144,-1.640771985,-3.952970505,11.95125294,79.17559814,-5.774399281
436,2102887431,168.9019623,68.1799469,113.4188843,-8.560476303,-1.550606489,-3.015779495,29.65472221,87.04521942,-11.30833626
437,2102904098,170.897583,66.70018005,115.015892,-8.661074638,-0.765313029,-2.363507509,33.00951004,91.84122467,-20.33253479
438,2102920765,172.7574768,65.18563843,116.8161697,-9.202432632,0.021332506,-2.26691556,14.727314,94.21983337,-30.34057808
439,2102937432,174.2511444,63.72498322,118.6702042,-9.927302361,0.029625807,-2.369414091,-8.968694687,90.55698395,-37.40248871
440,2102954099,175.3365936,62.40369797,120.4017715,-10.57010651,-0.335179269,-2.359736681,-25.69936371,81.3272171,-39.32170868
441,2102970766,176.1623077,61.2930069,121.9440155,-11.09833336,-0.917452574,-2.253952742,-30.2392807,67.86515045,-38.23481369
442,2102987433,176.8435669,60.39986801,123.2837677,-10.95554447,-1.429776192,-2.047244787,-27.52411652,54.12374878,-35.43883133
443,2103004100,177.4633179,59.67631149,124.4677429,-10.7890749,-1.817799211,-2.278865814,-22.56277466,43.43877029,-32.87471771
444,2103020767,178.1661987,59.11360931,125.5946274,-10.63262749,-1.831205845,-2.400798798,-14.2394743,33.44013977,-32.67909622
445,2103037434,179.0537415,58.70954895,126.7123032,-10.36129284,-1.54993248,-2.074059248,-2.407441616,23.53071213,-33.56858826
446,2103054101,-179.8604431,58.43545914,127.814476,-9.989809036,-1.10269475,-1.974211454,10.4729538,15.21182823,-33.88275528
447,2103070768,-178.5530853,58.21271133,129.0569916,-9.668836594,-0.82864368,-2.140962124,16.73732758,11.41175747,-38.83100891
448,2103087435,-177.1232758,58.09366989,130.4362488,-9.289660454,-0.33278358,-2.253142118,17.22339821,4.142533302,-43.39738846
449,2103104102,-175.722641,58.07336807,131.9242096,-9.130362511,0.332558483,-2.172886133,9.985301018,-3.021106482,-46.67802048
450,2103120769,-174.4815216,58.11263657,133.4347534,-9.034165382,0.746202052,-2.235798597,-0.743683517,-7.672678471,-47.03652191
451,2103137436,-173.5295563,58.24215698,134.8519135,-9.165920258,1.002387404,-2.838704586,-13.39818668,-13.59095001,-43.31171036
452,2103154103,-172.8466492,58.50902557,136.1083221,-9.316701889,1.055148244,-3.390491724,-21.48300362,-21.72024345,-36.91352081
453,2103170770,-172.3724823,58.93006134,137.1491241,-9.312507629,0.978048325,-3.728245735,-23.17802238,-30.31805611,-28.50031853
454,2103187437,-171.9993744,59.46398926,137.9596252,-9.369919777,0.796112657,-3.807846308,-17.64066696,-36.18566895,-19.9424572
455,2103204104,-171.7049713,60.07308578,138.5218201,-9.486366272,0.664020121,-4.135396957,-9.736830711,-39.61773682,-11.28603649
456,2103220771,-171.4500427,60.7723732,138.8252563,-9.571037292,0.637352467,-4.252117157,1.205079198,-43.83327866,-2.423144341
457,2103237438,-171.1429443,61.50793076,138.9797821,-9.484557152,0.576405585,-4.45270586,12.05405045,-45.30449295,2.553830147
458,2103254105,-170.808136,62.27925873,138.9561768,-9.242856979,0.521814644,-4.454584599,23.07995033,-46.59037781,8.191194534
459,2103270772,-170.5762329,63.02632904,138.7439728,-9.159326553,0.906754792,-4.755140781,26.9683876,-44.27914429,13.27585602
460,2103287439,-170.4489441,63.73783875,138.4249268,-8.978732109,1.091597676,-5.010916233,26.49632454,-41.68869781,15.72130489
461,2103304106,-170.4803009,64.4041748,138.0110474,-8.746463776,1.146882892,-5.170655727,22.20262146,-38.63552475,17.52910995
462,2103320773,-170.666687,65.02542114,137.5284576,-8.799276352,1.023849726,-5.283201694,16.75585747,-35.77407074,18.47685051
463,2103337440,-170.9396667,65.63542175,137.0447083,-9.08294487,0.856798768,-5.357601643,11.75710678,-35.24155426,17.95330429
464,2103354107,-171.4202118,66.24704742,136.4060516,-9.447747231,0.536820829,-5.39028883,7.923367977,-34.93928528,21.18936539
465,2103370774,-172.0534058,66.85853577,135.5794678,-9.519834518,0.242264166,-5.37393713,9.273377419,-34.56365967,24.91026306
466,2103387441,-172.8526611,67.44490814,134.5124664,-9.24318409,-0.097610369,-5.244340897,12.80345345,-32.72494507,29.36130333
467,2103404108,-173.7555084,67.99373627,133.2654877,-8.888094902,-0.239153251,-5.248791218,16.81985664,-30.5321312,32.1066246
468,2103420775,-174.6954803,68.48770142,131.9471436,-8.444405556,-0.213975891,-5.202876091,18.82381821,-27.70674896,32.25527191
469,2103437442,-175.6026459,68.90634918,130.6980286,-8.213741302,-0.042212933,-5.211221695,17.14637756,-23.9242115,29.35604095
470,2103454109,-176.5093689,69.25470734,129.5495453,-8.255143166,0.075957432,-5.331468582,11.71220684,-20.39321518,26.08779335
471,2103470776,-177.4329987,69.51719666,128.4917145,-8.361276627,-0.132331789,-5.406960964,5.735883713,-15.8139782,23.25220108
472,2103487443,-178.3603516,69.7042923,127.5031281,-8.433668137,-0.268320799,-5.359113216,1.704791069,-11.76233578,21.17511749
473,2103504110,-179.2427979,69.78691864,126.6060791,-8.583265305,-0.432504445,-5.333882332,-0.711496174,-5.898715496,18.85170937
474,2103520777,179.915451,69.76314545,125.7326126,-8.745793343,-0.625445008,-5.316850662,0.412653089,0.167616099,18.24094391
475,2103537444,179.2135925,69.62001801,124.9285431,-8.877067566,-0.728052914,-5.237035751,4.870574474,7.067007542,16.95751762
476,2103554111,178.70784,69.36800385,124.2331772,-8.857281685,-0.778389394,-5.04310751,10.46975231,13.43082905,15.05598259
477,2103570778,178.4147034,68.98596191,123.6863251,-8.630385399,-0.745177209,-4.86626482,14.81434441,21.17336845,12.42594051
478,2103587445,178.3452759,68.50486755,123.3521957,-8.496123314,-0.642708421,-4.824160099,16.25282478,27.17798615,8.293250084
479,2103604112,178.4495697,67.96372223,123.1935043,-8.406060219,-0.467677921,-4.845417023,16.83469391,30.86602211,4.669606209
480,2103620779,178.7040253,67.41423798,123.1897278,-8.478897095,-0.418535769,-4.736838818,17.21113586,31.44519043,1.153568983
481,2103637446,179.0385284,66.86571503,123.2969818,-8.593185425,-0.301236391,-4.549286842,15.87977028,31.42495537,-1.585586667
482,2103654113,179.4822235,66.31852722,123.5323486,-8.745136261,-0.291834861,-4.536188126,15.40132236,31.36247063,-4.909130096
483,2103670780,179.9213562,65.74310303,123.8263855,-8.581336021,-0.343815178,-4.274553299,11.96964169,33.01529312,-6.697199821
484,2103687447,-179.6006775,65.14763641,124.2023849,-8.595831871,-0.369448811,-4.320245266,9.903075218,34.15138626,-9.175178528
485,2103704114,-179.1253204,64.56201935,124.5967484,-8.624302864,-0.225656658,-4.26762104,8.847581863,33.47201157,-10.13422298
486,2103720781,-178.6789246,64.0056076,125.00383,-8.6733675,-0.002228285,-4.184574604,6.530912399,31.62168884,-10.91679192
487,2103737448,-178.2968445,63.49895096,125.426033,-8.793946266,0.173416629,-4.174730778,1.958039761,28.54505539,-11.68222046
488,2103754115,-177.9867401,63.0553627,125.8564301,-8.886994362,0.209143952,-4.11142683,-2.701750278,24.6837883,-12.15214443
489,2103770782,-177.7215729,62.66981506,126.2911301,-9.079709053,0.207738534,-4.145959854,-5.539412022,21.14005852,-12.44321442
490,2103787449,-177.4935303,62.32787323,126.7215958,-9.144697189,0.320093662,-4.132555962,-7.461403847,18.48066711,-12.46607018
491,2103804116,-177.2967377,62.02290726,127.1503372,-9.0625,0.39557454,-4.114883423,-9.17513752,16.22647285,-12.52970314
492,2103820783,-177.129303,61.75421524,127.575737,-9.012450218,0.455286503,-4.054778099,-10.69259071,14.02153587,-12.50871277
493,2103837450,-176.9862671,61.5120163,127.9881439,-9.238059044,0.473225504,-4.097619057,-11.41330719,12.4298563,-12.21070766
494,2103854117,-176.8856506,61.3010025,128.3508148,-9.28280735,0.522812247,-4.117182255,-11.28776073,10.62328243,-10.81427002
495,2103870784,-176.8178253,61.1350174,128.6576996,-9.259444237,0.623842061,-4.160747051,-10.28519821,8.007413864,-9.149670601
496,2103887451,-176.7696838,61.01572037,128.9211884,-9.154396057,0.560667336,-4.087889194,-9.160246849,5.286137581,-7.800583363
497,2103904118,-176.7115936,60.91260529,129.1253662,-9.166703224,0.548372984,-4.002998829,-5.433619976,4.418133736,-6.067099094
498,2103920785,-176.5999451,60.83519745,129.3006744,-9.074746132,0.329950154,-3.818049908,-0.696242929,2.93679738,-5.175085545
499,2103937452,-176.4234619,60.78009033,129.4650269,-8.889704704,0.399489462,-3.729095221,3.774857759,1.622455835,-4.804456234
500,2103954119,-176.2798004,60.76855469,129.6182098,-8.75227356,0.822061241,-3.932361603,2.393846035,-0.963460088,-4.336267948
501,2103970786,-176.2433014,60.81529617,129.7572632,-8.659600258,1.136987686,-4.416639805,-3.296533823,-4.419587135,-3.711279869
502,2103987453,-176.2904358,60.948246,129.8876953,-8.467398643,1.283422112,-4.844806194,-7.863473892,-9.5570364,-3.136276245
503,2104004120,-176.4441833,61.12653351,129.9798126,-8.259037018,1.117068291,-4.911269188,-12.25509834,-12.19441032,-1.874262452
504,2104020787,-176.6458282,61.33556366,130.0235596,-8.190958023,0.799560249,-4.716274738,-12.59021378,-13.94734192,-0.408606291
505,2104037454,-176.8825836,61.53189087,129.9958954,-8.279665947,0.540983081,-4.540760994,-10.94025707,-13.06756115,1.53525877
506,2104054121,-177.1632233,61.7101326,129.8742065,-8.441098213,0.380009681,-4.53662014,-8.603528976,-11.85260487,4.089576244
507,2104070788,-177.4783936,61.87215042,129.6580811,-8.617704391,0.327156305,-4.685408592,-5.677045822,-10.77290058,6.634455681
508,2104087455,-177.8132172,62.02627182,129.3490295,-8.651364326,0.254636407,-4.831958771,-1.919736981,-10.229949,9.142785072
509,2104104122,-178.1346741,62.16875839,128.9764404,-8.565947533,0.313647985,-4.892236233,2.268588781,-9.524371147,10.8012476
510,2104120789,-178.4668427,62.27779388,128.575882,-8.470300674,0.330169946,-4.860341549,3.134324074,-7.564485073,11.42970657
511,2104137456,-178.7948761,62.34154129,128.1902008,-8.515789032,0.263411283,-4.861147404,2.607829094,-4.929282188,10.87720203
512,2104154123,-179.0995483,62.36838531,127.8266068,-8.648076057,0.260302246,-4.944139004,2.839995146,-2.790453672,10.18058491
513,2104170790,-179.384079,62.3590889,127.4743118,-8.75997448,0.258010268,-4.977963448,3.448591471,-0.684947848,9.825246811
514,2104187457,-179.6486816,62.31112671,127.1207886,-8.841285706,0.188881949,-4.964749813,4.705778122,1.582590103,9.85135746
515,2104204124,-179.8896942,62.21577072,126.764061,-8.853746414,0.12626639,-4.919136524,6.276286125,4.378448486,9.96572113
516,2104220791,179.9091797,62.07008743,126.4163971,-8.760137558,0.040667765,-4.772586346,8.166301727,7.357439041,9.773230553
517,2104237458,179.7860107,61.86969757,126.1038055,-8.665236473,0.050894301,-4.704445839,10.95752811,10.60964298,8.877326012
518,2104254125,179.7582703,61.62646866,125.8414841,-8.586633682,0.217600018,-4.698485851,13.99139977,13.17235565,7.542304039
519,2104270792,179.8072815,61.36442184,125.6336441,-8.483551025,0.445496559,-4.663696766,15.69278145,14.30732536,6.046099663
520,2104287459,179.885025,61.10309982,125.4679413,-8.472308159,0.569719255,-4.683651447,15.17665195,14.26611805,4.861451626
521,2104304126,179.9412842,60.85393143,125.3137436,-8.410362244,0.647482574,-4.634765148,13.26281738,13.54285336,4.539274216
522,2104320793,179.9512482,60.62872696,125.1500473,-8.462262154,0.665679395,-4.567937374,10.96788502,12.10765266,4.834061623
523,2104337460,179.9062805,60.42824173,124.9426422,-8.534583092,0.678294539,-4.664589882,9.938099861,10.62023067,6.150798798
524,2104354127,179.8336334,60.24980164,124.6640549,-8.319148064,0.561795712,-4.629657269,11.97121429,9.286579132,8.302178383
525,2104370794,179.7994385,60.08921051,124.3292007,-8.20919323,0.384897053,-4.59414053,17.18578911,8.200762749,10.02641487
526,2104387461,179.8141479,59.95077896,123.9358444,-8.136545181,0.340039939,-4.498828888,23.13194275,6.861562252,11.82091141
527,2104404128,179.8282928,59.83555984,123.4872513,-8.091158867,0.47609064,-4.441265106,25.94140053,5.462060928,13.52194214
528,2104420795,179.8124542,59.74943161,122.9915161,-8.089902878,0.39324075,-4.57790041,26.56264305,3.710492134,14.97867203
529,2104437462,179.7617645,59.71389389,122.4481888,-8.109231949,0.287727624,-4.662686348,26.92008209,0.656948805,16.43486023
530,2104454129,179.6859589,59.73780441,121.8661652,-8.145794868,0.194069356,-4.740938187,27.41554451,-2.938466549,17.59465218
531,2104470796,179.5996094,59.81754684,121.2646255,-8.127006531,0.129997537,-4.737671375,27.80979729,-6.317858696,18.13828659
532,2104487463,179.5046997,59.95231247,120.6564789,-8.096744537,0.127285868,-4.782457829,27.66435051,-9.654772758,18.24594307
533,2104504130,179.3988342,60.13674927,120.0496063,-8.118865967,0.123758703,-4.824085712,26.99761963,-12.66917038,18.0908699
534,2104520797,179.2778168,60.37366867,119.4526443,-8.20731926,0.042076357,-4.909288406,25.62279129,-15.85728645,17.6115799
535,2104537464,179.1345673,60.66207886,118.8548279,-8.268292427,0.072575904,-5.043700218,24.40947342,-18.99059105,17.42329788
536,2104554131,178.9394684,60.99449921,118.2293854,-8.30922699,0.198693454,-5.195399284,22.65525246,-21.75409889,17.74240685
537,2104570798,178.6719055,61.34471512,117.5826111,-8.272426605,0.11307662,-5.300292492,19.6351738,-22.88038635,18.19438553
538,2104587465,178.3740997,61.70289993,116.9180756,-8.251514435,0.035255726,-5.360055447,19.00660896,-23.42796326,18.54915047
539,2104604132,178.0641327,62.04561615,116.2525101,-8.18437767,0.026356462,-5.511753559,18.42340088,-22.60852814,18.26005554
540,2104620799,177.7885132,62.3589592,115.6174545,-8.195214272,0.096600533,-5.69013834,18.99587631,-20.90557289,17.20573425
541,2104637466,177.5592041,62.62711334,115.0221634,-8.22899437,0.185795307,-5.713356495,19.6219902,-18.26875687,15.8220892
542,2104654133,177.3470001,62.83752441,114.482399,-8.318203926,0.148009732,-5.701971531,17.7805481,-14.80799007,14.29192448
543,2104670800,177.1457062,62.97978973,114.0078888,-8.458987236,0.113272272,-5.71690464,15.01502323,-10.69057369,12.60670757
544,2104687467,176.9701385,63.03761292,113.6188507,-8.66195488,0.099344768,-5.830460072,11.98686218,-5.573149204,10.45004845
545,2104704134,176.8266602,63.0063858,113.3049622,-8.705153465,0.131451905,-5.869567394,9.887332916,-0.170900837,8.67977047
546,2104720801,176.7589111,62.87803268,113.0914993,-8.711307526,0.100890584,-5.767399311,9.050821304,5.766196251,6.296226025
547,2104737468,176.7912445,62.64621735,113.0003128,-8.73749733,-7.90E-04,-5.671907902,8.513865471,12.13944817,3.339161873
548,2104754135,176.9376221,62.31053925,113.0227051,-8.909676552,-0.025526304,-5.550084114,9.302808762,18.52614784,0.546633422
549,2104770802,177.1565552,61.87874222,113.1185684,-8.987410545,0.029207826,-5.395534992,9.765920639,24.38414383,-1.283263206
550,2104787469,177.4425049,61.37416077,113.2624359,-9.042491913,0.068691798,-5.259551048,11.27848148,28.80425072,-2.58977294
551,2104804136,177.78302,60.82226944,113.4365921,-9.102264404,0.033337951,-5.112381458,13.00206566,31.65852547,-3.584256172
552,2104820803,178.1521912,60.25250244,113.6039352,-9.088572502,0.04527631,-4.999645233,15.13059902,32.70429993,-3.635675192
553,2104837470,178.538681,59.68440628,113.7564697,-8.975047112,0.159974396,-4.864998341,17.00743675,32.57574463,-3.480551958
554,2104854137,178.9206238,59.13282776,113.896904,-8.797245979,0.291287482,-4.696844578,17.38929176,31.5530529,-3.458511829
555,2104870804,179.2970734,58.61527634,114.0320892,-8.587599754,0.388412803,-4.557911396,17.3842659,29.48937607,-3.605834961
556,2104887471,179.6660919,58.1385231,114.1641922,-8.453859329,0.347607791,-4.352787495,17.13495255,27.02550125,-3.795611382
557,2104904138,179.9908752,57.72083664,114.2822495,-8.486776352,0.404850304,-4.281963825,15.2306881,23.46125031,-3.588502884
558,2104920805,-179.7427216,57.37316513,114.3813629,-8.626894951,0.488434106,-4.298271179,12.72245979,19.25674438,-3.133744955
559,2104937472,-179.5683594,57.10093689,114.4472961,-8.757599831,0.573233664,-4.413356304,8.891669273,14.73453331,-2.143900394
560,2104954139,-179.5011749,56.90488815,114.4682922,-8.764369965,0.62771064,-4.435714722,4.738729,10.18483543,-0.68872577
561,2104970806,-179.4892578,56.76411438,114.4300919,-8.683227539,0.327855915,-4.466855049,4.40355444,6.898321629,1.268366814
562,2104987473,-179.4709473,56.67643738,114.3495255,-8.60454464,0.229421705,-4.515294552,6.910506725,3.737156391,2.690403461
563,2105004140,-179.4389954,56.65275574,114.2452774,-8.609836578,0.330912828,-4.602332592,8.91530323,-0.08009094,3.510548115
564,2105020807,-179.4179535,56.6843071,114.1404419,-8.532171249,0.385675639,-4.671434879,8.291184425,-3.381568909,3.560736179
565,2105037474,-179.4385681,56.76089859,114.0354996,-8.41912365,0.443997204,-4.688550949,5.801296711,-6.073015213,3.584043264
566,2105054141,-179.5209198,56.88991928,113.9367065,-8.408812523,0.321806043,-4.752855778,1.794637799,-9.216822624,3.393523932
567,2105070808,-179.6268005,57.10133743,113.8862991,-8.488153458,0.244456798,-4.858928204,-2.040898323,-14.16843128,1.819982052
568,2105087475,-179.7457581,57.40932465,113.9135208,-8.650959015,0.392929554,-5.120333195,-6.740926743,-19.97112274,-0.711906016
569,2105104142,-179.877243,57.77733612,113.9883575,-8.695213318,0.662196457,-5.322384834,-9.920519829,-23.57310486,-2.277966738
570,2105120809,179.9695129,58.17453766,114.0809937,-8.498594284,0.595182061,-5.383337021,-12.10896969,-25.2985096,-2.826004267
571,2105137476,179.7983246,58.5830307,114.1503754,-8.225055695,0.440444022,-5.396707535,-12.02603436,-25.97213554,-2.15037775
572,2105154143,179.6291351,58.97619629,114.1780167,-8.031230927,0.2760396,-5.341451168,-9.993046761,-25.13773537,-1.182586432
573,2105170810,179.4558258,59.3226738,114.1469498,-8.074333191,0.233073011,-5.308920383,-6.960763454,-22.24351883,0.934167325
574,2105187477,179.2849426,59.60969162,114.0100632,-8.210806847,0.07604973,-5.2309165,-1.698405862,-18.85462189,3.659066916
575,2105204144,179.1860657,59.85052872,113.8127823,-8.404458046,-0.020818541,-5.195145607,6.075339317,-16.00218582,5.854787827
576,2105220811,179.1714478,60.05384445,113.58918,-8.390904427,0.020129364,-5.066964626,12.51240826,-13.7690773,6.625091076
577,2105237478,179.2280121,60.2362175,113.3777924,-8.301138878,0.095536299,-4.962198257,16.13874435,-12.52046585,6.211696625
578,2105254145,179.3516388,60.41160202,113.2090378,-8.439432144,0.131357998,-4.806112766,18.07090759,-12.03113556,5.079256058
579,2105270812,179.5022583,60.58536911,113.0406952,-8.423388481,0.138784289,-4.691714764,19.53594398,-11.98496628,4.88342905
580,2105287479,179.6524353,60.76258469,112.8649597,-8.29534626,0.137988701,-4.560786724,19.89307404,-12.18423462,5.085372925
581,2105304146,179.7905273,60.9442482,112.6807785,-8.137533188,0.125770822,-4.434383869,19.65237427,-12.42662716,5.368733406
582,2105320813,179.9155121,61.10731125,112.4929733,-8.052452087,-0.033107854,-4.413103104,19.12030411,-11.2822094,5.535010338
583,2105337480,-179.9315186,61.27425003,112.3121262,-8.120783806,-0.012449576,-4.446162701,20.40646362,-11.51353264,5.288245201
584,2105354147,-179.7600708,61.4399147,112.1439514,-8.247107506,0.121360652,-4.588632107,20.85862923,-11.42504787,4.926062107
585,2105370814,-179.5982819,61.60898209,111.9833603,-8.383698463,0.195907265,-4.74514389,19.9056282,-11.61811733,4.730316162
586,2105387481,-179.4457245,61.77829742,111.8354034,-8.523756027,0.186275825,-4.90395546,18.68475914,-11.62742996,4.362381935
587,2105404148,-179.337738,61.94962692,111.6760559,-8.548377991,0.286928117,-5.048439026,16.63040352,-11.74041271,4.692842484
588,2105420815,-179.2811127,62.11725235,111.5139236,-8.441184044,0.359636903,-5.255630493,13.70012188,-11.51683331,4.748203278
589,2105437482,-179.2932434,62.25207901,111.3673782,-8.343438148,0.358545274,-5.508658886,8.760381699,-9.561034203,4.266105652
590,2105454149,-179.3040619,62.34320068,111.2816925,-8.247846603,0.199759468,-6.015116215,5.613261223,-6.974275589,2.514572144
591,2105470816,-179.2739563,62.38397598,111.2450638,-8.082722664,0.314163685,-6.47984457,5.458022118,-3.986361027,1.099188209
592,2105487483,-179.2701263,62.33815384,111.1895294,-7.866771698,0.641739547,-7.102096081,4.882229328,1.192028046,1.550106406
593,2105504150,-179.3288574,62.1422348,111.0974579,-7.459288597,0.056179177,-7.631144524,3.06065464,10.17530155,2.450418949
594,2105520817,-179.3502502,61.78228378,111.0026321,-7.284302711,-0.647334874,-8.608319283,5.430957794,19.97578049,2.435714245
595,2105537484,-179.2217407,61.22626877,110.953537,-7.024965286,-0.408674985,-10.14310169,11.98645306,31.68022346,0.99589622
596,2105554151,-179.0372314,60.42474365,111.0019913,-6.644487858,0.568791687,-11.31051159,10.21081543,46.30775833,-2.153167963
597,2105570818,-178.9351654,59.29062653,111.2619171,-6.369328499,0.42469579,-12.93268681,-5.67802763,66.05789948,-9.067550659
598,2105587485,-178.8759308,57.82372665,111.812706,-6.688117504,0.111933455,-15.22842407,-23.01773453,85.71012878,-19.07551956
599,2105604152,-178.767395,55.98815536,112.5530472,-6.653259277,-0.307464153,-16.94927979,-28.98353195,107.5895309,-26.60026169
600,2105620819,-178.5698853,53.69845963,113.4857559,-6.746319771,-0.765786767,-17.73794556,-32.21586609,134.4333191,-35.60702515
601,2105637486,-178.5013428,50.89480209,114.623497,-7.261642456,-1.502808094,-18.37535858,-48.1724472,164.8300476,-46.26473999
602,2105654153,-178.6424866,47.56378937,115.9283905,-8.153864861,-1.797405839,-19.03292847,-65.99468231,196.1603241,-56.36463928
603,2105670820,-178.9161835,43.66700363,117.3622437,-8.758577347,-2.123663664,-19.0110836,-76.07698822,230.0285034,-65.44802856
604,2105687487,-179.2982483,39.29080582,118.8809204,-9.187328339,-2.700411081,-19.55924225,-81.37779236,258.9801636,-72.68069458
605,2105704154,-179.6904144,34.50989532,120.3953934,-9.55399704,-2.555085421,-20.4401226,-76.11408234,283.677124,-75.52700043
606,2105720821,-179.8250732,29.32573891,121.8552628,-9.633684158,-2.691131115,-20.41349602,-52.34455109,308.1901245,-75.97982788
607,2105737488,-179.8630219,23.80879974,123.2746429,-9.737252235,-3.050214529,-20.48384476,-38.24784851,328.2705383,-77.3481369
608,2105754155,-179.9013824,17.99591255,124.589035,-9.32527256,-2.384401798,-20.88615608,-28.25096321,346.1114197,-74.59807587
609,2105770822,-179.8000946,11.95535469,125.875412,-8.622582436,-2.195928574,-20.96370697,-11.62204075,359.7717896,-75.63955688
610,2105787489,-179.6987152,5.826107502,127.1733017,-8.737376213,-2.269927263,-21.00041389,-3.652487993,365.0050354,-78.59875488
611,2105804156,179.8158569,-0.25971213,128.4884033,-9.020143509,-2.481996775,-20.48179054,-30.58271217,362.7447815,-79.15081024
612,2105820823,178.8185272,-6.329355717,129.8503265,-8.40187645,-2.635343552,-19.92296791,-52.72112274,362.9179688,-77.11299896
613,2105837490,177.5144196,-12.34887314,131.302475,-7.778073311,-2.431895494,-19.03935623,-61.6760025,361.6588745,-74.17124176
614,2105854157,175.9611053,-18.20287132,132.8922272,-6.798094749,-2.338770151,-17.76656342,-65.65193939,353.9632568,-71.5983429
615,2105870824,174.1264954,-23.8176136,134.6211243,-5.568865776,-2.451451778,-16.1586132,-70.5067215,342.1825256,-67.01763153
616,2105887491,171.7516937,-29.15527725,136.312912,-4.994324684,-2.147286892,-15.09086037,-82.6690979,326.9360046,-60.51083374
617,2105904158,169.111557,-34.16862106,138.3686523,-4.663064957,-2.971862793,-13.49003983,-91.45343018,312.4927979,-53.08831024
618,2105920825,166.4459229,-39.00341415,140.4797974,-3.710658312,-3.791359186,-12.02724075,-82.33352661,303.5855408,-37.52755737
619,2105937492,164.1508942,-43.62868881,142.528244,-2.725248814,-2.581621408,-10.55472088,-54.59078979,290.50354,-18.37340546
620,2105954159,162.1254272,-48.05471802,144.6456299,-1.644063711,-2.552263975,-8.811027527,-28.52582359,278.5463562,-7.179560184
621,2105970826,160.0836182,-52.09113312,147.0071259,-1.259959221,-3.078481674,-7.340105534,-12.08823586,257.3829346,-7.126891613
622,2105987493,158.0010986,-55.78568649,149.4998322,-1.597034335,-3.870130062,-5.914972782,-2.37366724,237.3582764,-2.475331545
623,2106004160,156.3412628,-59.12286758,151.9447937,-1.664643049,-4.455906391,-4.287116051,25.64023209,214.0878601,5.367285252
624,2106020827,155.0650177,-62.16979599,154.4442291,-1.800317883,-3.393851995,-2.432618141,55.61796188,195.8344879,8.585442543
625,2106037494,153.455658,-64.98456573,157.2293701,-0.439283311,-3.106368542,-0.672387779,54.528965,183.4057922,6.67692852
626,2106054161,151.2812042,-67.62399292,160.6691589,-0.079333678,-2.196448326,-1.337513447,59.94149399,177.7326508,0.223274395
627,2106070828,148.428421,-70.0185318,164.6396637,-0.350710869,-1.540407538,-1.273280859,52.38184738,166.4191895,-2.059187651
628,2106087495,144.3695831,-72.26185608,169.5884399,-0.676419437,-1.97968173,-0.658115089,38.88150024,164.1428375,-5.288400173
629,2106104162,139.1748047,-74.21631622,175.8669128,-0.280587852,-3.817018747,0.032128792,50.45152283,158.2068176,-12.65867615
630,2106120829,134.274231,-75.79883575,-177.165802,1.055352092,-3.868079185,-0.754194975,111.1710052,142.115097,-13.58826637
631,2106137496,128.9246368,-77.05390167,-168.9529114,0.70390147,-0.663544059,-1.3286134,159.4120483,135.2893982,-20.48160362
632,2106154163,120.891098,-77.78663635,-158.1090393,-0.061768219,1.137809277,-0.76585561,154.4233704,140.0724335,-45.03196335
633,2106170830,111.8835602,-77.74317169,-146.5263367,0.065083258,0.595163405,0.354342133,140.1903381,129.5203247,-67.61312866
634,2106187497,103.9071655,-77.0657959,-136.0121155,0.444392323,1.565963268,0.256210983,138.5708923,117.2226334,-80.65900421
635,2106204164,97.84653473,-75.86785126,-127.4053116,0.894628704,4.023881435,0.377086461,139.9396515,103.9356232,-93.07361603
636,2106220831,94.16181946,-74.34905243,-121.1159744,1.499138117,6.479613781,1.336358786,145.1385193,85.74840546,-100.4889679
637,2106237498,92.5535965,-72.82105255,-117.144165,3.499088049,10.49064732,2.814768076,133.6724548,60.69412613,-95.17487335
638,2106254165,91.08717346,-71.38486481,-114.3237762,4.785966396,12.65140629,3.319638252,74.69452667,48.05956268,-87.39672852
639,2106270832,88.41047668,-70.32485199,-111.3456192,5.346204281,11.33748722,2.069190502,9.929603577,57.69136429,-62.82654572
640,2106287499,88.21025848,-70.37284851,-110.191597,5.115604401,17.15512085,-1.396637917,54.97150421,22.00723076,4.162243366
641,2106304166,88.23053741,-70.78442383,-108.4755707,3.606610775,18.08178329,-1.050474524,100.1823883,32.31610107,26.50654221
642,2106320833,87.79055023,-70.82054901,-107.6086349,4.626651287,10.33570766,2.09705162,24.68011665,15.92701626,3.693509817
643,2106337500,87.31156158,-70.35520935,-107.5301743,5.215016365,4.627757072,2.415406704,-22.30498505,1.659018517,-26.82814217
644,2106354167,87.58720398,-69.70043182,-108.5005112,5.611639977,5.187832832,0.541060388,-36.17881012,-19.23558617,-39.13235855
645,2106370834,88.2049942,-69.07273102,-109.7688751,7.638580799,6.942034245,-0.467312247,-32.15472031,-26.51676369,-37.61395264
646,2106387501,88.48158264,-68.52471161,-110.7611847,9.154652596,7.382592678,-0.082732454,-36.8920784,-21.69437599,-32.47156525
647,2106404168,88.27082825,-68.15554047,-111.2591248,10.53630638,5.132014751,0.192792654,-38.38153839,-11.52033615,-21.42856407
648,2106420835,87.79436493,-68.03334045,-111.3084259,10.82941151,1.2027179,-0.527357876,-29.30978966,-1.985342622,-6.359865189
649,2106437502,87.89935303,-68.18280792,-111.3525009,10.44165611,-0.559179127,-0.339060158,5.839012623,-2.468066216,9.875344276
650,2106454169,88.05064392,-68.43585205,-111.1384277,9.962895393,1.943570495,0.398284674,22.96889496,3.051762104,16.22530746
651,2106470836,88.1619339,-68.65267181,-111.0597458,9.89807415,3.290562868,1.037535906,13.00872993,0.131060332,13.90577793
652,2106487503,88.00566101,-68.65135193,-110.9394836,9.672826767,3.06835103,0.287583709,-0.728790104,1.45117712,0.829428852
653,2106504170,87.75918579,-68.50108337,-110.903801,9.085923195,3.21788168,0.205876201,-10.88046741,-0.06976264,-8.185716629
654,2106520837,87.31832123,-68.25624847,-110.7945633,8.750717163,1.812862039,0.204931945,-18.45410728,1.854157925,-13.79088402
655,2106537504,87.12594604,-68.08995056,-110.7651291,8.111833572,3.038294077,-0.721595526,-8.013892174,-0.05775027,-9.185250282
656,2106554171,87.18960571,-68.00626373,-110.6814957,8.334607124,5.908408165,0.076354854,10.35432243,0.926808774,-4.189221382
657,2106570838,86.92837524,-67.93416595,-110.4203186,8.234724998,5.545332909,0.628194809,0.737204015,4.897629261,-3.280282736
658,2106587505,86.71431732,-67.87242126,-110.2719955,7.842847824,4.866732121,0.845737517,-2.711379528,2.351066589,-2.769277096
659,2106604172,86.60634613,-67.78665161,-110.382225,8.040629387,4.912847519,0.977575362,-10.71527672,-3.394369602,-4.544354439
660,2106620839,86.65022278,-67.67367554,-110.6810989,8.337955475,4.725197792,0.940559983,-12.07459831,-7.591911793,-6.430399895
661,2106637506,86.72720337,-67.5745163,-111.0111618,8.231490135,4.8523283,0.698900342,-11.80685711,-8.396061897,-5.6431036
662,2106654173,86.97161865,-67.51387787,-111.4598465,7.94346714,4.417836189,0.475904614,-8.3279953,-11.2838192,-3.473373175
663,2106670840,87.43864441,-67.48309326,-112.0640106,8.005244255,4.487264156,0.657832623,-3.584493876,-14.98571491,-1.802552938
664,2106687507,87.95915985,-67.47504425,-112.7789917,7.996510983,5.326714516,0.999192417,-6.512248039,-17.62130928,-0.429775238
665,2106704174,88.53705597,-67.47930908,-113.674469,7.685551643,5.687090397,1.247597575,-13.07038879,-21.80620766,0.337115109
666,2106720841,89.01895142,-67.54233551,-114.6481247,6.502313614,6.162240028,0.792927504,-23.17154312,-23.6534729,4.016695499
667,2106737508,89.71243286,-67.67845917,-115.9035339,5.694713593,7.086341858,0.430834949,-26.13773155,-30.01455307,8.568758011
668,2106754175,90.88942719,-67.9713974,-117.6469498,4.343158722,8.806926727,0.946189582,-24.33648872,-40.62466049,18.51092148
669,2106770842,92.45697021,-68.43437195,-119.8593674,3.344599724,9.684987068,1.947134614,-27.26970482,-49.69451904,29.95398712
670,2106787509,94.87388611,-69.06296539,-122.871582,2.779715538,10.13488579,2.424768686,-21.47099304,-64.20201874,42.5929451
671,2106804176,98.04849243,-69.66996002,-126.7243958,3.753572702,9.636198997,2.753981829,-23.87864685,-78.0853653,46.14345551
672,2106820843,101.5126953,-70.27013397,-131.3167877,3.707954168,8.649184227,1.937933445,-49.01164246,-88.13780975,52.30974579
673,2106837510,105.8480606,-70.99632263,-137.0427856,2.826378822,8.849473,1.356649637,-61.97389984,-101.6457214,70.05215454
674,2106854177,111.1091232,-71.70057678,-143.7544098,2.078603745,8.00722599,0.970690072,-63.84481812,-110.0115509,81.64955902
675,2106870844,117.6070786,-72.30389404,-151.5713654,1.532318354,6.182452202,0.153295994,-54.14697266,-118.3386307,93.47492981
676,2106887511,125.6173172,-72.59861755,-160.6551361,1.354469419,4.568898678,0.215019375,-37.01276398,-131.9008331,101.9019547
677,2106904178,134.1443787,-72.37932587,-170.2133636,1.686847925,2.491010189,1.149598241,-33.26581192,-142.0215149,101.2794724
678,2106920845,142.4343872,-71.65007782,-179.8507538,1.253306389,1.686531067,1.085140944,-50.56790543,-152.580658,104.920517
679,2106937512,149.8113861,-70.42042542,170.9763336,0.632230341,1.132132411,0.607988179,-75.86857605,-162.0467529,108.1220627
680,2106954179,156.0443268,-68.61688232,162.7297668,-0.899801016,-0.754780293,-0.909020185,-87.53359222,-176.2468567,105.6508942
681,2106970846,161.2594299,-66.27362823,155.7173004,-1.083937407,-2.50265646,-2.259200811,-73.66812134,-190.8366852,99.83933258
682,2106987513,165.9109344,-63.54084778,149.6994019,-0.591746151,-3.10109067,-3.552468061,-45.94187546,-201.7326965,101.2160492
683,2107004180,169.7838135,-60.54111862,144.6636353,-0.860690236,-2.632872581,-4.758216381,-32.55887604,-206.9956207,101.2182465
684,2107020847,172.8455811,-57.30662155,140.4141235,-0.482733667,-3.214531422,-5.419324398,-32.73967361,-212.9690857,101.3883514
685,2107037514,175.3186493,-53.83900452,136.7203674,-0.70741123,-4.636838436,-5.602917194,-32.51135254,-221.1273041,103.7448044
686,2107054181,177.2391205,-50.19102478,133.5497284,-0.892836273,-5.379498959,-6.40725565,-32.82512283,-227.282196,103.1729202
687,2107070848,178.6804962,-46.3967247,131.0045166,-1.442428231,-6.195996284,-7.203835487,-25.66738892,-232.3980408,93.95652008
688,2107087515,179.9109802,-42.367733,128.9354553,-1.692375302,-6.442649364,-8.352056503,-11.17957306,-244.0665436,86.25778198
689,2107104182,-179.1109924,-38.13312912,127.4523392,-3.139463902,-5.956007481,-9.401105881,2.973681688,-254.834259,70.1929245
690,2107120849,-178.3468018,-33.61457443,126.3758774,-4.64060688,-5.660687447,-10.25139713,9.758155823,-271.0958252,58.83944321
691,2107137516,-177.8871765,-28.8900032,125.6271362,-4.919090748,-6.135523319,-10.75083923,6.003750324,-283.2354126,48.20592117
692,2107154183,-177.7046051,-23.91680908,125.3436966,-5.103300095,-6.455321312,-11.3255682,-4.361244678,-295.7033081,38.86588669
693,2107170850,-177.8448029,-18.67094994,125.2711868,-5.25036335,-5.601850986,-12.74071884,-16.3571434,-312.4762878,28.85328674
694,2107187517,-178.3099213,-13.17757034,125.1589966,-5.896520138,-3.786451101,-14.9317646,-28.04565811,-330.2431641,18.1217041
695,2107204184,-179.0303192,-7.43055582,125.1297913,-7.174224377,-2.260037422,-16.00164604,-41.82158279,-345.703064,10.33864117
696,2107220851,179.968277,-1.632174015,125.1843948,-8.283319473,-4.171780109,-16.10581207,-58.09524536,-348.9069824,0.214235857
697,2107237518,178.9933929,4.236188412,125.2709961,-9.633575439,-6.109240055,-16.37102699,-56.88528061,-353.0038757,-7.724135399
698,2107254185,178.2869568,10.19758129,125.3957291,-9.529072762,-4.548402786,-17.14377594,-41.61967087,-358.3442993,-15.21747684
699,2107270852,177.8294983,16.29137421,125.8203125,-11.34921169,-2.227695227,-17.88552284,-31.58776665,-365.4985046,-36.45552826
700,2107287519,177.5073853,22.42100716,126.3772278,-12.14687347,0.01345554,-18.43088531,-28.70416451,-367.0993347,-45.72704315
701,2107304186,177.1767426,28.19221306,126.8785553,-10.98922634,1.394280314,-18.72191429,-30.98059082,-345.545105,-42.47303009
702,2107320853,177.0465698,33.65257645,127.3723984,-11.26266766,0.077054366,-17.91736603,-21.31402016,-326.8397217,-41.14670944
703,2107337520,177.1704102,38.91895294,127.7910538,-12.2973547,-3.087389708,-17.15924454,-5.705028057,-315.4868164,-35.41064072
704,2107354187,177.771286,44.12567139,127.9904785,-13.72905445,-4.403090477,-17.12568855,29.84549141,-312.6429443,-21.97514153
705,2107370854,178.8471832,49.19889832,127.9888916,-14.17565727,-2.729558468,-17.62590218,66.34758759,-305.2148438,-8.145618439
706,2107387521,-179.8832855,53.87831497,127.7746201,-12.72262573,0.504278183,-17.81658936,87.98057556,-281.7938232,6.22162962
707,2107404188,-178.5273895,58.05185318,127.8104095,-11.51194572,3.48186183,-17.58883476,81.33080292,-251.3981476,3.009804249
708,2107420855,-176.8701935,61.64022446,128.6421204,-11.59145927,2.952983856,-16.99566841,58.03728104,-217.1552734,-15.70278072
709,2107437522,-174.6404419,64.71986389,130.0006409,-11.22889709,1.328686833,-16.73145485,62.7964859,-188.0436859,-22.33059311
710,2107454189,-171.8858032,67.35858154,131.8425293,-10.690732,1.025562763,-16.03333855,66.03816986,-163.5753174,-25.35268784
711,2107470856,-168.8959198,69.40657043,133.9521332,-9.569817543,-0.01287964,-14.27213097,63.47837067,-130.0598297,-24.83947182
712,2107487523,-166.0330811,70.6344223,135.8530579,-9.376588821,0.26890108,-13.55511665,66.34505463,-81.53536987,-21.4408226
713,2107504190,-162.3966522,71.42849731,138.0684052,-8.494355202,0.572417021,-13.1215086,94.24261475,-58.80140686,-28.01747704
714,2107520857,-158.3890686,71.86531067,140.26297,-7.762274742,1.755600095,-12.2407198,117.23909,-39.84150314,-29.67422867
715,2107537524,-154.9722443,71.94403076,142.0493164,-7.642877102,2.838839769,-11.40715981,104.8801346,-18.78833199,-28.13114357
716,2107554191,-152.6430511,71.79925537,143.3939056,-7.278890133,2.85931468,-10.40625,64.82170105,-4.589272499,-25.80699158
717,2107570858,-151.7993317,71.53974915,144.2320251,-8.566407204,3.297604561,-9.67401886,4.630918026,5.0658741,-20.71024513
718,2107587525,-152.0119476,71.20722198,144.7431641,-9.364232063,3.3704772,-8.490750313,-40.09170532,11.63240528,-17.52491188
719,2107604192,-153.0797729,70.82498932,145.0722198,-9.712618828,2.401565313,-7.085487366,-81.00687408,16.0124855,-15.77739906
720,2107620859,-154.1346893,70.4285965,145.6843872,-10.03598118,1.197409987,-5.88365078,-96.21969604,14.50171471,-21.01160622
721,2107637526,-155.0428772,69.92841339,146.5979614,-10.74540997,0.608839869,-5.055462837,-104.3314667,17.74019051,-29.20470047
722,2107654193,-155.8914795,69.26099396,147.6737823,-11.17286873,0.174557149,-3.985805511,-109.6868668,25.69418526,-36.65039063
723,2107670860,-156.6610107,68.46260071,148.8798676,-11.10079193,-0.525570393,-3.088396788,-111.935173,31.96985817,-42.72061539
724,2107687527,-157.404007,67.60536194,150.0509796,-11.05894852,-1.286761284,-2.549959421,-108.0122604,35.72696686,-43.83431625
725,2107704194,-158.1269989,66.71604156,151.1565094,-10.87933064,-1.990342379,-2.220374107,-102.7703094,38.28661346,-43.58619308
726,2107720861,-158.7221527,65.79275513,152.1975708,-10.90958595,-2.639311075,-2.064092159,-91.14259338,40.91815948,-43.32277298
727,2107737528,-159.3121033,64.95520782,153.0543671,-10.64076042,-2.170310259,-1.80094552,-80.38005829,37.91494751,-37.55111694
728,2107754195,-159.6304016,64.14472961,153.9892578,-10.26211643,-2.870332718,-1.654947042,-67.99804688,35.76856232,-39.17705536
729,2107770862,-159.5559845,63.35928726,154.863327,-9.636811256,-3.833009958,-1.843213081,-40.81858826,34.77542877,-37.71332169
730,2107787529,-159.0591278,62.616436,155.6033325,-9.347483635,-3.525485516,-1.855657101,-7.991599083,33.2775116,-34.1439743
731,2107804196,-158.333786,62.05097198,156.2566986,-9.026057243,-2.962567091,-2.02171731,10.55527496,23.71626472,-28.80468369
732,2107820863,-157.4429779,61.51169586,156.9265594,-8.748996735,-3.418633938,-2.944558382,19.79144096,21.55132675,-29.29553604
733,2107837530,-156.311264,61.08228683,157.595108,-8.399590492,-3.098259211,-3.65186882,34.47772598,14.86389732,-27.33561516
734,2107854197,-155.0923004,60.73836517,158.2656555,-8.040186882,-2.09882164,-3.376297235,39.73908615,9.496465683,-25.8131752
735,2107870864,-153.812973,60.15745163,159.0573425,-7.031989098,-3.107306957,-3.026257515,37.19577789,20.08588219,-35.6603241
736,2107887531,-152.297348,59.41908264,159.9205475,-6.595120907,-5.35982132,-3.688738346,47.93782043,26.42793465,-42.79061127
737,2107904198,-150.6832428,59.04966354,160.3959656,-6.080638409,-4.489759445,-4.555227757,74.09475708,11.26244831,-22.87289429
738,2107920865,-148.8023224,59.07239532,160.7250671,-6.012629986,-1.492390633,-4.500699043,97.67700958,-7.542363644,-7.545654774
739,2107937532,-147.3609161,58.79082108,160.9647827,-5.76201582,-0.848967493,-3.349600077,75.9238739,9.162581444,-14.69741821
740,2107954199,-146.3734131,58.24728012,161.1910858,-6.468372345,-2.989741325,-4.027777672,49.43109131,22.17807198,-23.22944069
741,2107970866,-145.4121857,57.98957825,161.3205566,-6.784261703,-3.368069649,-4.701114655,52.83746338,9.245903969,-11.53235435
742,2107987533,-144.3677368,57.85836792,161.4142914,-6.490958214,-2.992529154,-4.748339653,59.66231155,3.465397596,-6.432647228
743,2108004200,-143.3212585,57.57088089,161.4193115,-6.217709064,-2.831784725,-4.953330517,64.29642487,12.57271767,-9.766144753
744,2108020867,-142.2131958,57.1818428,161.4744415,-6.742712975,-2.5440588,-4.941004276,65.45737457,16.24217415,-15.00320911
745,2108037534,-141.4031677,56.67736816,161.4734192,-6.750639915,-2.982056618,-5.283517361,50.41645432,22.54197693,-18.14917564
746,2108054201,-140.899353,56.42918777,161.3610077,-7.289500713,-2.342353106,-5.344461441,37.61679077,12.65797043,-5.906751156
747,2108070868,-140.5932465,56.41465378,161.2901306,-6.770923615,-1.411731362,-4.313248634,23.67323112,0.887501001,1.804014802
748,2108087535,-140.5479736,56.40275574,161.2471008,-7.075948715,-1.41850853,-3.760163784,6.631723881,0.180063695,1.180969715
749,2108104202,-140.6681671,56.42212296,161.3647308,-8.02785778,-2.493861437,-3.626967669,-11.32530117,-4.655161858,-1.752690792
750,2108120869,-140.7221832,56.52830505,161.5837708,-8.415795326,-3.34844327,-3.69533515,-12.43305779,-10.80584145,-1.055884719
751,2108137536,-140.6091614,56.67498016,161.9074249,-8.483241081,-3.83736968,-3.788278103,-7.667053699,-14.85572624,-2.165453434
752,2108154203,-140.4217987,56.79729843,162.2840729,-8.437335014,-4.531465054,-4.119882584,-5.888493538,-14.81710339,-4.372630596
753,2108170870,-140.0948792,56.90964508,162.7952881,-8.4285326,-4.699520111,-3.957916498,-4.304347515,-17.17267036,-8.056292534
754,2108187537,-139.6405182,57.02416992,163.435257,-8.795383453,-4.628601551,-3.560708761,-3.166952848,-20.00827026,-11.04008102
755,2108204204,-138.6833649,57.01882172,164.1409607,-9.103123665,-6.599121094,-2.318956852,23.67059708,-16.0875988,-17.1091404
756,2108220871,-136.5889282,56.94511795,164.8340607,-9.618951797,-8.393151283,-0.860773325,92.556427,-13.249547,-19.17281342
757,2108237538,-133.2491302,57.1199646,165.6609497,-9.841245651,-6.644129276,-1.379615784,160.5209503,-27.75484276,-11.06926155
758,2108254205,-129.849472,57.64215088,166.5857391,-10.17834568,-2.007427454,-1.90572536,158.9974518,-44.38063431,4.183513165
759,2108270872,-127.1161728,58.23530579,167.6315155,-8.793211937,-2.528460979,-1.246412992,112.5753784,-49.42652512,7.699026108
760,2108287539,-124.4299011,58.79726791,168.4137573,-8.010958672,-3.333921194,-1.808044076,122.9076691,-40.80092621,13.59152985
761,2108304206,-121.7866745,59.35046387,168.8881378,-7.486356735,-2.748228073,-1.718957305,135.9320831,-31.58172226,20.37293053
762,2108320873,-119.3233795,59.95366669,169.5380707,-7.639548302,-1.975165486,-2.061196566,115.9005661,-36.56255722,21.70742226
763,2108337540,-116.9987411,60.56355286,170.746582,-8.324419975,-2.182866573,-1.962624669,78.27350616,-50.18013382,15.83485126
764,2108354207,-114.9708786,61.27659225,172.4387054,-8.418522835,-2.167291641,-1.016509771,34.69742966,-64.29664612,17.38020897
765,2108370874,-112.7967606,62.00161743,174.5605011,-7.460015297,-2.671437502,-1.134298325,20.17122269,-74.09912109,15.82351494
766,2108387541,-110.7436295,62.94151306,176.9582672,-7.212429047,-0.156956822,-1.865287185,-2.637770653,-83.85505676,28.24064255
767,2108404208,-109.6734085,64.16803741,179.6280823,-5.904630661,3.222425938,-1.962173462,-77.45962524,-93.56310272,44.93325424
768,2108420875,-110.2557144,65.20968628,-177.8214722,-4.577654839,1.834988952,-3.853375435,-171.5189819,-84.04348755,36.9078064
769,2108437542,-111.4569397,66.10021973,-175.9967041,-3.44915843,-2.931656122,-7.433987617,-170.0683136,-62.43013,34.36076736
770,2108454209,-112.3520737,67.06620789,-175.5201111,-2.898510933,-5.071397781,-10.65150833,-78.19651794,-33.42165375,50.03314972
771,2108470876,-113.6465454,68.19506073,-176.7459106,-3.26224184,-3.809965372,-11.87958813,-7.900307655,-1.988333225,73.77991486
772,2108487543,-116.6347809,69.09555817,-179.7607727,-4.986104012,-2.893034697,-12.55216026,-9.065161705,35.34374237,77.373703
773,2108504210,-120.6452255,69.56178284,176.3387604,-8.27823925,-7.22185564,-11.12882614,-19.90577126,57.71099472,64.61898041
774,2108520877,-124.7801132,69.75715637,171.622467,-11.11004257,-9.554871559,-8.649085999,18.99489021,75.0001297,63.49313736
775,2108537544,-128.3055573,69.68037415,166.9324951,-13.11302185,-7.689325333,-6.662511826,54.17973709,79.65885162,54.87630081
776,2108554211,-130.9754181,69.12940979,163.3359833,-13.35618401,-6.921283245,-5.006567478,43.55489349,78.08734894,23.49803543
777,2108570878,-132.6576843,68.21278381,161.3339691,-13.86250687,-6.057302475,-3.436898947,12.70181942,67.7880249,-11.32030487
778,2108587545,-133.8330994,66.92072296,160.8159027,-15.16996098,-5.556457996,-3.112554789,-40.0449791,60.32514572,-47.80482864
779,2108604212,-134.5728607,65.54057312,161.2902985,-15.05743694,-5.09859705,-2.384580374,-68.68135071,48.08970261,-66.82209778
780,2108620879,-134.6901398,64.10280609,162.2285614,-13.50064564,-3.763384581,-0.885193408,-56.2305336,42.15488815,-77.67527771
781,2108637546,-134.6364899,62.71763992,163.4356689,-12.26270866,-3.313229084,0.201056153,-59.78714752,33.9720459,-81.35774231
782,2108654213,-134.3596649,61.51224899,164.8275146,-11.33751106,-2.31252718,0.438015968,-55.44487,21.46008301,-78.41864777
783,2108670880,-134.0845184,60.48999405,166.256897,-9.915438652,-1.182110667,0.23316364,-56.73802185,11.63218689,-72.414711
784,2108687547,-134.0988007,59.66818619,167.5385895,-9.097868919,0.215452209,0.743829608,-65.74169159,5.425078869,-61.57408142
785,2108704214,-134.8511658,59.09466934,168.2524414,-8.277510643,0.790509939,1.009792209,-80.23401642,7.225118637,-39.32021713
786,2108720881,-135.7623444,58.945961,168.6225586,-8.569680214,0.790298164,1.239896536,-71.94418335,-2.998625278,-13.89608765
787,2108737548,-136.8132019,59.14205551,168.7157898,-8.957899094,-0.768662989,1.155219555,-66.08487701,-11.78092861,6.544744968
788,2108754215,-137.6794128,59.63066101,168.4381409,-9.343298912,-1.925577879,1.106083989,-35.87250137,-17.03650093,26.62018013
789,2108770882,-138.2558136,60.26216507,167.6668091,-9.937835693,-1.130104423,1.296034694,7.233905315,-13.87332439,43.07264709
790,2108787549,-138.8893738,61.028759,166.7261658,-10.87063789,-2.098250151,0.973474503,12.93561363,-17.40991211,51.66401672
791,2108804216,-139.4667053,62.01625443,165.8478699,-10.64758873,-3.185012579,0.146408424,13.43782997,-29.62070656,58.231884
792,2108820883,-139.7863922,63.13053131,165.0704498,-9.910639763,-3.001213789,-1.258092761,23.98004532,-38.20755005,60.16817474
793,2108837550,-139.9356842,64.31240082,164.6166229,-9.818018913,-1.767958403,-1.707192183,17.21377373,-47.620224,55.42285538
794,2108854217,-140.2291107,65.39098358,164.581955,-8.495724678,-2.852282763,-2.695433378,-13.96740532,-50.24283218,42.69646072
795,2108870884,-140.365799,66.35394287,164.962738,-8.508582115,-3.849504232,-4.224712372,-27.29468155,-51.59106445,30.21803856
796,2108887551,-139.9869385,67.30389404,165.678894,-8.162070274,-3.59465766,-5.440163136,-15.01580715,-55.77987671,24.01734352
797,2108904218,-139.4840546,68.13909149,166.4111328,-7.448301792,-2.663066149,-6.556314945,-8.726390839,-50.1907959,20.18216896
798,2108920885,-139.0870514,68.67356873,166.8684692,-7.361529827,-2.594727755,-8.049301147,0.060375791,-32.10247803,13.76440525
799,2108937552,-139.3029022,69.0458374,166.7155457,-7.462620258,-1.759887457,-8.365757942,-2.639739752,-15.97887421,17.59654236
800,2108954219,-140.3231812,69.34152222,166.0187683,-7.639819622,-0.928484321,-7.910749912,-20.38808823,-5.23431921,23.27713966
801,2108970886,-142.1451263,69.57041168,164.9053192,-8.384213448,-1.125724316,-7.204377651,-45.01059723,2.678749323,27.35017967
802,2108987553,-144.457077,69.68634796,163.5622711,-8.685303688,-2.076725245,-6.690649986,-61.43003845,9.872941017,27.10736656
803,2109004220,-147.0124969,69.66415405,161.9244232,-8.869289398,-2.291877508,-6.543481827,-59.43188858,18.98681831,27.91083908
804,2109020887,-149.6069946,69.47476196,160.0586243,-8.875421524,-1.915574074,-6.598042965,-49.02249908,28.84904861,27.72826004
805,2109037554,-152.268219,69.07498169,158.0075989,-8.855997086,-1.58202517,-6.57456398,-42.83519745,40.75537109,26.85456657
806,2109054221,-154.6724854,68.48244476,156.071228,-8.866624832,-1.938965559,-5.825758934,-34.2128334,49.21196747,22.17996216
807,2109070888,-157.0068512,67.77294922,154.1320648,-9.216310501,-1.978848934,-5.255665779,-30.34939575,55.19033432,22.55318642
808,2109087555,-159.2006073,66.95570374,152.2978821,-9.420475006,-1.892634869,-4.969769478,-28.31067657,59.89455795,21.44197845
809,2109104222,-161.3152466,66.01950836,150.5494537,-9.431400299,-1.626614094,-4.821942806,-28.94074821,65.60656738,20.84506607
810,2109120889,-163.3450623,64.97189331,148.8423004,-9.288022041,-1.462110281,-4.74648571,-26.8384285,71.38213348,21.82745361
811,2109137556,-165.2271271,63.8260231,147.1460876,-9.218192101,-1.352886915,-4.653149128,-19.39830971,76.68942261,24.13624382
812,2109154223,-166.8534546,62.61273575,145.4864807,-9.163870811,-1.260195971,-4.416979313,-6.937079906,80.06703949,26.40369225
813,2109170890,-168.1929932,61.38895416,143.8534851,-9.273950577,-1.245265484,-4.067544937,7.88688612,80.2261734,29.4731884
814,2109187557,-169.3018341,60.17462158,142.2568817,-9.641972542,-1.353123069,-3.873664856,18.82322311,79.18776703,32.07209778
815,2109204224,-170.198288,58.99229813,140.6574402,-9.85059166,-1.55214107,-3.550579786,30.72234917,77.06388092,35.62215805
816,2109220891,-170.8081055,57.87294388,139.0847626,-9.564452171,-1.603730083,-2.983388901,45.5585022,73.01317596,38.08270645
817,2109237558,-171.0896912,56.84305191,137.6170502,-8.990161896,-1.507236004,-2.403907061,59.00764465,67.13485718,37.64240646
818,2109254225,-171.055069,55.90644455,136.3717499,-8.944012642,-1.298777819,-2.788740635,66.04550171,60.59080124,32.62178421
819,2109270892,-170.8370056,55.16267776,135.3765564,-9.753645897,-1.288468242,-2.771739006,64.06451416,48.05993271,26.82564163
820,2109287559,-170.552475,54.62238693,134.6531372,-9.744959831,-0.990617633,-2.607796431,54.33457184,34.71868896,19.88197136
821,2109304226,-170.263855,54.26797485,134.2323914,-9.627052307,-0.660352468,-2.697137356,39.61065292,22.12567902,11.4292345
822,2109320893,-170.0552673,54.09503555,134.1120148,-9.33313942,-0.139543623,-2.634957552,20.13316154,9.676361084,2.897537947
823,2109337560,-169.9950409,54.08306885,134.2836456,-9.0181036,-0.009992538,-2.584400415,-2.965067148,-1.589140058,-5.565473557
824,2109354227,-170.0447083,54.24801254,134.6700134,-8.749932289,-0.604969025,-2.740038395,-20.00747108,-13.33228779,-11.14125633
825,2109370894,-170.0591278,54.58823395,135.2243347,-8.850481033,-0.933261395,-3.071237326,-26.14628792,-24.66566086,-15.01912308
826,2109387561,-170.0709991,55.0740509,135.9134827,-8.95708847,-1.100809216,-3.255978107,-32.74359131,-34.01948929,-17.90893173
827,2109404228,-170.1159515,55.70559692,136.6983643,-8.955225945,-1.163526654,-3.433104038,-39.68445587,-43.11268234,-19.30058098
828,2109420895,-170.207901,56.46238327,137.5304718,-8.893850327,-1.105382204,-3.473998547,-45.17633057,-50.67007828,-19.15154076
829,2109437562,-170.3209076,57.31834793,138.3949585,-8.691327095,-1.20521009,-3.562716722,-48.45422745,-56.56618881,-18.69617271
830,2109454229,-170.4081421,58.26094055,139.2803802,-8.551568031,-1.610399604,-3.67039156,-48.41028214,-61.64301682,-17.90032959
831,2109470896,-170.3959198,59.27111053,140.1963043,-8.588445663,-1.733248234,-3.900832891,-44.48139191,-65.64792633,-17.4282856
832,2109487563,-170.2787476,60.32936859,141.1777802,-8.756345749,-1.79211688,-4.101743221,-42.09128189,-68.69394684,-17.9710865
833,2109504230,-170.0751343,61.40699387,142.2530823,-8.918716431,-1.546192646,-4.521165848,-42.36491013,-70.18856049,-19.3336544
834,2109520897,-169.840271,62.46790695,143.4432831,-9.237342834,-1.321285129,-4.775471687,-47.14729691,-69.65700531,-21.38780975
835,2109537564,-169.5253754,63.46936798,144.8043976,-9.229875565,-1.323172331,-5.301558018,-52.07644653,-66.87991333,-25.15842056
836,2109554231,-168.9256439,64.40024567,146.3522034,-9.198363304,-1.608918428,-5.577365875,-45.66310501,-63.61474991,-29.04457474
837,2109570898,-167.9239655,65.24436188,147.9993439,-9.161425591,-1.792767644,-5.915596008,-27.56208801,-59.18091965,-30.42057037
838,2109587565,-166.4150543,65.9083786,149.643631,-9.03528595,-1.143960953,-6.055980206,2.478922606,-49.03926849,-30.31693268
839,2109604232,-164.7070618,66.45466614,151.3860016,-9.031912804,-0.569166183,-5.745774746,8.614313126,-43.41566086,-32.10583115
840,2109620899,-162.9525757,66.83707428,153.1343231,-8.917939186,0.16493167,-6.075466156,10.73577404,-34.77653503,-32.94987488
841,2109637566,-161.2504883,67.00287628,154.496521,-8.845326424,1.18321979,-6.299187183,28.70376396,-20.49301529,-26.85197449
842,2109654233,-159.8484344,66.69754028,155.0593109,-8.387313843,3.019776106,-7.720614433,54.83884048,11.6511879,-18.06557655
843,2109670900,-159.8304291,66.33153534,154.6186829,-9.371279716,5.815389156,-7.224655628,27.08509445,23.00554848,2.825343132
844,2109687567,-160.8154907,66.19624329,153.9208069,-9.152769089,2.63816762,-5.918486595,-19.02791405,12.0385046,13.5665617
845,2109704234,-161.750885,66.24317932,153.4891815,-9.214678764,-0.11165446,-4.060925961,-30.68302727,-0.619099677,11.18114471
846,2109720901,-162.483429,66.26760864,153.2805328,-8.84510994,-0.701654792,-3.838053226,-30.75278664,-1.154073834,5.625355244
847,2109737568,-163.0255127,66.17752838,153.2844086,-8.96878624,-0.500397742,-4.348323345,-30.99876976,3.82617259,-1.321478844
848,2109754235,-163.513092,65.99324036,153.4207153,-9.076476097,-0.475657642,-4.336599827,-34.99454117,8.323737144,-5.996537209
849,2109770902,-163.9776306,65.7485733,153.6117096,-9.074773788,-1.332102656,-4.146205425,-36.59181595,11.46929264,-8.253941536
850,2109787569,-164.354599,65.52716064,153.7824249,-8.958250999,-2.017710686,-3.927970648,-30.2111969,10.31481552,-7.335580349
851,2109804236,-164.6193237,65.36109924,153.9128723,-8.785453796,-2.056540012,-3.495358944,-21.26146126,7.420210838,-5.436510563
852,2109820903,-164.7928772,65.25,154.0433807,-8.738277435,-1.982556462,-3.363544464,-15.78275204,4.262104511,-4.539740086
853,2109837570,-164.8582611,65.17482758,154.1966248,-8.689231873,-1.826978207,-3.346781731,-10.52643967,2.04679513,-4.517480373
854,2109854237,-164.850647,65.11843872,154.3845673,-8.725149155,-1.691654801,-3.432794809,-8.032118797,0.735961795,-5.067153931
855,2109870904,-164.8429413,65.06651306,154.5886383,-8.759718895,-1.634586573,-3.669125557,-8.895371437,0.371915758,-5.390322685
856,2109887571,-164.7465515,65.03905487,154.855072,-8.784606934,-1.719693303,-3.852804899,-6.962967396,-1.462421417,-6.532033443
857,2109904238,-164.5431213,65.04014587,155.2136383,-8.833601952,-1.50924325,-3.835227728,-5.551325321,-3.746870995,-8.323440552
858,2109920905,-164.2904968,65.0459137,155.6665344,-8.916292191,-0.995474517,-3.931836367,-7.728586197,-4.69182682,-10.53092384
859,2109937572,-164.0506592,65.03910065,156.1620789,-8.943346024,-0.612066746,-4.004686832,-10.8146019,-4.309353352,-11.76177311
860,2109954239,-163.8645325,65.00136566,156.6464081,-8.971627235,-0.379549682,-4.207038403,-13.42506504,-2.494615555,-12.00807858
861,2109970906,-163.7821808,64.92731476,157.0567932,-9.021018028,-0.11825794,-4.290968895,-15.61861897,0.082889207,-10.84093571
862,2109987573,-163.8361664,64.82162476,157.3766785,-9.010146141,0.092731506,-4.262142181,-18.86997986,2.531710386,-9.204847336
863,2110004240,-164.0371399,64.71968842,157.6025696,-9.044466972,0.047865748,-4.120833874,-22.57402611,2.988681316,-6.871222019
864,2110020907,-164.3279572,64.64235687,157.7520142,-9.117630005,-0.301247358,-3.959868908,-23.80967903,2.125468016,-4.59385252
865,2110037574,-164.6090393,64.61100769,157.8214722,-9.08265686,-0.640103042,-3.807696342,-18.8833313,0.040077522,-1.873673916
866,2110054241,-164.8039093,64.61208344,157.8358002,-9.07019043,-0.850731015,-3.740362167,-10.72626972,-1.451177597,0.00535946
867,2110070908,-164.9272156,64.62838745,157.825058,-9.058979988,-0.912614107,-3.770926952,-5.071866035,-2.160098553,0.864576042
868,2110087575,-165.0361938,64.64801788,157.7879028,-9.108799934,-1.040314794,-3.81828022,-2.780002832,-2.177592039,1.567094088
869,2110104242,-165.1153259,64.67906189,157.7668762,-9.058756828,-1.151302099,-3.855369329,-1.863977194,-2.944589853,1.343584776
870,2110120909,-165.1420593,64.71182251,157.771286,-8.965773582,-1.240286827,-3.87342,-0.093972988,-3.211332798,0.742031813
871,2110137576,-165.1062012,64.73713684,157.7980042,-8.907616615,-1.25885272,-3.903220177,2.445276976,-2.924714565,0.073066644
872,2110154243,-165.0185699,64.75757599,157.8328552,-8.898669243,-1.267644525,-3.979186535,5.110739708,-2.692983627,-0.198524058
873,2110170910,-164.9078674,64.77275085,157.8558044,-8.88465023,-1.122981787,-4.019006729,7.140316963,-2.308114529,0.019728186
874,2110187577,-164.7929535,64.7702713,157.8680267,-8.840683937,-0.99550277,-4.111539841,7.984498024,-1.214989781,0.018639645
875,2110204244,-164.684433,64.74943542,157.8628998,-8.849192619,-0.876606941,-4.128653526,8.532790184,-0.039225861,0.145038366
876,2110220911,-164.5971832,64.7201767,157.8349152,-8.881510735,-0.747201622,-4.209071159,8.499941826,0.601725698,0.574768364
877,2110237578,-164.5377808,64.69007111,157.7835388,-8.9060812,-0.666323125,-4.223736286,8.097207069,0.809278309,1.13311255
878,2110254245,-164.5075836,64.66972351,157.7112427,-8.932709694,-0.618060589,-4.213581562,7.466442585,0.378997594,1.785724163
879,2110270912,-164.5076294,64.65326691,157.6268005,-8.920118332,-0.599177539,-4.226362228,6.309989929,0.236373216,2.145313501
880,2110287579,-164.5151978,64.64138794,157.5551453,-8.914478302,-0.646427989,-4.177750111,5.177114487,-0.112990431,1.908818483
881,2110304246,-164.5287476,64.63923645,157.4974365,-8.911105156,-0.757012129,-4.127558231,4.060259342,-0.778446734,1.709858656
882,2110320913,-164.5443878,64.64141083,157.4563141,-8.913545609,-0.76273191,-4.123544693,3.043473721,-1.137946486,1.374601483
883,2110337580,-164.5669708,64.64910889,157.4255066,-8.896897316,-0.858669102,-4.119023323,2.053581238,-1.538080931,1.186169028
884,2110354247,-164.5888672,64.66005707,157.4087524,-8.870698929,-0.937425017,-4.139931202,1.341074467,-1.819846272,0.896040976
885,2110370914,-164.6077881,64.67079163,157.40271,-8.874620438,-0.965540051,-4.173260689,0.952773273,-1.876732111,0.63883841
886,2110387581,-164.620224,64.67729187,157.4048462,-8.883580208,-0.998403013,-4.155538082,0.870210588,-1.698608518,0.337889135
887,2110404248,-164.6297455,64.68135834,157.4039764,-8.898834229,-0.991893172,-4.134981632,1.210846663,-1.538323998,0.373452306
888,2110420915,-164.6445007,64.68196106,157.3930969,-8.884506226,-0.888899088,-4.174207687,1.448212385,-1.267854214,0.574857831
889,2110437582,-164.6548157,64.68237305,157.3824921,-8.87003994,-0.863135934,-4.140599728,1.683849454,-1.266214967,0.543853641
890,2110454249,-164.6575623,64.68283081,157.3741608,-8.884033203,-0.851727366,-4.146327972,1.964782238,-1.30373764,0.431977361
891,2110470916,-164.6552734,64.68196106,157.3724823,-8.893799782,-0.801740468,-4.129906178,1.973708272,-1.249182582,0.316259205
892,2110487583,-164.6587372,64.6835556,157.3678741,-8.893725395,-0.825542152,-4.097947598,1.869938493,-1.344295382,0.510365069
893,2110504250,-164.6640625,64.68927765,157.3631744,-8.918097496,-0.804476857,-4.121428013,1.697091103,-1.607465982,0.503436863
894,2110520917,-164.6496887,64.69953156,157.3777618,-8.907114029,-0.842330337,-4.119458199,2.128959656,-1.896249175,0.410155386
895,2110537584,-164.6296997,64.71088409,157.3817444,-8.915122032,-0.871358812,-4.116851807,2.732317686,-1.998955846,0.359019578
896,2110554251,-164.6064758,64.72315216,157.3842926,-8.936207771,-0.892860055,-4.109473228,3.13255477,-1.997393608,0.541663766
897,2110570918,-164.5894775,64.73545837,157.3655853,-8.924992561,-0.919279099,-4.075330734,3.769555807,-1.90864563,0.91208744
898,2110587585,-164.5657196,64.74443817,157.3542023,-8.879599571,-0.869597018,-4.119158268,3.817591667,-1.751037717,0.718340099
899,2110604252,-164.5428162,64.75057983,157.3408966,-8.852435112,-0.840578079,-4.103636742,3.840617657,-1.586655378,0.68546629
900,2110620919,-164.5184479,64.75423431,157.3297272,-8.881278038,-0.878265917,-4.126054287,3.728499174,-1.491786361,0.501810491
901,2110637586,-164.5031738,64.75793457,157.3166962,-8.892251015,-0.836670697,-4.132102489,3.305953026,-1.474023819,0.567955256
902,2110654253,-164.4956055,64.76763916,157.311676,-8.901873589,-0.840734243,-4.14928484,2.443112373,-1.866384864,0.498173445
903,2110670920,-164.5035706,64.78049469,157.3187714,-8.910939217,-0.791936994,-4.181740761,0.735436678,-2.175376177,0.122511961
904,2110687587,-164.5268402,64.79243469,157.3559875,-8.899525642,-0.704304159,-4.257662296,-1.693268538,-2.283461809,-0.507169962
905,2110704254,-164.5727539,64.79686737,157.4098206,-8.892821312,-0.748590767,-4.233898163,-3.931190968,-1.961369276,-1.020550847
906,2110720921,-164.6313629,64.79728699,157.4692841,-8.878493309,-0.803351581,-4.161774635,-4.920853615,-1.736682177,-1.145630717
907,2110737588,-164.6969147,64.79370117,157.5142517,-8.893508911,-0.81233269,-4.107894421,-4.575900555,-1.417278647,-0.882075727
908,2110754255,-164.7566833,64.79233551,157.5503082,-8.919548035,-0.847878754,-4.051337242,-3.504816532,-1.399029851,-0.378773421
909,2110770922,-164.8122101,64.79483032,157.5593567,-8.941545486,-0.917177498,-4.009866714,-2.033289909,-1.531895518,0.076678015
910,2110787589,-164.8597412,64.80213928,157.5506592,-8.974300385,-0.934627295,-4.0061903,-0.481595516,-1.650008321,0.704650104
911,2110804256,-164.9129333,64.81017303,157.5018616,-8.951994896,-0.962410271,-4.034982681,1.041444421,-1.542422414,1.366968989
912,2110820923,-164.9432831,64.81643677,157.449707,-8.944968224,-0.959541559,-4.040901184,2.69798398,-1.378424048,1.535462022
913,2110837590,-164.9611664,64.82202148,157.3880615,-8.957195282,-0.885419965,-4.090081692,3.908094645,-1.297539353,1.701714158
914,2110854257,-164.9725952,64.82665253,157.3267822,-8.942317009,-0.833727062,-4.097304821,4.400780678,-1.19973731,1.805407286
915,2110870924,-164.9770966,64.83718109,157.2674713,-8.946832657,-0.847315907,-4.10395813,4.73146677,-1.549414873,1.866762638
916,2110887591,-164.9902344,64.8508606,157.2132721,-8.912699699,-0.76937443,-4.143343449,3.942595243,-1.765624523,1.788567066
917,2110904258,-165.013382,64.8555603,157.1773682,-8.886312485,-0.773848295,-4.179604053,2.376531839,-1.361122847,1.221181512
918,2110920925,-165.056778,64.85405731,157.1474304,-8.881118774,-0.7659868,-4.162474632,0.594758868,-1.128546596,0.725767791
919,2110937592,-165.1060638,64.84823608,157.1319427,-8.835760117,-0.792527556,-4.076626301,-0.533678949,-0.971220672,0.31052196
920,2110954259,-165.1620789,64.8316803,157.11203,-8.87338829,-0.84090054,-4.089684486,-0.944135249,-0.411839396,-0.008324128
921,2110970926,-165.2109222,64.81756592,157.0910034,-8.887537003,-0.898353994,-4.058097839,-0.324269563,-0.499934256,0.185685664
922,2110987593,-165.2313232,64.81150055,157.0815887,-8.892285347,-0.941825032,-4.015449524,1.065609932,-0.933659554,0.350311249
923,2111004260,-165.2468872,64.81214142,157.0539703,-8.897126198,-0.951036811,-4.048348427,2.309990168,-1.213696122,0.868865967
924,2111020927,-165.2430878,64.81389618,157.0508728,-8.902513504,-0.899506629,-4.031344891,2.710713625,-1.236068845,0.878611565
925,2111037594,-165.2585907,64.811203,157.0163727,-8.893260002,-0.867736816,-4.06003046,2.385163307,-1.08527422,0.673466742
926,2111054261,-165.2622833,64.80844116,157.0037994,-8.897379875,-0.884349585,-4.060394287,2.170170546,-1.129289627,0.408541769
927,2111070928,-165.2719574,64.80348969,156.9864044,-8.90795517,-0.822769821,-4.109220982,2.002215385,-0.997140825,0.410449922
928,2111087595,-165.2720032,64.79649353,156.9814148,-8.915281296,-0.821645617,-4.100899696,2.114936829,-0.886109829,0.28757301
929,2111104262,-165.2794647,64.79224396,156.9548798,-8.894886971,-0.809195101,-4.104979992,2.534114122,-1.017029166,0.535516798
930,2111120929,-165.2674713,64.79418945,156.9460754,-8.9192276,-0.784585238,-4.134038925,3.148677826,-1.344679475,0.621703386
931,2111137596,-165.2662964,64.79692841,156.9220123,-8.92604351,-0.824944675,-4.131156921,3.196907043,-1.339877248,0.87535888
932,2111154263,-165.2745972,64.79988098,156.8923492,-8.881385803,-0.86246568,-4.133285999,2.862865686,-1.344679475,0.943283737
933,2111170930,-165.2873535,64.7979126,156.8598785,-8.893119812,-0.840029299,-4.121487141,2.532910109,-1.119108558,0.702114522
934,2111187597,-165.2889404,64.79079437,156.8426666,-8.909689903,-0.884192884,-4.124870777,2.561660528,-0.853043854,0.44089058
935,2111204264,-165.284256,64.78392792,156.8462219,-8.934559822,-0.836909592,-4.113796711,2.274740696,-0.838899136,0.411096632
936,2111220931,-165.3054352,64.78379059,156.8252563,-8.912368774,-0.856890023,-4.151124477,1.499040842,-1.26928854,0.534901977
937,2111237598,-165.3373871,64.78879547,156.807251,-8.896382332,-0.821243465,-4.173135281,0.845840156,-1.534725666,0.707723677
938,2111254265,-165.3815308,64.78871918,156.780014,-8.843816757,-0.819943666,-4.170819283,0.367446184,-1.26832819,0.603787363
939,2111270932,-165.4168243,64.78456116,156.767746,-8.830622673,-0.819413006,-4.138029575,0.129401743,-1.116227031,0.207686976
940,2111287599,-165.427002,64.78565979,156.7644196,-8.86660099,-0.818278968,-4.07434988,1.219234824,-1.458745599,0.133461356
941,2111304266,-165.4159851,64.79074097,156.7393951,-8.844854355,-0.835222423,-4.07003212,3.436104298,-1.629877329,0.458857983
942,2111320933,-165.3900757,64.78983307,156.724823,-8.893136978,-0.856399953,-4.147265434,3.707573175,-1.371419311,0.07429605
943,2111337600,-165.3768463,64.78882599,156.725769,-8.909573555,-0.877709568,-4.164545536,2.520001411,-1.321512938,0.12862058
944,2111354267,-165.3813782,64.78630829,156.7249603,-8.902911186,-0.874781489,-4.163244724,1.698269129,-1.169488549,0.309868813
