PacketCounter,SampleTimeFine,Euler_X,Euler_Y,Euler_Z,Acc_X,Acc_Y,Acc_Z,Gyr_X,Gyr_Y,Gyr_Z
0,2095624732,117.8139725,81.46634674,136.5629578,0,0,0,0,0,0
1,2095641399,117.8121185,81.42771912,136.5345001,-9.672599792,1.278952599,-0.640797794,0.894414723,1.388624668,3.185624599
2,2095658066,117.646347,81.39622498,136.325592,-9.655585289,1.276622176,-0.672550917,0.892109573,1.448443055,3.156080246
3,2095674733,117.5666656,81.35816956,136.2084351,-9.664278984,1.276307344,-0.662088394,0.961315095,1.276184797,3.198085308
4,2095691400,117.4936905,81.31926727,136.1137848,-9.652749062,1.303454757,-0.632946014,0.877433419,1.219158053,3.2972188
5,2095708067,117.3799973,81.27744293,136.0113983,-9.670478821,1.290634155,-0.689118326,0.787020564,1.343943119,3.196983337
6,2095724734,117.3276138,81.23487091,135.950882,-9.6509552,1.293603659,-0.646178722,0.879264832,1.198373437,3.07434988
7,2095741401,117.2506638,81.19230652,135.8757782,-9.653237343,1.283109188,-0.684563994,1.05965507,1.086343527,3.224799156
8,2095758068,117.1916733,81.14925385,135.792038,-9.653764725,1.285735488,-0.671368361,0.925495684,0.991986156,3.286986589
9,2095774735,117.1410141,81.10733795,135.7322693,-9.658794403,1.286567211,-0.685470164,0.986863613,0.964580655,3.265843153
10,2095791402,117.1005096,81.06686401,135.7059021,-9.663649559,1.315398455,-0.679294944,0.989104807,0.896437883,3.192219257
11,2095808069,117.0430527,81.02714539,135.6394196,-9.637570381,1.322120905,-0.679113805,1.076457024,0.690076649,3.146104336
12,2095824736,116.9968796,80.98552704,135.5983124,-9.648276329,1.327261448,-0.659690499,1.096959949,0.807920635,3.121323824
13,2095841403,116.9589996,80.94364166,135.5453033,-9.634397507,1.311826229,-0.667925715,1.052995563,0.935113192,3.043908834
14,2095858070,116.9262543,80.90130615,135.520401,-9.634080887,1.319432378,-0.649086118,0.869262993,1.025846243,3.044869423
15,2095874737,116.8924332,80.85971832,135.4741821,-9.691966057,1.334247828,-0.677476227,0.776993215,1.050216675,2.989648342
16,2095891404,116.8522186,80.81872559,135.4195862,-9.653576851,1.312590957,-0.680231988,0.873706877,0.951876819,2.990186691
17,2095908071,116.8154449,80.77823639,135.3901062,-9.65894413,1.314995766,-0.665654957,0.899044156,0.935222089,2.97312212
18,2095924738,116.765976,80.73806763,135.3495941,-9.661190033,1.322813749,-0.675049603,0.943655014,0.821059942,3.039990425
19,2095941405,116.7085648,80.69821167,135.2800903,-9.636755943,1.343448877,-0.675636768,1.088334799,0.707486808,3.075252533
20,2095958072,116.654129,80.66120911,135.2144623,-9.640269279,1.344476461,-0.664222598,0.970535755,0.663823664,2.88238287
21,2095974739,116.5836258,80.62055206,135.1287994,-9.643291473,1.324408054,-0.66073662,1.000291109,0.618431449,3.140027046
22,2095991406,116.5041809,80.58000946,135.0428619,-9.654824257,1.326881409,-0.674692392,0.924772084,0.545640111,3.178535938
23,2096008073,116.4217377,80.53988647,134.9500885,-9.653357506,1.346808434,-0.659210205,0.848081291,0.50720185,3.181666613
24,2096024740,116.3280792,80.5002594,134.8513794,-9.657617569,1.341878057,-0.689140379,0.741942286,0.408516139,3.193128586
25,2096041407,116.2311859,80.45987701,134.7410278,-9.654114723,1.336959362,-0.663821876,0.849253118,0.357450843,3.263429642
26,2096058074,116.133049,80.41960907,134.6359711,-9.671328545,1.340080738,-0.655143261,0.88737756,0.330775172,3.275185347
27,2096074741,116.0412292,80.38040161,134.5158691,-9.670797348,1.349999309,-0.665641069,0.965745986,0.347506702,3.207407713
28,2096091408,115.9509354,80.3397522,134.4049072,-9.650514603,1.350028753,-0.664062858,0.921058297,0.394307494,3.275915384
29,2096108075,115.8491745,80.29947662,134.2992554,-9.635572433,1.358811617,-0.646937966,0.899524391,0.275112391,3.314071894
30,2096124742,115.741394,80.25831604,134.1861725,-9.65020752,1.346668839,-0.668121755,0.959214807,0.230315775,3.391588688
31,2096141409,115.6176987,80.21618652,134.0598297,-9.646282196,1.354218841,-0.653335154,0.799551725,0.113656379,3.512000799
32,2096158076,115.4933243,80.17362976,133.9275208,-9.671868324,1.379413366,-0.653411448,0.806710422,0.107125111,3.543222427
33,2096174743,115.3770905,80.13046265,133.8025208,-9.656480789,1.365746021,-0.661126435,0.866919518,0.180768043,3.545623779
34,2096191410,115.2651367,80.08805084,133.6688385,-9.636707306,1.383528829,-0.629889667,0.861598492,0.191262856,3.49394393
35,2096208077,115.1474304,80.04598236,133.5449371,-9.626509666,1.401729345,-0.655407548,0.920846939,0.11156252,3.499533892
36,2096224744,115.0195847,80.00334167,133.414093,-9.653805733,1.395269275,-0.677104533,0.84857434,0.025484636,3.563648462
37,2096241411,114.8864899,79.96022797,133.270813,-9.643953323,1.373239756,-0.62207979,0.862789333,-0.035953827,3.616551399
38,2096258078,114.74617,79.91793823,133.1190033,-9.642806053,1.39313221,-0.649767399,0.722944021,-0.109635167,3.600825787
39,2096274745,114.6191406,79.87453461,132.9809875,-9.641079903,1.419138789,-0.608024299,0.708498538,0.033309314,3.602451801
40,2096291412,114.5041809,79.83140564,132.86203,-9.654069901,1.426982045,-0.64343679,0.768982947,0.133403763,3.539060593
41,2096308079,114.3933182,79.78947449,132.7322388,-9.637365341,1.433856606,-0.613768518,0.769328713,0.131239489,3.448942184
42,2096324746,114.2916718,79.74997711,132.6187592,-9.652531624,1.413980126,-0.64173156,0.926667571,0.132712215,3.284854889
43,2096341413,114.1959,79.711586,132.5080261,-9.644534111,1.448533416,-0.642798543,0.878489912,0.163601115,3.202522278
44,2096358080,114.111618,79.67566681,132.4083862,-9.645991325,1.437858462,-0.632457376,1.032972932,0.181261063,3.024373055
45,2096374747,114.036499,79.63986206,132.3116302,-9.631080627,1.443729639,-0.629704356,1.100283027,0.249160334,2.977540255
46,2096391414,113.9761353,79.60331726,132.2393341,-9.638758659,1.421488643,-0.60237509,1.083609343,0.41169858,2.951044083
47,2096408081,113.9267883,79.56787109,132.1752625,-9.625864029,1.43509233,-0.638011515,1.056690335,0.503443301,2.8454175
48,2096424748,113.8898163,79.5324173,132.1378784,-9.634223938,1.43755877,-0.621622682,0.958542466,0.640676081,2.789952755
49,2096441415,113.8680801,79.49730682,132.1045227,-9.647517204,1.447688222,-0.620507717,1.072595716,0.76612699,2.712577105
50,2096458082,113.8596878,79.4640274,132.0812378,-9.629243851,1.425909162,-0.629202664,0.984987557,0.872855127,2.546644926
51,2096474749,113.8584595,79.43089294,132.0734711,-9.635930061,1.421452641,-0.630297005,0.84728086,0.964497447,2.501899719
52,2096491416,113.8570938,79.39783478,132.062973,-9.643007278,1.450160027,-0.610870838,0.817864656,0.968569815,2.507483006
53,2096508083,113.866806,79.36662292,132.0609283,-9.626737595,1.446412444,-0.619956017,0.861226976,1.031128883,2.357213497
54,2096524750,113.8816681,79.33511353,132.0657196,-9.636898994,1.430522084,-0.615678668,0.950256824,1.082187772,2.363898516
55,2096541417,113.8984299,79.30334473,132.0746918,-9.625761032,1.446153402,-0.64574784,0.870985329,1.124461532,2.367266655
56,2096558084,113.9030075,79.27215576,132.0670776,-9.634898186,1.446686268,-0.654573679,0.988688648,0.96422857,2.406928062
57,2096574751,113.8978653,79.24210358,132.0516968,-9.634435654,1.441600323,-0.648232698,0.996679783,0.831900418,2.3957479
58,2096591418,113.8953018,79.21179199,132.0335083,-9.636556625,1.439651012,-0.641900837,1.216116548,0.825317919,2.420092821
59,2096608085,113.8790283,79.18096161,132.0039978,-9.630707741,1.435432673,-0.625991464,1.063464999,0.720395565,2.507828951
60,2096624752,113.858429,79.14902496,131.9688721,-9.64131546,1.44062078,-0.647677958,1.144068003,0.691081822,2.6036973
61,2096641419,113.8303146,79.11800385,131.9208221,-9.632893562,1.463916659,-0.640064359,1.249669194,0.569216669,2.606258631
62,2096658086,113.8014679,79.09015656,131.8724518,-9.641996384,1.460342526,-0.601765275,1.4055866,0.450962752,2.441863537
63,2096674753,113.8090973,79.06345367,131.8562775,-9.658685684,1.456382513,-0.621599197,1.56688261,0.792098403,2.236475468
64,2096691420,113.862709,79.03617859,131.8859558,-9.625261307,1.455941081,-0.601733327,1.569776773,1.297142267,2.056392431
65,2096708087,113.9289856,79.01113892,131.9382019,-9.640203476,1.497400999,-0.620606363,1.487175941,1.40118134,1.872839212
66,2096724754,114.0279083,78.99042511,132.0196228,-9.629841805,1.4874084,-0.63427788,1.64894557,1.621437669,1.491350651
67,2096741421,114.1398697,78.97215271,132.1122284,-9.624152184,1.454509854,-0.615932822,1.733608365,1.69248724,1.304326773
68,2096758088,114.3013229,78.95167542,132.2508392,-9.642364502,1.445230126,-0.621496499,1.826582789,2.270847797,1.20077467
69,2096774755,114.4944534,78.93251801,132.4212799,-9.635149002,1.467142344,-0.661658704,1.758785605,2.59691,0.969735205
70,2096791422,114.6970901,78.91747284,132.6056671,-9.609148979,1.475769401,-0.66918093,1.658383846,2.616644382,0.68502444
71,2096808089,114.9060516,78.90342712,132.7974091,-9.637765884,1.4352355,-0.665636122,1.792607069,2.639554977,0.606419027
72,2096824756,115.1118698,78.89039612,132.9932861,-9.618971825,1.431834459,-0.671735823,1.643797398,2.612431526,0.555411398
73,2096841423,115.3124847,78.87741089,133.1759033,-9.635944366,1.432678461,-0.666298509,1.67052424,2.554495335,0.579333603
74,2096858090,115.4926147,78.86425781,133.3432617,-9.622913361,1.430870771,-0.701853514,1.55869925,2.366472721,0.684614658
75,2096874757,115.6724243,78.85076141,133.5055237,-9.648743629,1.413749933,-0.67789638,1.680167437,2.351552963,0.713108778
76,2096891424,115.8278275,78.83920288,133.6443024,-9.640213966,1.417351723,-0.700265765,1.598770261,2.063218117,0.733829439
77,2096908091,115.9894562,78.82805634,133.7888336,-9.628530502,1.422395349,-0.694151461,1.761744022,2.095426321,0.699098647
78,2096924758,116.1556854,78.81777954,133.9403534,-9.63068676,1.41048038,-0.693085313,1.819654226,2.115800858,0.637205541
79,2096941425,116.3179169,78.80754089,134.0885773,-9.651803017,1.399365664,-0.704179883,1.580290914,2.11928463,0.638601482
80,2096958092,116.4795609,78.79828644,134.2361603,-9.644628525,1.371830463,-0.713404894,1.706996679,2.066419601,0.602231324
81,2096974759,116.6362762,78.78934479,134.3740082,-9.637052536,1.381186128,-0.717557609,1.879446983,1.983536959,0.639856458
82,2096991426,116.799675,78.78030396,134.5130157,-9.626735687,1.408782601,-0.713328719,1.917238832,2.055073261,0.619699299
83,2097008093,116.9686966,78.77107239,134.6673279,-9.632760048,1.420660257,-0.718551874,1.872377872,2.132564545,0.602525949
84,2097024760,117.1290817,78.76430511,134.8147125,-9.644533157,1.378079653,-0.70832932,1.823726535,1.985227346,0.511344731
85,2097041427,117.2738266,78.75883484,134.944397,-9.645166397,1.364011765,-0.7372486,1.746363401,1.804248095,0.528543651
86,2097058094,117.3954926,78.75130463,135.0492859,-9.641601563,1.367814422,-0.745034158,1.739678621,1.62270534,0.775539815
87,2097074761,117.4962616,78.74394226,135.1361084,-9.652472496,1.362463117,-0.747627139,1.640595913,1.417522073,0.881409883
88,2097091428,117.5815887,78.73449707,135.203476,-9.638161659,1.361028671,-0.756067395,1.713528156,1.305210471,1.096569419
89,2097108095,117.6438522,78.72635651,135.2462921,-9.6453619,1.361232638,-0.745657265,1.714194059,1.027376652,1.165634036
90,2097124762,117.6966324,78.71884155,135.2833099,-9.668338776,1.365706921,-0.752571702,1.690553546,0.920392454,1.198149323
91,2097141429,117.740799,78.71017456,135.3139648,-9.662599564,1.356253982,-0.706587076,1.669115663,0.86800164,1.315993428
92,2097158096,117.7682648,78.70068359,135.3251801,-9.646669388,1.351171017,-0.74628216,1.663801074,0.721240759,1.461832047
93,2097174763,117.794754,78.69271851,135.3327332,-9.653801918,1.350056171,-0.772816002,1.690886617,0.671846807,1.404818296
94,2097191430,117.7986603,78.68232727,135.324646,-9.648881912,1.340167522,-0.762518585,1.654439449,0.508527339,1.67194581
95,2097208097,117.7984848,78.67227936,135.3075409,-9.637753487,1.356168509,-0.748084724,1.741304874,0.443676025,1.697315216
96,2097224764,117.7802734,78.6604538,135.2749634,-9.629994392,1.358594298,-0.772467911,1.613932967,0.329993993,1.89590323
97,2097241431,117.7515717,78.64980316,135.2325592,-9.646532059,1.345312357,-0.727904141,1.528348327,0.203377664,1.898490191
98,2097258098,117.7092667,78.63677216,135.1728973,-9.642960548,1.349388719,-0.760935128,1.661073208,0.105985358,2.126135826
99,2097274765,117.6623688,78.62657166,135.1103363,-9.640766144,1.382515192,-0.713239491,1.524083853,0.006902623,2.004462719
100,2097291432,117.6216888,78.61490631,135.055191,-9.656024933,1.353417039,-0.71865356,1.41817534,0.13942273,2.049771547
101,2097308099,117.6055984,78.60379791,135.0232849,-9.653841972,1.367084742,-0.714703739,1.532753706,0.37061581,1.903766513
102,2097324766,117.5989227,78.59092712,135.0025635,-9.646869659,1.360684037,-0.702338636,1.583095312,0.518426597,1.963366985
103,2097341433,117.5900116,78.57821655,134.9818268,-9.642268181,1.367460132,-0.730950415,1.529308558,0.513355315,1.983191371
104,2097358100,117.5986633,78.56562805,134.9748993,-9.648518562,1.368846297,-0.747995555,1.588858366,0.691619754,1.892163873
105,2097374767,117.6174545,78.55196381,134.9784698,-9.635437965,1.364695668,-0.721585214,1.608554244,0.831477821,1.90626359
106,2097391434,117.6467056,78.53874207,134.9963379,-9.617657661,1.351230979,-0.71898067,1.524826527,0.954546809,1.831256747
107,2097408101,117.675621,78.52619934,135.0119476,-9.653136253,1.351468444,-0.743263662,1.592175007,0.928870082,1.819718242
108,2097424768,117.7090912,78.51374054,135.0346375,-9.648501396,1.345903516,-0.74325937,1.613126397,0.978712559,1.806784034
109,2097441435,117.7465363,78.50159454,135.0598145,-9.649543762,1.364973783,-0.71066004,1.647588253,1.013968349,1.786972642
110,2097458102,117.7916107,78.48794556,135.0932922,-9.641969681,1.366958261,-0.699307382,1.575321913,1.156938553,1.823982835
111,2097474769,117.8466492,78.47564697,135.1327515,-9.626454353,1.383298397,-0.753886938,1.502184749,1.254176974,1.706817389
112,2097491436,117.9093094,78.46329498,135.1812286,-9.646440506,1.350450993,-0.739674211,1.569546223,1.32982409,1.680141807
113,2097508103,117.9702377,78.45253754,135.2295532,-9.638476372,1.348624945,-0.74814266,1.565998912,1.276229501,1.622167468
114,2097524770,118.0222549,78.44168091,135.2754517,-9.647006035,1.363064766,-0.748403966,1.524019718,1.196471691,1.690476537
115,2097541437,118.0755844,78.43123627,135.318573,-9.642044067,1.339848757,-0.745541692,1.526388764,1.207549095,1.674724579
116,2097558104,118.1379013,78.42147827,135.3703308,-9.642270088,1.364483595,-0.749747992,1.469976783,1.302431345,1.594621062
117,2097574771,118.1953201,78.41256714,135.4203491,-9.652812958,1.354635,-0.748656154,1.47541976,1.232457519,1.593814373
118,2097591438,118.2607651,78.40364838,135.4763947,-9.646306992,1.324485064,-0.778011739,1.539950728,1.315481067,1.567702174
119,2097608105,118.3188248,78.394104,135.532135,-9.654635429,1.343796253,-0.748412013,1.450716138,1.275832534,1.652403235
120,2097624772,118.3739014,78.3843689,135.5799561,-9.648174286,1.369059563,-0.758431256,1.374364853,1.267316461,1.683266759
121,2097641439,118.4375687,78.37463379,135.6365509,-9.645157814,1.351267576,-0.790307999,1.466160536,1.353234291,1.655925035
122,2097658106,118.4858093,78.36514282,135.6783905,-9.657781601,1.347418666,-0.770386696,1.354412556,1.205423236,1.738551736
123,2097674773,118.5212708,78.35539246,135.7106934,-9.644626617,1.333523154,-0.747508228,1.349161863,1.084185719,1.844677925
124,2097691440,118.5671234,78.34485626,135.7509155,-9.64024353,1.342146993,-0.760416269,1.373724222,1.217576385,1.836340785
125,2097708107,118.6150589,78.33446503,135.7904205,-9.656277657,1.352218747,-0.7414186,1.361173987,1.24750495,1.829707146
126,2097724774,118.6563873,78.325737,135.8220673,-9.646205902,1.340348125,-0.754353881,1.356487155,1.14370954,1.804197073
127,2097741441,118.6987839,78.31643677,135.8589935,-9.633756638,1.331342697,-0.775329173,1.360469699,1.174739242,1.838044047
128,2097758108,118.7466812,78.30677795,135.8983917,-9.659083366,1.34216094,-0.775833189,1.41898191,1.238796592,1.840144396
129,2097774775,118.8011169,78.29756927,135.948822,-9.650162697,1.335730791,-0.749767125,1.39833796,1.31257391,1.798587799
130,2097791442,118.8553467,78.28842926,135.9976654,-9.650782585,1.32823813,-0.762594521,1.408019781,1.312407374,1.807872295
131,2097808109,118.9068909,78.27872467,136.0431366,-9.645353317,1.343903542,-0.76259017,1.359573364,1.320104241,1.868318439
132,2097824776,118.9545517,78.27200317,136.0827179,-9.645466805,1.336896777,-0.80753237,1.425000787,1.183806181,1.749116778
133,2097841443,118.9939575,78.26686859,136.1146088,-9.639486313,1.313028812,-0.772573352,1.418866754,1.054859161,1.734197497
134,2097858110,119.0252304,78.26119232,136.1372375,-9.644785881,1.327642322,-0.781621277,1.437743187,0.98583293,1.82829845
135,2097874777,119.0463867,78.25462341,136.1468048,-9.641617775,1.320682406,-0.775718629,1.513979554,0.896393299,1.961856008
136,2097891444,119.0619888,78.24788666,136.1576691,-9.647917747,1.3426615,-0.789107919,1.445644736,0.860599458,2.0147717
137,2097908111,119.073204,78.24195099,136.161438,-9.648327827,1.337619901,-0.781415462,1.460602522,0.790126085,2.012837887
138,2097924778,119.0769424,78.2381134,136.1573334,-9.66003418,1.336900234,-0.780533671,1.538503408,0.641943872,1.973214984
139,2097941445,119.0937729,78.23511505,136.1643677,-9.659733772,1.33128953,-0.75025171,1.493668675,0.774707377,1.855550528
140,2097958112,119.1198425,78.23061371,136.1848755,-9.641764641,1.343642473,-0.748616636,1.431570649,0.941061795,1.891741276
141,2097974779,119.1439209,78.2258606,136.2016144,-9.647198677,1.318587303,-0.773262978,1.489058256,0.925655723,1.936102271
142,2097991446,119.1716003,78.21983337,136.2212677,-9.64077282,1.346395373,-0.770124018,1.549260736,0.996923089,2.002016306
143,2098008113,119.202446,78.21483612,136.2458954,-9.637316704,1.319194913,-0.79188168,1.510444999,1.013353705,1.93509078
144,2098024780,119.2222137,78.21073151,136.2606201,-9.623059273,1.330004096,-0.772059262,1.38468647,0.8975842,1.958590269
145,2098041447,119.2495956,78.20545197,136.2834167,-9.654229164,1.322107553,-0.763798594,1.451587081,1.011291862,1.997995615
146,2098058114,119.2740631,78.20085907,136.3045349,-9.653193474,1.317127466,-0.788629532,1.3952775,0.978430688,1.988710761
147,2098074781,119.3033905,78.19702148,136.3275452,-9.645652771,1.347211003,-0.763812184,1.390859246,1.014019489,1.931824923
148,2098091448,119.3249054,78.19495392,136.3418579,-9.644841194,1.33646667,-0.796160936,1.376644254,0.892397761,1.902959704
149,2098108115,119.3502655,78.19203186,136.3659973,-9.660122871,1.314833999,-0.801355541,1.464470029,0.942611337,1.940494776
150,2098124782,119.3720398,78.18965912,136.3816071,-9.64895916,1.338246703,-0.788616836,1.491209745,0.889119089,1.952519774
151,2098141449,119.3995361,78.18805695,136.4097748,-9.652122498,1.326990843,-0.777176619,1.55416584,0.926462531,1.901179314
152,2098158116,119.4138794,78.18686676,136.419281,-9.639544487,1.333030701,-0.809129775,1.50388813,0.783825397,1.964186549
153,2098174783,119.4408188,78.1860733,136.4406738,-9.64409256,1.337939024,-0.79406476,1.41566515,0.933313906,1.872429132
154,2098191450,119.461937,78.18510437,136.4537048,-9.654724121,1.331529737,-0.790483952,1.432057381,0.876774013,1.931172013
155,2098208117,119.4859085,78.18605804,136.4775391,-9.655414581,1.333946466,-0.784907639,1.446502924,0.854977608,1.82873404
156,2098224784,119.5079575,78.18719482,136.4948578,-9.638633728,1.316117167,-0.800418258,1.457388163,0.831836522,1.842039943
157,2098241451,119.526535,78.18540955,136.5074005,-9.63985157,1.332602262,-0.774023771,1.452521801,0.887044549,2.030024052
158,2098258118,119.535675,78.18514252,136.5153809,-9.656420708,1.327748895,-0.79637295,1.395392776,0.759915948,2.020265579
159,2098274785,119.5451813,78.1847229,136.515564,-9.65557766,1.324043751,-0.796648562,1.37787354,0.774246216,2.030152321
160,2098291452,119.5553741,78.18495941,136.5225677,-9.647563934,1.324791908,-0.802417934,1.406457424,0.761516809,2.009905338
161,2098308119,119.5632401,78.1852951,136.5296021,-9.640415192,1.328715444,-0.802868843,1.372366667,0.744100094,2.026092291
162,2098324786,119.5632706,78.18556213,136.5317383,-9.648896217,1.323367596,-0.786718905,1.327890515,0.675291657,2.088831186
163,2098341453,119.5537491,78.18504333,136.5221252,-9.628371239,1.33650887,-0.795901239,1.366936922,0.595610559,2.205688953
164,2098358120,119.5327072,78.18438721,136.4984131,-9.650316238,1.329758406,-0.789864838,1.280673385,0.488331735,2.280132294
165,2098374787,119.5133133,78.18475342,136.4748077,-9.656380653,1.329847336,-0.810007811,1.401911139,0.466099948,2.246861219
166,2098391454,119.4835434,78.18563843,136.4396515,-9.622653961,1.326329231,-0.804987431,1.334152579,0.351867259,2.285049677
167,2098408121,119.4447403,78.18715668,136.4001465,-9.639765739,1.326370835,-0.772758901,1.30060029,0.244601294,2.3156569
168,2098424788,119.39534,78.18850708,136.3501892,-9.660656929,1.321236134,-0.785019159,1.366744995,0.125694335,2.406607866
169,2098441455,119.3361893,78.18897247,136.2886658,-9.644599915,1.319755554,-0.791018844,1.364888072,0.053312838,2.525617123
170,2098458122,119.2698822,78.19031525,136.2206268,-9.649690628,1.338502407,-0.774271786,1.322857499,-0.039616443,2.52771759
171,2098474789,119.1834183,78.19155884,136.1344299,-9.654590607,1.318227053,-0.789318681,1.226092696,-0.234657124,2.654243946
172,2098491456,119.0724487,78.19343567,136.0185089,-9.641234398,1.314078569,-0.802991271,1.348764896,-0.539883733,2.795588017
173,2098508123,118.9494247,78.19612122,135.896225,-9.635802269,1.349521399,-0.775968909,1.276920915,-0.681918919,2.824952602
174,2098524790,118.8226166,78.19752502,135.7677612,-9.63479805,1.34180665,-0.755131721,1.193449259,-0.670316339,2.908052683
175,2098541457,118.6876526,78.19958496,135.6312256,-9.649187088,1.340522766,-0.779360116,1.166171789,-0.765723646,2.931258202
176,2098558124,118.5601425,78.20144653,135.5036316,-9.644257545,1.342727065,-0.759746492,1.239385724,-0.687566578,2.910716772
177,2098574791,118.4279938,78.20275116,135.3693848,-9.654261589,1.36093235,-0.754768133,1.223889828,-0.719134092,2.969856262
178,2098591458,118.2966232,78.20658875,135.2343903,-9.648147583,1.365107656,-0.7536726,1.246429324,-0.780694306,2.841101646
179,2098608125,118.1750183,78.21014404,135.1114502,-9.653653145,1.36453259,-0.734361231,1.378334761,-0.687438548,2.812351227
180,2098624792,118.0559158,78.21281433,134.9894714,-9.634426117,1.34557271,-0.753317058,1.306952,-0.617169917,2.844469547
181,2098641459,117.9443665,78.21551514,134.8751678,-9.654960632,1.371486187,-0.740656614,1.309705496,-0.5325073,2.802234411
182,2098658126,117.845871,78.21981049,134.7720032,-9.635033607,1.37981236,-0.729029894,1.367231369,-0.440941811,2.650875807
183,2098674793,117.7642136,78.22197723,134.6824493,-9.635025024,1.361213088,-0.714870691,1.393894315,-0.192639545,2.675669193
184,2098691460,117.6925583,78.22455597,134.6132965,-9.633792877,1.375623941,-0.720145822,1.302815557,-0.072541572,2.592939854
185,2098708127,117.6216354,78.22831726,134.5446472,-9.652902603,1.372484803,-0.729712188,1.304582953,-0.096322961,2.52733326
186,2098724794,117.5512466,78.23213196,134.4710236,-9.645650864,1.374038577,-0.738509417,1.452022314,-0.11203634,2.545364618
187,2098741461,117.4893875,78.23516846,134.4118958,-9.642299652,1.381695986,-0.710427463,1.417983174,0.014048567,2.540882349
188,2098758128,117.4417419,78.23925018,134.3700104,-9.63907814,1.369381547,-0.709675372,1.390231729,0.152216271,2.405442238
189,2098774795,117.3998642,78.24156952,134.3299408,-9.642557144,1.373713613,-0.71824044,1.339864492,0.275861591,2.463916063
190,2098791462,117.3614502,78.24604034,134.2921143,-9.640023232,1.387509108,-0.713560522,1.294888616,0.270713419,2.336544037
191,2098808129,117.3328323,78.25088501,134.2654724,-9.64409256,1.373878598,-0.718295515,1.287409425,0.371998817,2.261178493
192,2098824796,117.3121185,78.25601959,134.2507324,-9.643139839,1.381087542,-0.716391504,1.328018308,0.450770676,2.21487093
193,2098841463,117.2916183,78.25984192,134.2335968,-9.659964561,1.356765747,-0.733155847,1.290739298,0.496809542,2.283039093
194,2098858130,117.2699661,78.26434326,134.2103119,-9.635791779,1.381397367,-0.744692981,1.313124537,0.466791421,2.265852928
195,2098874797,117.2516632,78.26922607,134.1924591,-9.629246712,1.373865366,-0.708534181,1.258083105,0.502431512,2.223002911
196,2098891464,117.2376556,78.27436829,134.182312,-9.632835388,1.382612824,-0.704475641,1.345255733,0.533038676,2.201757193
197,2098908131,117.2206879,78.27931213,134.1667786,-9.637480736,1.385116816,-0.712875724,1.30816853,0.515993357,2.230353594
198,2098924798,117.213028,78.28369904,134.1669312,-9.633764267,1.396049619,-0.719012618,1.226400018,0.650959492,2.201936483
199,2098941465,117.2157745,78.28955841,134.1754761,-9.647088051,1.388204694,-0.693399847,1.37567091,0.703401625,2.08678174
200,2098958132,117.2212372,78.29425812,134.1839294,-9.644407272,1.380189538,-0.726076782,1.325188398,0.775821507,2.129709005
201,2098974799,117.2402496,78.29920197,134.2049255,-9.643437386,1.369851947,-0.732347727,1.292096615,0.926654637,2.04005146
202,2098991466,117.2594757,78.30351257,134.2312164,-9.642521858,1.393756747,-0.723131657,1.348611116,0.939550579,2.086205721
203,2099008133,117.2901917,78.30828094,134.2697449,-9.64128685,1.385172486,-0.730016768,1.241665244,1.077039599,1.992732048
204,2099024800,117.3244553,78.31453705,134.3094482,-9.628517151,1.366759658,-0.718197942,1.379282475,1.049775004,1.909260273
205,2099041467,117.3672943,78.31991577,134.3578644,-9.64321804,1.395462155,-0.682152987,1.364580512,1.174214125,1.911424398
206,2099058134,117.4398193,78.32315063,134.4281921,-9.657775879,1.388536215,-0.700952649,1.565115333,1.524416804,1.875387669
207,2099074801,117.5245361,78.32744598,134.5118408,-9.638575554,1.37613523,-0.740632355,1.521048427,1.639994025,1.749667525
208,2099091468,117.602005,78.33296204,134.5895081,-9.638557434,1.402504206,-0.741101503,1.668974757,1.504105806,1.74828434
209,2099108135,117.6825333,78.33921051,134.669632,-9.641430855,1.372145534,-0.743902683,1.560095072,1.533419371,1.679412007
210,2099124802,117.758049,78.34526062,134.7489166,-9.643906593,1.371502161,-0.74847281,1.585733414,1.480093837,1.725092053
211,2099141469,117.8414993,78.35077667,134.8302917,-9.636370659,1.386465073,-0.729355574,1.725975752,1.556855083,1.724861503
212,2099158136,117.935318,78.35488892,134.923233,-9.642214775,1.350324392,-0.743310511,1.667169094,1.721801043,1.736336231
213,2099174803,118.0138702,78.3577652,135.0132599,-9.638157845,1.364906311,-0.760472536,1.503452659,1.620630741,1.878576279
214,2099191470,118.0757751,78.36296082,135.0741577,-9.642355919,1.388621926,-0.757842958,1.452240229,1.381203294,1.850261569
215,2099208137,118.1431732,78.3693924,135.1477356,-9.647467613,1.366781235,-0.736501992,1.399862051,1.416023612,1.749565005
216,2099224804,118.2118912,78.37653351,135.2188416,-9.653800964,1.3754673,-0.748138905,1.512532353,1.391256213,1.719175696
217,2099241471,118.2897491,78.3830719,135.3026276,-9.647551537,1.370735526,-0.753556967,1.449883819,1.519678354,1.694011211
218,2099258138,118.3736801,78.38919067,135.3939667,-9.648524284,1.390027881,-0.737737417,1.497830749,1.589178443,1.685866237
219,2099274805,118.4755859,78.39586639,135.4983368,-9.653536797,1.377568603,-0.757891119,1.516399622,1.765022278,1.556381106
220,2099291472,118.5829697,78.40287018,135.6069641,-9.647244453,1.352416396,-0.73579973,1.509804606,1.812636137,1.504041553
221,2099308139,118.6914597,78.41046143,135.7190552,-9.692410469,1.275816321,-0.762244344,1.619964719,1.789789677,1.480273247
222,2099324806,118.772316,78.41866302,135.7957764,-9.638325691,1.340969205,-0.75362736,2.177988768,1.375043511,1.67642808
223,2099341473,118.8921204,78.42515564,135.9106598,-9.650464058,1.399998546,-0.779489756,2.226396799,1.83296001,1.538618803
224,2099358140,119.0031357,78.43199921,136.0185699,-9.613798141,1.390129447,-0.764793098,1.947448969,1.777662277,1.545367956
225,2099374807,119.129837,78.44078827,136.1333923,-9.66371727,1.344566107,-0.779531837,2.280938864,1.82705617,1.381933093
226,2099391474,119.2681656,78.44788361,136.2642365,-9.638391495,1.339685321,-0.765460551,2.323609591,1.993795037,1.406329155
227,2099408141,119.3996735,78.45317078,136.3968506,-9.662443161,1.320052981,-0.751888931,2.13022089,2.005589485,1.520267367
228,2099424808,119.5547562,78.45545959,136.5526886,-9.656269073,1.277663946,-0.713440061,1.893380761,2.390663862,1.518026471
229,2099441475,119.722168,78.45578003,136.724472,-9.674937248,1.333469033,-0.756593168,2.049746037,2.554111004,1.561619043
230,2099458142,119.9018021,78.45608521,136.9039154,-9.649132729,1.311423302,-0.786003292,2.093108177,2.675182819,1.487611413
231,2099474809,120.0961075,78.45810699,137.0960388,-9.644396782,1.3626827,-0.773122132,2.055060625,2.782256603,1.302201033
232,2099491476,120.3099442,78.46382141,137.3138428,-9.669933319,1.371465921,-0.799296498,1.503222108,2.971982241,0.928575516
233,2099508143,120.5208054,78.47348022,137.5342865,-9.688415527,1.346069694,-0.837298214,1.562861443,2.805909634,0.743267834
234,2099524810,120.7188034,78.4858017,137.7433929,-9.667935371,1.333201647,-0.786527157,1.705024719,2.55960536,0.699444413
235,2099541477,120.9359436,78.49890137,137.9759521,-9.667677879,1.32693696,-0.839157701,1.30148387,2.797163248,0.492276132
236,2099558144,121.1414261,78.51724243,138.1895142,-9.658187866,1.346404552,-0.852361679,1.210430503,2.517536163,0.28350696
237,2099574811,121.3412781,78.53878784,138.3968811,-9.632582664,1.31921196,-0.874261558,1.472243667,2.303029776,0.179122418
238,2099591478,121.4902954,78.56796265,138.5502319,-9.606022835,1.338805318,-0.928442597,1.553691983,1.509625435,0.120008305
239,2099608145,121.5874634,78.60205841,138.6539764,-9.636410713,1.331003666,-0.957392454,1.635127425,0.79472363,0.205477864
240,2099624812,121.5939636,78.64655304,138.6665192,-9.630506516,1.336119056,-0.915512979,1.606351733,-0.471613109,0.244562879
241,2099641479,121.5483398,78.69554138,138.6244049,-9.633728027,1.346854687,-0.938115776,1.631388068,-1.152039886,0.343248606
242,2099658146,121.4519653,78.75218201,138.5269012,-9.649315834,1.35865283,-0.906844079,1.624920964,-1.907038331,0.264323056
243,2099674813,121.2999649,78.81816864,138.3656464,-9.65575695,1.354486346,-0.916939199,1.630056024,-2.757520676,0.119047821
244,2099691480,121.0932999,78.89385223,138.1534271,-9.664625168,1.296800017,-0.888438582,1.989901781,-3.656001329,-0.030536739
245,2099708147,120.8343658,78.97373199,137.8792267,-9.676652908,1.33642149,-0.825381339,2.613468647,-4.391432762,0.102425195
246,2099724814,120.5790253,79.05841064,137.6009064,-9.695240021,1.324984312,-0.836966336,2.989219904,-4.529676914,-0.165490076
247,2099741481,120.2387085,79.15026093,137.235733,-9.694808006,1.297319293,-0.79789263,3.409729242,-5.626758099,-0.047210608
248,2099758148,119.9053497,79.24736023,136.8539429,-9.724751472,1.300792456,-0.815735996,4.386725903,-5.829982281,-0.324455291
249,2099774815,119.5177917,79.35057068,136.4037628,-9.682049751,1.244069219,-0.804694712,5.179093361,-6.625000954,-0.335340738
250,2099791482,119.1068497,79.45555115,135.9194489,-9.656057358,1.265396833,-0.761960924,5.884160042,-6.952088356,-0.308921218
251,2099808149,118.6933899,79.5602951,135.4281006,-9.633114815,1.248276234,-0.77128464,6.203576565,-6.952409267,-0.34248668
252,2099824816,118.2543564,79.66693878,134.9159698,-9.668721199,1.289609194,-0.688405752,6.144424438,-7.170527458,-0.398066282
253,2099841483,117.8453293,79.77415466,134.4273682,-9.723343849,1.312911749,-0.590457678,6.756901264,-6.91634655,-0.621959746
254,2099858150,117.552803,79.88294983,134.0302429,-9.79304409,1.322589517,-0.578620017,7.734243393,-5.939272404,-1.291168451
255,2099874817,117.2858658,79.99551392,133.6626892,-9.853851318,1.245807528,-0.581930757,8.360564232,-5.82195425,-1.626144409
256,2099891484,117.0491409,80.10379791,133.2935791,-9.902991295,1.279863119,-0.510086834,9.775270462,-5.585523605,-1.489129543
257,2099908151,116.8428192,80.20706177,132.9517365,-9.982434273,1.246407032,-0.446981996,11.11545658,-5.299097538,-1.306907892
258,2099924818,116.7167587,80.29550934,132.630127,-10.05403614,1.142725468,-0.487030029,14.40354443,-4.611654282,-0.673198342
259,2099941485,116.6687164,80.36536407,132.3290253,-10.03598881,1.070159197,-0.477418602,17.61247635,-3.850264788,0.193094343
260,2099958152,116.6437302,80.41107941,131.9922028,-9.983187675,0.943988979,-0.568019509,21.2526989,-3.512614727,1.650523543
261,2099974819,116.4706268,80.42344666,131.4211731,-10.20057392,0.890768707,-0.510287106,26.35426903,-4.717646599,4.489955902
262,2099991486,115.3258209,80.40999603,129.2888031,-10.85958576,1.050186992,-0.167665422,60.14092255,-18.03607559,12.61857414
263,2100008153,115.3943024,80.29706573,128.1406708,-8.986105919,1.17111969,-2.016829014,74.56231689,-6.706457138,13.64032078
264,2100024820,114.2544556,80.18113708,126.0466614,-9.443941116,-0.449824452,-3.386725187,57.90543747,-15.62403202,17.81463242
265,2100041487,111.6921921,79.97171783,121.9195633,-9.345981598,0.40152508,-3.670043707,92.69409943,-33.70181274,30.82143402
266,2100058154,108.1473389,79.68959808,115.7676392,-8.740768433,2.253015518,-2.914544582,151.5893555,-54.65319824,40.61100006
267,2100074821,106.3926086,79.41208649,110.3639603,-8.42810154,2.698036432,-3.111756086,214.5235443,-50.4106636,35.80222702
268,2100091488,106.6357117,79.22398376,105.9756393,-9.95020771,0.943644166,-6.083396435,274.2794495,-42.83594131,27.08063889
269,2100108155,104.5157928,79.21217346,98.62602234,-9.334191322,0.964246213,-4.415803909,306.9368896,-78.64344788,25.21807671
270,2100124822,105.3266754,79.28577423,93.70224762,-7.138402462,0.88037163,-2.066452026,339.8141785,-53.85192108,12.34215355
271,2100141489,107.337204,79.46072388,90.17035675,-6.894786835,2.123587608,-1.811580658,329.8293152,-39.89979172,3.330344915
272,2100158156,110.2725906,79.61755371,88.53556061,-7.093036175,3.671839476,-0.137247413,273.5019836,-19.31877899,-0.812028885
273,2100174823,112.1291809,79.61922455,87.26088715,-9.185645103,2.347302675,1.137311339,187.5565796,-12.25222969,7.129441261
274,2100191490,108.2244568,79.19126892,81.44612885,-10.67314434,12.45598793,13.66024303,109.6223373,-50.61273193,48.38368607
275,2100208157,104.7344513,78.79533386,79.09690857,-5.787908077,4.570060253,16.28823471,-69.94520569,-17.80000877,32.20426178
276,2100224824,105.405899,78.39396667,81.62818146,-12.34095669,-3.044181347,-4.943388939,-107.3684387,37.12477493,17.16096115
277,2100241491,106.1378632,77.7778244,82.86414337,-15.21520424,0.985084772,-8.367841721,-27.46484566,26.44988632,33.35993958
278,2100258158,102.8767624,77.54286194,79.96259308,-6.106190681,7.591304302,2.989479542,-24.47516441,-31.11735916,24.97975922
279,2100274825,105.2738419,77.3549118,82.3720932,-8.641747475,1.383741498,-2.472311497,3.870441198,34.69128418,5.093119621
280,2100291492,104.57621,77.13621521,81.65061188,-10.10293007,1.041968226,-1.876834273,1.502762794,-4.465816021,16.9513855
281,2100308159,104.0815506,76.80648804,81.27086639,-8.975590706,3.024624348,1.067892551,-6.351237774,1.244843483,22.29067039
282,2100324826,104.9178543,76.52919006,82.22158813,-10.63809681,1.62046349,0.270834327,-4.183721066,18.26825523,14.63664818
283,2100341493,105.2059402,76.18691254,82.48066711,-10.5456152,1.424630046,-0.587559462,3.326148748,10.26126099,20.72952652
284,2100358160,105.1930466,75.87067413,82.32519531,-9.934598923,2.69836545,-0.851295233,9.427924156,4.170165062,20.78634644
285,2100374827,105.0860138,75.63273621,82.06067657,-9.420303345,3.362179995,-0.980584383,10.10605431,1.307504296,16.67467117
286,2100391494,104.7890244,75.48868561,81.67429352,-9.558627129,3.649236917,-0.760884583,5.776473999,-2.033066988,11.6732378
287,2100408161,104.5615997,75.44395447,81.34263611,-9.592142105,3.021864891,-0.654382229,6.765096188,-2.840647459,5.650150299
288,2100424828,104.280983,75.44302368,80.90037537,-9.733008385,2.39572072,-0.55920583,9.992530823,-5.148571014,3.478872061
289,2100441495,103.9969482,75.42916107,80.39340973,-9.647727966,2.111631393,-0.576664209,13.54122639,-5.925957203,4.437775135
290,2100458162,103.5799561,75.39709473,79.73226166,-9.51516819,2.290724277,-0.634015918,14.51158047,-7.966511726,6.022421837
291,2100474829,102.9936295,75.34688568,78.91802979,-9.367371559,2.258437872,-0.6453619,13.22932053,-10.05037785,7.541501999
292,2100491496,102.2858047,75.28022003,77.96026611,-9.225278854,2.14366436,-0.687532306,14.25373268,-12.09121704,8.862660408
293,2100508163,101.5118561,75.18827057,76.90898895,-9.482349396,2.054872036,-0.873013258,15.69209862,-13.36021709,10.48897076
294,2100524830,100.2974014,75.06732178,75.37638092,-9.713665962,2.113903046,-0.709575534,17.13866234,-20.59065628,13.37632465
295,2100541497,99.18945313,74.92591858,73.90068817,-9.468127251,2.185667753,-0.055072997,20.17350197,-19.96407318,14.0302372
296,2100558164,98.22438812,74.7467804,72.5945816,-9.529287338,2.488047123,-0.080122709,18.86503029,-17.44166946,15.5259676
297,2100574831,97.46260834,74.56336975,71.49138641,-9.23012352,2.276471138,-0.306412876,19.26041985,-14.65743732,15.08985138
298,2100591498,96.89687347,74.38664246,70.61112213,-9.90387249,2.000879765,-0.544914842,18.07800865,-11.51780605,14.08460808
299,2100608165,96.30754089,74.24199677,69.71434021,-9.103346825,2.560872078,0.077788934,17.57444763,-12.28762341,12.11406517
300,2100624832,96.40634155,74.12023926,69.49147797,-8.977148056,2.889513731,0.08715868,19.92643356,-1.645407438,9.480095863
301,2100641499,96.43733978,73.99615479,69.24291229,-8.283004761,3.922626734,0.420278519,17.3350029,-2.067824841,9.65459156
302,2100658166,97.39242554,73.94947052,69.79353333,-9.452464104,2.31561923,-0.089434415,26.69235229,10.57948303,3.431138277
303,2100674833,98.08054352,73.90507507,70.02562714,-9.510131836,3.126866102,0.023861833,29.04545212,5.362880707,3.87748003
304,2100691500,99.37860107,73.88750458,70.92697906,-8.468640327,4.207676888,1.259843469,27.06306267,16.17568016,0.50375241
305,2100708167,101.7416763,73.89982605,72.97977448,-7.9061656,5.39026022,0.972258985,24.60236359,34.68813324,-5.300448418
306,2100724834,104.8728714,73.96308899,75.8314743,-7.882039547,5.628117085,-0.194412515,24.61646652,46.48564911,-12.9966011
307,2100741501,108.3244247,73.97911072,79.16964722,-8.182491302,2.927620888,-1.159364104,15.75536823,54.00212097,-15.22732449
308,2100758168,111.5406723,73.96871948,82.31072998,-10.67671108,-0.762652338,-1.943963408,12.99491787,50.38280487,-15.67261887
309,2100774835,113.5785065,73.85972595,84.09291077,-11.16812038,0.545822084,-1.264724851,20.6626873,31.08324242,-3.743871689
310,2100791502,115.2496109,73.69819641,85.48922729,-9.209828377,4.43583107,0.59713769,20.94733047,26.51579475,0.812015533
311,2100808169,118.1807327,73.44582367,88.12693787,-7.996896267,4.790411472,0.493765205,25.20212364,48.02641296,-4.996507168
312,2100824836,121.8628998,73.15641022,91.65388489,-8.040616989,3.692985296,-1.729411125,19.39224434,62.61425781,-13.85901356
313,2100841503,125.197052,73.01830292,94.89863586,-9.452314377,2.673371792,-3.477795362,14.93825531,53.05342484,-22.88787651
314,2100858170,127.6682739,73.12147522,97.3197403,-10.05047321,1.959412694,-3.467144966,10.44171429,31.56278229,-28.62365913
315,2100874837,129.6201935,73.31190491,99.15093994,-10.26233578,2.092869282,-2.01243329,13.04182625,18.7965889,-27.24258614
316,2100891504,131.4945526,73.46743011,100.9314499,-9.037797928,3.459400177,-0.835595727,11.20047474,18.27488327,-25.44136238
317,2100908171,134.3694458,73.35980225,103.7164764,-8.605755806,2.277355909,-1.577034593,13.4599514,40.48217773,-26.29295349
318,2100924838,137.1307526,73.08932495,106.2066269,-9.071808815,0.397538722,-1.407931566,23.74276352,42.86946106,-18.10667038
319,2100941505,139.191925,72.66238403,107.931488,-10.37687683,0.657728434,-2.140367031,25.86969376,40.57567978,-4.110788822
320,2100958172,140.7653961,72.25141907,109.1666794,-10.31917858,1.753626466,-2.475993872,24.83886528,34.40632248,0.297378123
321,2100974839,142.3190002,71.75389099,110.3471069,-9.122818947,2.180333376,-2.713572502,26.94631195,38.13280869,2.986629725
322,2100991506,143.6692047,71.25991821,111.3117371,-9.042934418,1.874817252,-2.930889845,27.21366119,35.85082626,4.725730896
323,2101008173,144.8952942,70.73053741,112.1082382,-9.004943848,1.390169859,-3.042575836,29.46669579,35.98093414,7.451022625
324,2101024840,145.9608307,70.23147583,112.6866455,-8.914100647,1.360243201,-2.349384069,32.30506897,32.32178116,8.996157646
325,2101041507,146.8381653,69.76669312,113.1341858,-9.393876076,2.500091791,-3.125637531,28.48708725,29.39474106,9.347579956
326,2101058174,147.6022186,69.40061188,113.5758743,-9.646807671,3.0014112,-3.039668083,22.08902931,24.54313278,5.667433739
327,2101074841,148.5833435,69.08332825,114.292572,-9.201767921,2.495458841,-3.311573505,19.74971581,25.2822094,-1.355115056
328,2101091508,149.5841675,68.86927795,115.0474243,-8.965996742,2.123969078,-3.349815369,18.86603546,20.41856575,-5.837195873
329,2101108175,150.6323853,68.72558594,115.8783798,-8.840086937,2.325438738,-3.311719894,17.50287819,17.49921417,-9.839776039
330,2101124842,151.6552277,68.66972351,116.6554489,-9.162779808,2.301136732,-3.037862539,19.02741051,12.13627338,-11.73672009
331,2101141509,152.5944061,68.65718842,117.3786469,-9.435919762,1.695183754,-2.964598894,17.029953,9.066604614,-12.13702965
332,2101158176,153.4626465,68.64920807,118.046814,-9.217020035,1.690828562,-3.406845093,15.84895897,8.073340416,-11.317379
333,2101174843,154.2333832,68.61200714,118.6305771,-9.276967049,1.553352714,-3.380361319,14.71651173,8.646691322,-9.000025749
334,2101191510,154.9043732,68.52423859,119.1001434,-9.294582367,1.408698797,-3.034487009,15.12290859,10.18058681,-5.561850071
335,2101208177,155.5020294,68.36408234,119.4975052,-9.034912109,1.268452883,-3.397259474,14.76976299,13.40340042,-2.440336466
336,2101224844,155.8929749,68.19008636,119.6766663,-9.145969391,1.620708704,-3.321410894,14.55265522,12.1485796,2.158794641
337,2101241511,156.1704254,67.99700928,119.7281799,-9.272680283,1.654828072,-3.2423141,14.86104679,12.04619503,5.140079021
338,2101258178,156.3142242,67.80860901,119.6542892,-9.258553505,1.733780861,-3.471722841,13.81867027,10.66370678,7.567229748
339,2101274845,156.4698944,67.59013367,119.6086502,-9.259423256,1.693151355,-3.566190004,12.95859528,12.57978344,7.685317993
340,2101291512,156.6030731,67.38457489,119.5675049,-9.011076927,1.922519207,-3.565310955,11.35795116,11.91251755,7.259120941
341,2101308179,156.7999573,67.16829681,119.6111069,-8.834298134,1.675086737,-3.871846199,10.48791313,13.29040623,5.677317142
342,2101324846,156.9087067,67.02733612,119.6517029,-8.879850388,1.74471271,-3.561214685,5.370011806,9.104792595,3.922957659
343,2101341513,157.054184,66.9342041,119.7783813,-9.121556282,1.924424529,-3.642319441,2.822981358,7.25481081,0.916422486
344,2101358180,157.2419128,66.88803864,120.0033798,-9.134939194,2.173568487,-3.540560246,-0.063922904,5.55481863,-2.34292841
345,2101374847,157.4777985,66.85559845,120.3333893,-8.971575737,2.040011406,-3.636557341,-2.959413767,5.735555649,-4.980102539
346,2101391514,157.7235107,66.86884308,120.7430344,-9.015602112,1.591962695,-3.761179447,-6.758636475,3.884768724,-7.792748928
347,2101408181,157.8908539,66.92803955,121.10009,-8.842803001,1.725300193,-3.825205088,-8.567882538,0.820746601,-7.683845997
348,2101424848,158.0347595,67.01382446,121.4340744,-8.737267494,1.845740318,-3.792746544,-8.709685326,-0.906068802,-7.76065731
349,2101441515,158.05159,67.14047241,121.623909,-9.381676674,0.99871999,-3.591308594,-8.384813309,-4.470999718,-5.525922775
350,2101458182,157.993866,67.25635529,121.7205048,-9.415309906,1.260760188,-3.427817822,-7.716756344,-4.69208765,-3.239770412
351,2101474849,157.7857513,67.36037445,121.6568756,-9.296382904,1.559311986,-3.563692093,-7.876657009,-5.423061371,0.470338941
352,2101491516,157.4492798,67.44501495,121.4964981,-9.043361664,1.71576333,-3.7402246,-10.21718597,-5.192330837,2.942400932
353,2101508183,156.9291229,67.5617218,121.1800461,-8.961071968,1.606087804,-3.860458851,-12.58110237,-8.364505768,5.43557024
354,2101524850,156.2869263,67.71681213,120.7280502,-9.025271416,1.572633147,-3.751767159,-12.36464214,-11.74240589,7.227015495
355,2101541517,155.4939575,67.92488098,120.1240692,-9.483725548,1.626739144,-3.380347967,-12.93747711,-16.09825325,8.84022522
356,2101558184,154.6057739,68.13854218,119.4511337,-9.350930214,1.673424482,-3.523940563,-14.76386356,-17.10936356,9.742310524
357,2101574851,153.4887543,68.38802338,118.6171951,-9.2619524,1.699291229,-3.405079842,-19.45977783,-20.68837166,11.56864071
358,2101591518,152.1320496,68.66532898,117.5966949,-9.220340729,1.871057034,-3.22598505,-23.34096718,-24.1627655,13.79411507
359,2101608185,150.5950623,68.96538544,116.3893509,-9.277830124,1.852716327,-3.349968433,-23.59335136,-27.47067642,15.80596447
360,2101624852,148.9054413,69.28942108,115.0054169,-9.523077965,1.701333284,-2.949797392,-22.70874023,-30.82735252,17.22065163
361,2101641519,147.1628265,69.60220337,113.5407104,-9.246040344,1.782626152,-3.17594409,-21.18937111,-31.38255692,17.70651436
362,2101658186,145.2484741,69.91649628,111.9295807,-8.998878479,1.854054213,-2.990870953,-23.0874691,-33.4040451,18.77407646
363,2101674853,143.2449799,70.21709442,110.2614288,-9.070272446,1.841200471,-2.882888556,-25.04140854,-33.7185173,18.62492371
364,2101691520,141.0378265,70.56092834,108.429039,-9.42515564,1.849098802,-2.674047947,-27.79036713,-38.08177185,17.94842529
365,2101708187,138.8802643,70.86321259,106.6237259,-9.258196831,2.041905403,-2.562158108,-26.14801598,-36.05228424,17.20828629
366,2101724854,136.5014343,71.179245,104.641571,-9.186855316,2.42574048,-2.381738901,-29.19727898,-39.21056747,17.32797623
367,2101741521,134.1598511,71.44942474,102.7075424,-8.944538116,2.224616766,-2.515280962,-29.50488091,-36.82175064,16.52659988
368,2101758188,131.7211151,71.69359589,100.684082,-9.264784813,2.150616407,-2.24098587,-30.07799149,-37.24150467,16.90477753
369,2101774855,129.0376434,71.95631409,98.39215851,-9.373682976,2.69890976,-1.39998877,-29.29185486,-42.05429077,17.27024651
370,2101791522,126.5049973,72.17058563,96.23545074,-9.350149155,3.182782173,-1.66021204,-27.78183365,-38.52947617,15.73521042
371,2101808189,123.9411469,72.36024475,94.07787323,-9.084540367,2.923219442,-2.317532301,-29.46172333,-37.92830658,14.92008018
372,2101824856,121.1917496,72.52126312,91.8248291,-8.656240463,2.234443665,-1.486954093,-35.01551819,-38.73329926,15.27458572
373,2101841523,118.4249191,72.54117584,89.64590454,-9.619104385,2.497215271,-1.15099144,-40.24043655,-33.8121376,19.93952942
374,2101858190,115.4303894,72.51882935,87.28877258,-10.26094913,2.389353752,-0.740205586,-43.70520401,-36.40428543,21.89943695
375,2101874857,112.4975204,72.37864685,85.04270172,-9.71126461,2.104422808,-1.039331794,-46.4152832,-32.86968231,25.68150139
376,2101891524,109.6533661,72.11158752,82.8359375,-9.41724968,2.108469725,-1.539990067,-43.48736572,-31.06022835,30.98152351
377,2101908191,106.9472656,71.76563263,80.64404297,-9.465423584,2.225812197,-1.022162676,-36.27267838,-31.35549736,34.03440094
378,2101924858,104.597023,71.39095306,78.68540955,-9.083292007,3.065024853,-0.530634105,-28.46304893,-28.79457092,33.2712059
379,2101941525,102.5300827,71.03491211,77.03134155,-8.639793396,3.720147371,-1.093748093,-29.00095558,-25.22524261,29.80493736
380,2101958192,100.6781082,70.73914337,75.55999756,-8.799106598,3.912196875,-0.999030888,-26.64739227,-23.91565132,24.72729111
381,2101974859,99.04982758,70.53150177,74.27097321,-8.536295891,3.935508728,-0.116041407,-23.67714119,-22.30722809,18.17824173
382,2101991526,97.86968231,70.37289429,73.43392944,-8.623717308,3.680566072,-0.025929194,-22.42149353,-14.38878918,13.38120174
383,2102008193,96.86552429,70.22814941,72.82813263,-8.841856003,3.607300997,-0.236174822,-24.96614838,-10.19568443,11.67359924
384,2102024860,96.09593201,70.07319641,72.50733948,-8.950559616,3.324665546,-0.373559207,-27.00726128,-4.599907875,11.45884991
385,2102041527,95.231987,69.93724823,72.07241821,-9.316200256,3.001185894,-0.231214523,-26.25004196,-7.229789257,10.48266983
386,2102058194,94.55367279,69.79520416,71.78113556,-9.043435097,3.419714928,-0.017691227,-23.22834587,-4.423214912,10.49934864
387,2102074861,93.96318054,69.69013977,71.57117462,-9.071138382,3.726782799,-0.056010984,-22.54759407,-3.034080505,8.10757637
388,2102091528,93.45982361,69.61865997,71.48622131,-8.877483368,3.648011446,-0.061015315,-24.3564415,-0.639236689,5.885490894
389,2102108195,93.01000977,69.5786972,71.47657013,-9.163137436,4.004248619,-0.396616518,-25.37876701,0.78935957,3.899606466
390,2102124862,92.45439911,69.58256531,71.38947296,-9.154076576,3.722560883,-0.102121346,-27.37458611,-0.981282711,1.335577726
391,2102141529,91.98191071,69.61563873,71.35879517,-8.974164009,3.374427319,-0.092184357,-25.55962944,0.133762613,-0.47786364
392,2102158196,91.5450058,69.68811035,71.34144592,-9.120078087,3.378384352,0.246192947,-24.17438507,0.355748355,-2.855059862
393,2102174863,91.21038055,69.76445007,71.39894867,-8.68999958,4.03618145,0.055594198,-22.24786568,1.942777991,-3.119305849
394,2102191530,90.86106873,69.89396667,71.47119904,-9.324817657,3.797758341,-0.166749969,-23.96115112,2.215964317,-6.321043015
395,2102208197,90.24281311,70.01959229,71.26504517,-9.443935394,3.203917027,-0.22817035,-24.41250992,-3.451530457,-6.02717495
396,2102224864,89.36910248,70.09793854,70.81044006,-9.463634491,3.340778589,-0.086190239,-25.72007561,-8.431473732,-3.255132675
397,2102241531,88.43373871,70.11798859,70.35581207,-9.414660454,3.413273096,-0.157235473,-29.41308594,-8.404891968,0.102963381
398,2102258198,87.2355423,70.06347656,69.67434692,-9.421917915,2.627213717,0.006997449,-32.39068222,-13.18989944,4.227381229
399,2102274865,85.9415741,69.92153168,68.82158661,-9.615916252,2.579555511,-0.023319151,-28.50704193,-17.1402092,8.960677147
400,2102291532,84.52983856,69.69313049,67.79902649,-9.459634781,2.990279913,0.154136002,-26.07051468,-21.40979958,13.41691589
401,2102308199,83.18127441,69.39794922,66.85191345,-9.447221756,3.052222729,0.415538549,-26.61998558,-20.81209373,17.01597404
402,2102324866,81.90894318,69.05706787,65.98357391,-9.409386635,3.040333033,0.506297529,-26.5763073,-20.14964867,19.4212265
403,2102341533,80.83254242,68.69448853,65.2893219,-9.507800102,2.470988035,0.753286779,-24.67962456,-17.28320503,20.80649757
404,2102358200,79.9755249,68.33683014,64.64634705,-9.763212204,2.318363428,1.051418543,-14.47150803,-16.68711662,20.379282
405,2102374867,79.39536285,68.05187988,64.05923462,-10.25850868,2.967660189,0.862819731,-1.048400164,-15.11221695,16.08345795
406,2102391534,78.80878448,67.88595581,63.45114517,-10.64992809,2.87669301,0.611254871,-0.3202039,-14.50152302,8.807766914
407,2102408201,78.0546875,67.78739166,62.8466835,-10.4690094,3.214268684,-0.122812197,-10.60580063,-13.77823067,4.696605682
408,2102424868,76.96469116,67.62180328,62.32387924,-9.711576462,4.113796711,-1.057103515,-35.3296051,-12.97860527,8.785445213
409,2102441535,75.33810425,67.51919556,62.32184219,-8.573908806,6.477734089,-1.291867256,-96.45063782,-0.764724374,7.619735241
410,2102458202,73.00312805,68.15800476,64.40874481,-7.070920944,7.888267517,-2.756132364,-255.0414734,56.63060379,-22.39332771
411,2102474869,75.22505188,69.99536133,72.85997009,-8.029742241,4.407372475,-12.00312805,-339.3911133,204.9046478,-54.74702835
412,2102491536,77.77919006,71.41944885,81.15684509,-12.54682255,0.065639019,-15.72982407,-315.7426147,180.2517395,-43.11471176
413,2102508203,77.97867584,72.39250946,86.74772644,-11.07416058,-4.308076382,-8.297546387,-306.0776672,114.3102036,-33.76396942
414,2102524870,81.1191864,73.65310669,93.70001984,-9.921214104,-5.5510993,-6.082374096,-209.7783356,133.4637909,-50.71972275
415,2102541537,87.78945923,74.88396454,102.6765442,-10.88821888,-4.282184601,-6.066094398,-117.5231628,152.2295074,-57.64448929
416,2102558204,93.39529419,75.7073822,109.7578354,-13.28372383,-0.123413146,-3.598852158,-73.90891266,107.0397644,-48.79880905
417,2102574871,98.75787354,76.29542542,116.6666641,-9.40590477,2.014454603,-1.322973013,-79.75534058,95.6305542,-43.98101425
418,2102591538,106.7883987,76.53259277,126.5851669,-8.703137398,2.086782217,0.098963469,-95.95133972,132.7281342,-43.07887268
419,2102608205,114.2397614,76.31748199,136.6553345,-9.762565613,2.171422243,-0.304465532,-139.5493164,136.8831787,-36.01162338
420,2102624872,119.5959854,75.82354736,145.1316833,-9.739549637,0.71712482,0.558757961,-171.5165405,122.1867981,-27.48748016
421,2102641539,123.6857681,75.06590271,152.315155,-7.507294655,0.442157656,2.57066679,-171.0264435,115.7362061,-16.636343
422,2102658206,126.67556,74.12320709,158.1231689,-7.157851219,-0.225792423,3.251903057,-155.786911,108.0230713,-5.629623413
423,2102674873,128.1308594,73.27552795,161.7174225,-7.309824944,-0.823233783,3.134003878,-118.855835,78.87561798,5.152774334
424,2102691540,128.5358734,72.67034149,163.3483887,-7.707776546,-1.229811311,3.591678143,-68.4414444,44.98952484,12.27349281
425,2102708207,128.041687,72.30108643,163.3973541,-8.10347271,-0.708322525,3.713861227,-31.6170826,14.50502396,18.46863747
426,2102724874,126.423172,72.01578522,161.8032227,-8.756232262,2.644622326,3.529413462,-5.222260475,-12.80549717,33.0399437
427,2102741541,122.7785416,72.13884735,158.3400726,-10.9265337,0.368992418,6.131306171,-20.09985161,-56.54957962,31.92084503
428,2102758208,117.7560577,72.20458984,153.2577362,-10.70375156,1.404186249,6.954698086,-10.14190388,-82.19600677,45.38990021
429,2102774875,111.2989883,72.08245087,146.7132568,-11.69313335,3.121630192,6.502472401,-12.6986742,-105.9015961,58.41315842
430,2102791542,106.1434631,71.99958038,141.4377899,-17.10147858,0.956827521,0.530514717,-7.225887775,-90.12799835,37.83815384
431,2102808209,104.1764832,72.07316589,139.5764923,-15.44498253,-0.592033744,0.410526365,-10.79720402,-33.68926239,6.638073921
432,2102824876,101.9175644,71.7832489,137.258728,-10.98452282,4.882546425,5.723231792,-2.336530447,-37.37095642,28.66288185
433,2102841543,101.479744,71.49338531,137.1635895,-7.559221268,3.531609535,1.981644988,-19.81899834,2.597544193,19.36188126
434,2102858210,101.0091782,71.11010742,137.029007,-9.120810509,1.174228549,-3.99055481,-19.53728676,2.818034172,25.01232147
435,2102874877,99.83302307,70.74848175,136.0605316,-8.32742691,5.361464024,-3.450615406,-14.61873055,-13.93725014,26.74661827
436,2102891544,98.20443726,70.57240295,134.7248535,-9.340826035,3.765588522,-2.83203721,-21.0799675,-23.78966331,16.51450348
437,2102908211,96.2653656,70.3598938,133.1033478,-9.159882545,2.787586689,-0.269870102,-23.64480591,-29.93636131,18.65203285
438,2102924878,94.77265167,70.10061646,131.9420166,-9.940167427,1.870068312,0.869710207,-22.97809982,-21.23661995,19.66105652
439,2102941545,93.63502502,69.7514801,131.1165314,-9.809668541,2.230393887,1.179962635,-20.71711922,-14.67586517,24.07959938
440,2102958212,92.93473053,69.42182159,130.695694,-9.618965149,2.656584501,0.46506843,-17.32670212,-6.900522709,22.20490456
441,2102974879,92.40436554,69.16014862,130.3166199,-9.666995049,3.064647675,-0.602015138,-9.512994766,-6.535141945,18.03036499
442,2102991546,91.82227325,68.99936676,129.7535095,-9.54211998,3.395260096,-1.088939071,-2.335335732,-10.94258022,12.05802059
443,2103008213,91.08518982,68.90653992,128.9763489,-9.427919388,3.331708431,-0.704702437,0.320684135,-15.85684586,7.964802265
444,2103024880,90.48110962,68.84184265,128.3442078,-8.742595673,3.961808443,0.462004036,0.158414662,-12.88156414,6.041630745
445,2103041547,90.0091095,68.80797577,127.9296341,-9.124041557,3.092556953,0.016801182,-4.095984459,-8.235407829,4.029685497
446,2103058214,89.52059937,68.77078247,127.481575,-8.876033783,3.186115026,0.282408446,-3.218781233,-8.993551254,4.155034542
447,2103074881,89.16816711,68.75365448,127.1738358,-8.858973503,3.489741325,0.053011015,-2.903129101,-5.955241203,2.916569471
448,2103091548,88.84146118,68.74855804,126.9089355,-9.345521927,2.895873547,-0.734303355,-3.757786512,-5.02086401,2.162352324
449,2103108215,88.33167267,68.71678162,126.4625244,-9.081031799,2.979223251,0.155318528,-4.598000526,-9.027052879,3.635122776
450,2103124882,88.10343933,68.69031525,126.2971115,-9.148304939,2.926204205,0.376936942,-3.419481754,-2.921967506,3.4440763
451,2103141549,87.88266754,68.65862274,126.1185989,-9.196537971,2.877790689,0.252947658,-2.23799324,-3.223800182,3.741631508
452,2103158216,87.771698,68.62167358,126.0373764,-9.193282127,3.019729137,-0.034624297,-1.088373303,-1.122271657,4.131232738
453,2103174883,87.60283661,68.58773041,125.8912735,-9.120727539,3.217609167,0.058231097,-0.939275324,-2.545166254,3.893783808
454,2103191550,87.44705963,68.57764435,125.7535629,-9.184799194,3.298771143,0.134658262,-0.623189092,-2.308748007,2.465107203
455,2103208217,87.31776428,68.58153534,125.6408234,-9.226552963,3.213382006,0.029442109,-0.431702018,-1.726564765,1.644924402
456,2103224884,87.18347931,68.59003448,125.5188828,-9.150458336,2.932780981,0.338200867,-0.215671718,-1.916021943,1.352100849
457,2103241551,87.12768555,68.59690094,125.4656067,-9.146130562,2.975330353,0.487595558,0.660333812,-0.412831903,1.53129375
458,2103258218,87.15560913,68.61546326,125.4898682,-9.059853554,3.154144526,0.472584546,1.35272193,1.320808649,0.915910244
459,2103274885,87.24539185,68.65261078,125.5845871,-9.012931824,3.404987574,0.280277461,1.128572583,2.91540432,-0.120398909
460,2103291552,87.4036026,68.70091248,125.765274,-9.159479141,3.233067513,-0.088570237,0.42770651,4.81431675,-0.707070589
461,2103308219,87.50892639,68.7374649,125.9040909,-9.439101219,2.766069174,-0.35327217,-0.409156531,3.855839014,-0.049579792
462,2103324886,87.5739212,68.75474548,126.0000839,-9.443504333,2.853090525,-0.182061598,-0.4392066,2.85860157,1.064444661
463,2103341553,87.63655853,68.78263855,126.0875168,-9.226852417,3.317373991,0.291135162,-0.10518495,2.693508148,0.430485427
464,2103358220,87.7322464,68.84321594,126.2337952,-9.199295998,3.626137972,0.07245101,-1.414186239,4.042132854,-1.485159039
465,2103374887,87.76016235,68.93131256,126.3382874,-9.33628273,3.210618734,-0.205698028,-3.148447752,3.191188812,-3.174329281
466,2103391554,87.69238281,69.02417755,126.3396225,-9.404315948,3.055224657,-0.295085996,-3.117264271,0.970042586,-3.552001476
467,2103408221,87.55527496,69.10527039,126.2772369,-9.340787888,2.864306211,-0.043199949,-3.709097147,-0.420259595,-2.894280195
468,2103424888,87.40917206,69.17040253,126.1798782,-9.387600899,2.656356335,-0.051988043,-2.28631115,-1.194134474,-1.967612267
469,2103441555,87.20617676,69.21491241,125.9905624,-9.266400337,2.791702271,0.054534689,-0.542099178,-3.19653511,-0.8181656
470,2103458222,86.98181152,69.24892426,125.7785492,-9.124100685,2.756222248,0.338573933,-0.549693346,-3.694881916,-0.229240075
471,2103474889,86.79756927,69.28378296,125.5567856,-9.438055992,2.601922274,0.036532924,2.411359072,-3.879549742,-0.293873727
472,2103491556,86.59441376,69.32329559,125.2740707,-9.391635895,2.970106363,-0.120088339,4.701685429,-5.140706062,-0.656997859
473,2103508223,86.42636871,69.38392639,125.0415573,-9.062565804,3.387576818,0.198409796,3.993097305,-3.982897282,-1.867556691
474,2103524890,86.29509735,69.47216034,124.8718719,-8.991785049,3.263129473,0.287976533,2.675451517,-2.52886343,-3.452226639
475,2103541557,86.19760132,69.57461548,124.748642,-9.135666847,3.065640211,0.296645582,2.099088907,-1.47117424,-4.248576641
476,2103558224,86.15435791,69.68637085,124.6796417,-9.330755234,2.91150856,0.12805672,2.306885004,-0.281413198,-4.732210159
477,2103574891,86.1362915,69.81108856,124.6366959,-9.072081566,2.932282925,0.412948221,2.355113983,0.321388215,-5.469074249
478,2103591558,86.16873169,69.94628906,124.6410217,-9.121728897,2.787557602,0.488054603,2.725895882,1.346024275,-6.02686739
479,2103608225,86.29175568,70.07959747,124.7208099,-9.494439125,2.591299772,-0.202355579,3.907166719,2.874475241,-5.807815075
480,2103624892,86.336586,70.20400238,124.7149811,-9.32953167,2.825442553,-0.050442565,4.040698051,1.072544575,-5.386511326
481,2103641559,86.37857819,70.3363266,124.7212906,-9.180280685,3.049098492,0.187488154,3.184234858,1.340850472,-5.841097832
482,2103658226,86.4389801,70.47879028,124.7633209,-9.116862297,2.901682854,0.204538181,2.268856764,2.088556051,-6.406582832
483,2103674893,86.53472137,70.62438202,124.857666,-8.965984344,2.942631721,0.504929483,1.427754521,3.126708984,-6.530444622
484,2103691560,86.71360779,70.78500366,125.0612411,-9.001901627,2.865136385,0.670812309,0.226762101,5.31167841,-7.307990074
485,2103708227,86.97106934,70.95753479,125.3403397,-9.119058609,2.657027006,0.5343436,0.649128497,6.772192001,-7.960653782
486,2103724894,87.22932434,71.16136169,125.6149826,-8.31585598,3.319065094,1.74689877,0.935068786,6.687299252,-9.866891861
487,2103741561,87.87310791,71.33071136,126.3866119,-7.80314827,4.82067585,2.734665394,-4.180617809,16.05491447,-7.44917345
488,2103758228,89.62947845,71.61044312,128.3442078,-10.71684456,1.202184319,-1.465030789,-4.944292545,38.46336746,-13.93102264
489,2103774895,89.98284149,71.86854553,128.6018219,-11.69317913,0.453240603,-3.320069551,7.554734707,5.658266544,-13.40709496
490,2103791562,89.65070343,71.90363312,128.2546692,-9.814324379,2.28252697,-0.820771277,0.883574128,-5.749058723,-0.024709852
491,2103808229,89.47212219,71.94982147,127.9963837,-9.219004631,2.219110727,-0.409470141,5.030054092,-4.07651186,-0.699246049
492,2103824896,89.322052,71.96589661,127.805191,-9.618107796,2.320458174,-0.442575246,2.914609909,-2.837022781,1.115765929
493,2103841563,88.9407196,71.97106171,127.398468,-9.456450462,2.951785088,0.038979787,1.334921122,-6.847882271,1.698480606
494,2103858230,88.75021362,72.01136017,127.1889954,-9.376444817,2.703634501,0.00365766,1.532267094,-3.135692596,-0.379676282
495,2103874897,88.58998108,72.05511475,126.9808807,-9.3608675,2.475456715,-0.02403941,3.275352478,-3.088129997,-0.593811393
496,2103891564,88.53955078,72.1078949,126.8483734,-9.245687485,2.492570877,-0.033695552,5.550733566,-1.662219644,-1.100481749
497,2103908231,88.46852112,72.14955139,126.7245483,-9.272047997,2.390722275,-0.110294275,3.820735693,-1.512487531,-0.431913346
498,2103924898,88.36113739,72.18569183,126.5721054,-9.290582657,2.505999327,-0.036102664,3.276402473,-2.038892746,-0.116326503
499,2103941565,88.27897644,72.24154663,126.4611282,-9.371984482,2.752295971,0.025515271,2.422212124,-1.234596133,-1.277945757
500,2103958232,88.24430084,72.31957245,126.4230347,-9.329945564,2.703773737,0.017622327,1.108626604,0.147548378,-2.571578979
501,2103974899,88.28795624,72.40756989,126.4939194,-9.256965637,2.662342548,0.042258304,-0.422340631,2.147055149,-3.111251593
502,2103991566,88.32853699,72.4942627,126.5877914,-9.497144699,2.403614044,-0.213897109,-1.921842575,2.552152157,-3.019269943
503,2104008233,88.24198151,72.5561676,126.5556335,-9.525380135,2.076412201,-0.316304922,-2.344490528,0.229361698,-1.59900713
504,2104024900,88.06895447,72.58955383,126.4156189,-9.373530388,2.395229578,0.147525072,-1.354956627,-1.757396102,0.058051188
505,2104041567,88.03686523,72.62483215,126.3855515,-9.481805801,2.392300367,0.026460357,0.80604434,0.227120578,0.006198273
506,2104058234,87.92610168,72.64363098,126.2509384,-9.601554871,2.208442926,-0.245800138,2.072835922,-1.674628735,0.934466481
507,2104074901,87.99480438,72.64589691,126.2586594,-9.764587402,1.870667338,-0.76128763,4.690813065,0.834577143,2.02004838
508,2104091568,87.69469452,72.60401154,125.911232,-9.549225807,2.349845648,-0.169280961,2.895298719,-5.633520603,4.436286449
509,2104108235,87.75927734,72.53755188,125.9863358,-9.594941139,2.590542078,-0.546393573,0.581818104,1.871199965,6.201885223
510,2104124902,87.65316772,72.45217896,125.9918442,-9.928299904,2.653684378,-1.040905833,-5.677792072,0.567539096,7.288619518
511,2104141569,87.45422363,72.37156677,126.0148315,-9.503311157,3.695772409,0.074375547,-12.25117016,0.870025575,7.019677162
512,2104158236,87.6421814,72.29973602,126.6465988,-8.702273369,5.923031807,-0.583215117,-23.84325027,11.96368504,6.953174591
513,2104174903,87.79610443,72.20944214,127.6333694,-9.709314346,4.445382118,-0.902271569,-46.16302872,18.4600563,8.244814873
514,2104191570,87.63238525,72.14863586,128.4283142,-8.803911209,2.255464315,0.099391468,-54.24705124,15.06800747,6.319339275
515,2104208237,87.48134613,72.05515289,129.2199402,-8.624123573,1.299293637,1.783210039,-53.27909851,14.96745777,8.31969738
516,2104224904,87.417099,71.95858765,129.8945007,-9.425722122,-0.214634016,1.54180789,-41.35733032,12.86976528,8.452646255
517,2104241571,87.44691467,71.90853882,130.1384125,-10.02527905,-0.904872537,0.670337796,-11.12458134,5.052863121,5.347588539
518,2104258238,87.2793808,71.89595795,129.7065125,-8.336966515,0.248028502,2.834341764,15.58383179,-7.413955212,2.572708607
519,2104274905,87.57661438,71.9148407,129.5151062,-7.938261509,2.19686985,3.273044109,29.77344704,-2.813826561,0.920830667
520,2104291572,88.18373871,72.01998901,129.6233215,-8.648480415,3.047598124,2.132665873,31.29285431,2.98271203,-4.018550873
521,2104308239,88.71086121,72.07835388,129.7230225,-7.921494007,4.956308365,1.250002861,26.9818058,2.705348492,-1.251791954
522,2104324906,92.76178741,72.25197601,133.3188171,-13.58129597,0.183422819,-8.266367912,38.71656799,66.7146759,-9.089672089
523,2104341573,89.98766327,72.1118927,130.3560638,-12.42015076,3.059422016,-4.119140148,3.803520203,-53.47383118,11.92142391
524,2104358240,88.93773651,72.01786041,129.1162567,-5.685281754,4.100950718,2.84862566,8.772868156,-22.30529785,7.650299549
525,2104374907,89.20037079,72.01055908,129.2449188,-10.51916504,2.480163336,-0.906149566,9.424861908,3.063958645,2.667999029
526,2104391574,88.76782227,71.98029327,128.6617432,-9.056892395,2.515109301,0.44356364,8.33193779,-10.16642952,3.823959112
527,2104408241,88.73017883,71.97220612,128.4880524,-9.353981018,3.04476428,-0.022367636,8.662109375,-2.54872036,2.615806341
528,2104424908,88.64332581,71.99924469,128.3114166,-9.00127697,3.066831827,0.313341051,5.877744675,-2.552453279,0.498269498
529,2104441575,88.77666473,72.06809998,128.4038086,-9.299057961,3.205590248,-0.203349113,3.738980055,2.494138956,-1.902568817
530,2104458242,88.84561157,72.15983582,128.5172119,-9.170420647,3.077271938,9.99E-04,-1.327544808,2.891052961,-3.278182745
531,2104474909,89.06594086,72.27293396,128.8395691,-9.257205009,2.724885464,0.171022281,-4.18694067,6.719620705,-4.498954773
532,2104491576,89.33726501,72.39055634,129.2442627,-9.411501884,2.547426939,0.055464275,-5.846388817,8.156944275,-4.778351784
533,2104508243,89.61024475,72.50778198,129.6659698,-9.505924225,2.402033567,0.113679312,-6.734176636,8.385704041,-4.783884048
534,2104524910,89.90897369,72.62101746,130.1062469,-9.39283371,2.367226601,0.109321669,-6.269344807,8.634313583,-4.583477974
535,2104541577,90.21643066,72.72369385,130.5586243,-9.526371002,2.163556337,-0.260939956,-6.452001572,8.770586014,-3.985791922
536,2104558244,90.49777222,72.81015015,130.9460449,-9.627566338,2.049347401,-0.344750553,-4.313313961,7.545029163,-3.042732
537,2104574911,90.79109955,72.87814331,131.2978058,-9.587240219,2.165936947,-0.255075514,-1.557809234,6.867712975,-1.951809645
538,2104591578,90.97373962,72.92489624,131.5290222,-9.569422722,2.2178545,-0.175759539,-1.293614388,4.722226143,-0.669189453
539,2104608245,91.13477325,72.96448517,131.7323914,-9.523061752,2.342430353,-0.248196229,-0.998856902,4.221786022,-0.235534415
540,2104624912,91.23043823,72.99881744,131.8843689,-9.513595581,2.284901857,-0.289417505,-1.973189354,3.309769154,0.088626347
541,2104641579,91.31108856,73.03091431,132.0284729,-9.39563942,2.382305145,-0.225583494,-2.424485683,3.166965961,0.228369266
542,2104658246,91.38160706,73.07081604,132.1764984,-9.404800415,2.393535376,-0.261907846,-3.257417202,3.216097593,-0.242353812
543,2104674913,91.42603302,73.12171173,132.3046112,-9.385808945,2.49887538,-0.110740393,-3.683740854,2.840192556,-0.894927084
544,2104691580,91.52535248,73.19110107,132.4832153,-9.504508018,2.316725969,-0.264291555,-3.293703794,3.67736268,-2.034954786
545,2104708247,91.6364212,73.2609024,132.6610565,-9.429331779,2.205669403,-0.176946506,-2.544577122,3.644316196,-2.054503679
546,2104724914,91.81565094,73.33592224,132.8898926,-9.385710716,2.345663786,-0.135019511,-1.393465638,4.488729,-2.402875185
547,2104741581,92.05257416,73.42674255,133.174942,-9.397111893,2.439916134,-0.066301532,-1.16806078,5.385992527,-3.393433094
548,2104758248,92.39089203,73.54280853,133.5561981,-9.389513016,2.490478277,-0.072230197,-0.626774848,6.909155369,-4.993100643
549,2104774915,92.79044342,73.68190765,133.9889374,-9.393725395,2.388675451,-0.10655947,0.067694388,7.624019623,-6.454255104
550,2104791582,93.23395538,73.83379364,134.4651642,-9.409218788,2.364774227,0.001563752,0.18299,8.187422752,-7.303945065
551,2104808249,93.73464966,73.99201202,135.0070038,-9.389293671,2.443749905,0.110353336,-0.19047533,9.102693558,-7.805402756
552,2104824916,94.26190948,74.14338684,135.578598,-9.641931534,1.938553452,-0.398674339,-0.336704731,9.449931145,-7.502295971
553,2104841583,94.65457153,74.26860046,135.984726,-9.723879814,1.800514102,-0.703224003,1.117648959,6.718430042,-5.789208412
554,2104858250,94.91816711,74.36659241,136.2264099,-9.665311813,1.83889544,-0.635240376,2.857852697,4.103910446,-3.957374096
555,2104874917,95.05456543,74.43693542,136.3329315,-9.600998878,1.96313417,-0.517941833,3.031992674,2.029934406,-2.121941805
556,2104891584,95.09410858,74.48727417,136.3562927,-9.564020157,2.069421053,-0.45295313,2.022084236,0.79026705,-0.809303701
557,2104908251,95.07621002,74.52861786,136.32547,-9.523135185,2.055822134,-0.386304498,1.711325526,-0.027847407,-0.188515872
558,2104924918,95.01014709,74.56095123,136.2281494,-9.554317474,1.990630269,-0.364449829,2.667216778,-1.03657794,0.443086863
559,2104941585,94.82728577,74.58643341,135.9824677,-9.559042931,1.996662736,-0.379655927,4.240944862,-3.354572296,1.052342772
560,2104958252,94.5478363,74.59979248,135.6155853,-9.626422882,2.148727417,-0.177418575,5.460820198,-5.211473942,1.921119213
561,2104974919,94.09281158,74.60887146,134.969696,-9.701446533,2.231624365,-0.138831377,11.06778145,-9.612471581,2.478120327
562,2104991586,93.60713196,74.61812592,134.3308411,-9.393520355,1.947119236,-0.567381263,8.825314522,-9.494709969,2.372934818
563,2105008253,93.27292633,74.64224243,133.8608704,-9.431659698,2.091142178,-0.469316036,8.149356842,-6.857444763,1.256476402
564,2105024920,93.07992554,74.68067169,133.5565033,-9.335712433,2.185852051,-0.22589086,7.041380405,-4.263215542,0.213712409
565,2105041587,92.9772644,74.72206116,133.3740997,-9.411772728,2.215849638,-0.181521386,5.40672636,-2.326715708,-0.08062239
566,2105058254,92.95491028,74.76446533,133.2996826,-9.473619461,2.104039192,-0.201823741,3.979240894,-0.613840401,-0.230623186
567,2105074921,92.93325806,74.79812622,133.2522583,-9.521807671,2.010979652,-0.305151284,2.461162806,-0.158126399,0.273185074
568,2105091588,92.88999176,74.82115936,133.1946869,-9.498737335,2.066052198,-0.251431525,1.750013113,-0.283513337,0.91574353
569,2105108255,92.86030579,74.84458923,133.1619873,-9.483722687,2.183758974,-0.218465477,1.127214909,0.108597852,0.87496835
570,2105124922,92.80025482,74.8718338,133.1037445,-9.549228668,2.074235439,-0.261194438,0.783812642,-0.300686657,0.664085984
571,2105141589,92.73139954,74.89664459,133.0375671,-9.501620293,2.081134558,-0.21666795,0.716630578,-0.415265113,0.815828621
572,2105158256,92.66811371,74.91436005,132.9822998,-9.548354149,2.0092628,-0.246095195,0.42022118,-0.220896736,1.233616352
573,2105174923,92.60993195,74.9181366,132.94487,-9.511781693,2.01853323,-0.119649604,-0.305463433,0.096739158,2.055419207
574,2105191590,92.60762787,74.91142273,132.9702454,-9.550026894,2.008974314,-0.280102968,-0.59076333,1.107518792,2.643832445
575,2105208257,92.55511475,74.89818573,132.9511414,-9.515236855,2.019596577,-0.23874189,-1.026288033,0.431234658,3.069201946
576,2105224924,92.53477478,74.88185883,132.9546204,-9.496904373,2.053561211,-0.231353879,-0.403944284,0.788653433,3.234179497
577,2105241591,92.5133667,74.87355804,132.9500275,-9.495015144,2.133358002,-0.200931862,-5.70E-04,0.642584205,2.762316942
578,2105258258,92.50491333,74.87311554,132.9620056,-9.510920525,2.125757694,-0.217760965,-0.182957932,0.880474985,2.280426979
579,2105274925,92.49282837,74.88172913,132.9677734,-9.484427452,2.139001369,-0.165640503,-0.038591929,0.760927618,1.744634628
580,2105291592,92.50954437,74.896492,132.9979553,-9.486207962,2.049017906,-0.12623781,0.273479581,1.125550032,1.354681253
581,2105308259,92.58508301,74.91444397,133.0822296,-9.439741135,2.077604532,-0.136441827,0.670758188,1.961343646,1.129814625
582,2105324926,92.69207001,74.9339447,133.1924591,-9.442890167,2.049840689,-0.145374224,1.054602981,2.359646797,1.018335342
583,2105341593,92.87953949,74.96186066,133.3814392,-9.424777031,2.149698496,-0.160953403,1.319592118,3.555850029,0.449502975
584,2105358260,93.09869385,74.99674225,133.601532,-9.503118515,2.044311285,-0.270330667,1.41462779,4.005865097,-0.005602778
585,2105374927,93.32048798,75.03067017,133.8242493,-9.460863113,2.117531776,-0.130788714,1.42133832,4.032514572,0.038700789
586,2105391594,93.58596802,75.06977844,134.0894775,-9.575263977,2.08796525,-0.26550144,1.576653957,4.654672623,-0.321176887
587,2105408261,93.81195831,75.10971069,134.3082581,-9.55674839,2.028137922,-0.270808965,1.897504091,3.914747715,-0.340168685
588,2105424928,94.00460815,75.1444931,134.4871063,-9.57649231,1.967714429,-0.303325951,2.209377527,3.303910732,-0.004117242
589,2105441595,94.16989136,75.17246246,134.6348572,-9.542740822,1.991437435,-0.285433233,2.37005806,2.844341278,0.436939836
590,2105458262,94.33575439,75.19419861,134.786087,-9.564593315,1.974610686,-0.296092004,2.202128887,2.917862892,0.798693657
591,2105474929,94.48625183,75.21703339,134.9204102,-9.485214233,2.058561325,-0.247451797,2.26190877,2.646176338,0.750234425
592,2105491596,94.65966797,75.24299622,135.0770874,-9.491024017,2.040639877,-0.282562822,2.33458519,2.964004278,0.524484158
593,2105508263,94.81630707,75.26669312,135.2160645,-9.562728882,2.019394875,-0.267544001,2.3578794,2.699527264,0.683308482
594,2105524930,94.95932007,75.28995514,135.3405457,-9.567769051,1.927700043,-0.36297363,2.382659912,2.474686146,0.723417878
595,2105541597,95.05587769,75.30532074,135.4167938,-9.528621674,1.973681808,-0.383406013,2.391227007,1.777469993,1.25348556
596,2105558264,95.14198303,75.32102203,135.486145,-9.521588326,2.060473204,-0.304997057,2.16373539,1.669307828,1.243509412
597,2105574931,95.23061371,75.3391571,135.5601349,-9.550719261,2.012634039,-0.329134971,2.049848318,1.723734617,1.093777537
598,2105591598,95.2818222,75.35368347,135.5939484,-9.568194389,1.946287751,-0.353334963,2.131655216,1.134015083,1.359189034
599,2105608265,95.31808472,75.36510468,135.6146393,-9.540352821,1.968332887,-0.334071308,2.001132965,0.952561855,1.56903398
600,2105624932,95.31851196,75.37042236,135.6055145,-9.559923172,2.028437376,-0.309408396,1.581238389,0.536983013,1.977313161
601,2105641599,95.29959869,75.3791275,135.5836182,-9.559662819,2.10223937,-0.29722923,1.16288054,0.325191677,1.787958622
602,2105658266,95.28799438,75.39417267,135.5775909,-9.50981617,2.094238997,-0.304377466,0.679235995,0.530464649,1.390859365
603,2105674933,95.29148102,75.41196442,135.5909424,-9.534873962,2.001168966,-0.33014372,0.462129921,0.806966424,1.197367907
604,2105691600,95.28023529,75.42121124,135.5961609,-9.54065609,1.972986102,-0.254256964,0.050328951,0.732241452,1.721519113
605,2105708267,95.28816223,75.42652893,135.6204376,-9.543858528,1.982436538,-0.321189374,0.095189609,1.041873455,1.931812048
606,2105724934,95.26139832,75.43102264,135.6077423,-9.558397293,1.94573617,-0.39067474,0.162909567,0.489125699,2.029178858
607,2105741601,95.20726776,75.43494415,135.5606537,-9.512087822,1.979846716,-0.41179958,0.514981747,-0.023467636,2.114161968
608,2105758268,95.13692474,75.44094849,135.4946594,-9.495337486,1.990362763,-0.346138805,0.643493414,-0.319025367,2.016654253
609,2105774935,95.09426117,75.45118713,135.4524536,-9.55615139,2.005653143,-0.315891355,0.923491299,0.016135998,1.731776714
610,2105791602,95.0872345,75.46829987,135.4382477,-9.504332542,2.033004761,-0.267500222,1.430930138,0.401427805,1.2815696
611,2105808269,95.11746979,75.49504852,135.4567871,-9.487900734,2.01497221,-0.309568912,1.768505573,0.841159403,0.661140621
612,2105824936,95.16690063,75.53084564,135.4872742,-9.554588318,2.089422941,-0.234001473,2.225897312,0.968902886,0.104948044
613,2105841603,95.25567627,75.57353973,135.5518341,-9.646909714,1.952246428,-0.265812099,2.606962919,1.436731458,-0.355497837
614,2105858270,95.35106659,75.61597443,135.6120758,-9.554999352,1.956781387,-0.31689465,3.257026434,1.369229436,-0.328540504
615,2105874937,95.43859863,75.65634918,135.6615753,-9.550867081,1.978537679,-0.309118778,3.408601999,1.215373755,-0.193318248
616,2105891604,95.50997925,75.69300079,135.6955719,-9.532065392,1.865036488,-0.399547487,3.315333366,1.007219434,0.049432509
617,2105908271,95.55094147,75.72193146,135.6970062,-9.529826164,1.914182305,-0.325921118,3.394604445,0.567820728,0.560982108
618,2105924938,95.58537292,75.74890137,135.6929474,-9.629012108,1.96639502,-0.2988199,3.348104715,0.490265489,0.684076726
619,2105941605,95.63141632,75.77664948,135.6976471,-9.558076859,1.976235628,-0.299968928,3.535589933,0.61645925,0.632147014
620,2105958272,95.68497467,75.80314636,135.7080231,-9.525565147,1.954707026,-0.373593867,3.641754389,0.707179368,0.689096808
621,2105974939,95.72447968,75.82550049,135.7135468,-9.472828865,1.941486835,-0.309395194,3.070450068,0.663048685,0.950359046
622,2105991606,95.74933624,75.8431778,135.7172089,-9.583069801,1.951376081,-0.284262121,2.330230951,0.656184554,1.229653001
623,2106008273,95.80834198,75.86193848,135.7602844,-9.566319466,1.972294688,-0.276599139,2.058582067,1.232790351,1.112026572
624,2106024940,95.89068604,75.88171387,135.8314667,-9.563836098,1.96592021,-0.281232864,1.831026196,1.632246137,1.005874753
625,2106041607,95.99842072,75.90371704,135.9318237,-9.591549873,1.992892981,-0.274935037,1.652877092,2.03971839,0.828954995
626,2106058274,96.13008118,75.92584229,136.0442505,-9.489468575,1.863619685,-0.365199864,2.392136335,2.21015811,0.80037123
627,2106074941,96.25918579,75.94233704,136.1418457,-9.393544197,1.849971652,-0.461202413,3.101135015,2.025247574,1.158257723
628,2106091608,96.36404419,75.95935822,136.2201385,-9.465054512,1.979654908,-0.382581204,2.832559586,1.723657846,1.156336546
629,2106108275,96.48856354,75.97782898,136.3274841,-9.55791378,1.976606607,-0.270844698,2.350208282,2.125341654,1.026262403
630,2106124942,96.67205811,75.99798584,136.4898682,-9.48673439,1.914733768,-0.28890729,2.615120888,2.918208838,0.824383259
631,2106141609,96.88196564,76.01210022,136.6805115,-9.449667931,1.832998037,-0.390647173,2.62646699,3.347361803,1.137959361
632,2106158276,97.09033966,76.02233887,136.8748932,-9.590859413,1.992157578,-0.333290815,2.275918722,3.430577517,1.348585486
633,2106174943,97.30516815,76.04285431,137.0757446,-9.661226273,1.99066031,-0.312900662,2.089483976,3.479152203,0.700801849
634,2106191610,97.5532608,76.06510162,137.2937164,-9.558188438,1.910519481,-0.367301881,2.572386026,3.810786247,0.524176776
635,2106208277,97.77236938,76.08228302,137.4966736,-9.540305138,1.931527615,-0.376256764,2.270194292,3.506685734,0.875634074
636,2106224944,98.0039978,76.10009003,137.7346191,-9.606812477,1.891389847,-0.431702703,1.379768848,3.913543463,0.790843308
637,2106241611,98.22306061,76.11386871,137.9635925,-9.523076057,1.911021233,-0.415257514,0.869807243,3.866339207,1.016427159
638,2106258278,98.51012421,76.13230896,138.2711792,-9.428273201,1.959687591,-0.424115092,0.62195313,4.883522511,0.57962817
639,2106274945,98.81929779,76.15267944,138.6085052,-9.502147675,2.043672323,-0.321320653,0.110723704,5.295182705,0.372639209
640,2106291612,99.23745728,76.18157959,139.0636292,-9.62428093,1.990007281,-0.30297178,-0.311546475,6.881595135,-0.435409516
641,2106308279,99.68999481,76.21328735,139.5459442,-9.597299576,1.839671493,-0.506908298,-0.600867689,7.361002445,-0.76487869
642,2106324946,100.1593933,76.25023651,140.0508423,-9.490730286,1.91437602,-0.484554112,-0.392802835,7.478819847,-1.139579654
643,2106341613,100.6912308,76.29566193,140.6137543,-9.421575546,1.983816028,-0.532445967,0.133839205,8.113530159,-1.833837986
644,2106358280,101.260849,76.34597015,141.2192688,-9.539039612,1.919197917,-0.500713646,0.193875358,8.528902054,-2.276937246
645,2106374947,101.8638458,76.40048981,141.843689,-9.782757759,1.754516125,-0.524676919,1.162381291,8.642417908,-2.648295879
646,2106391614,102.4068069,76.45639038,142.3621216,-9.614156723,1.654791951,-0.778781295,2.912702322,7.247115135,-2.553721189
647,2106408281,102.8514709,76.49766541,142.7627106,-9.341194153,1.593703151,-0.883807003,4.40626812,5.654387951,-1.339089632
648,2106424948,103.1631851,76.52281189,143.0513153,-9.521286964,1.777886152,-0.761314988,2.90380168,4.317328453,-0.072387896
649,2106441615,103.3874207,76.53248596,143.2812653,-9.630633354,1.630175233,-0.611312449,1.125575781,3.704455137,1.004299879
650,2106458282,103.6217499,76.52735138,143.5322876,-9.651021004,1.769926071,-0.486518562,0.516275287,4.1916852,1.795591474
651,2106474949,103.9046097,76.52101135,143.8459015,-9.713917732,1.923150897,-0.430552453,-0.371954083,5.086670399,1.625113249
652,2106491616,104.2025833,76.52568817,144.1596985,-9.70331955,1.716224313,-0.744901061,0.647482693,4.904326439,0.975773454
653,2106508283,104.4685059,76.52584076,144.3958893,-9.408320427,1.695623875,-0.858208358,2.907797337,3.978471994,1.452227354
654,2106524950,104.6662064,76.52924347,144.5547485,-9.601807594,1.907049656,-0.724439263,3.02790761,2.936854362,1.497971535
655,2106541617,104.848175,76.53860474,144.7080994,-9.677638054,1.775191784,-0.671554923,2.695147991,2.708722591,1.187865973
656,2106558284,105.0264435,76.5449295,144.859436,-9.540557861,1.76058042,-0.621999562,3.086035967,2.632435083,1.418162584
657,2106574951,105.1632767,76.54896545,144.9764557,-9.505217552,1.782341599,-0.737368941,2.116274595,2.296523809,1.623934746
658,2106591618,105.2515106,76.55071259,145.0615692,-9.534856796,1.746713281,-0.74586606,1.369895339,1.841348171,1.900193453
659,2106608285,105.336792,76.54883575,145.1418152,-9.580341339,1.739326477,-0.680901349,1.312241077,1.862658143,2.108335018
660,2106624952,105.4230576,76.54881287,145.2303467,-9.552733421,1.80812645,-0.688073814,1.089442611,1.907166481,1.992251992
661,2106641619,105.516983,76.54955292,145.3169708,-9.561335564,1.80492723,-0.695376813,0.819030166,2.03215003,1.869804025
662,2106658286,105.611618,76.55085754,145.4094543,-9.595103264,1.735523701,-0.737651229,1.27040267,1.954364061,1.885837436
663,2106674953,105.6726685,76.55027008,145.4590759,-9.553922653,1.738170743,-0.79144907,1.91804564,1.377707124,2.171726465
664,2106691620,105.6699295,76.54841614,145.4359131,-9.58631134,1.772196651,-0.781490803,2.042792082,0.478445202,2.493357897
665,2106708287,105.6147537,76.54701233,145.3794403,-9.578622818,1.73071754,-0.792139173,1.973150969,-0.198581651,2.701268673
666,2106724954,105.5109558,76.53820801,145.2726746,-9.583194733,1.708073974,-0.71024102,1.899604559,-0.739009738,3.311056614
667,2106741621,105.3723755,76.52198792,145.157608,-9.629611969,1.773264408,-0.639559567,1.697302461,-1.013372898,3.898432493
668,2106758288,105.2418137,76.5026474,145.0160828,-9.646749496,1.819407105,-0.665465295,1.52642715,-0.895054936,3.965012312
669,2106774955,105.0742874,76.48543549,144.8214722,-9.604043961,1.787382007,-0.71061039,1.51994729,-1.47700119,3.950618267
670,2106791622,104.8704529,76.47054291,144.6030121,-9.56410408,1.776189923,-0.77200532,1.785435796,-2.052224159,3.995530128
671,2106808289,104.6094513,76.45497131,144.3366699,-9.503716469,1.850091457,-0.750535429,1.512737632,-2.77519393,4.230962276
672,2106824956,104.3669357,76.4406662,144.0659027,-9.409605026,1.847893834,-0.708109081,0.818556428,-2.457058668,3.967894316
673,2106841623,104.2037125,76.42869568,143.9188385,-9.468072891,1.898570895,-0.577757478,0.437605798,-1.230671048,3.579951286
674,2106858290,104.1706314,76.42430878,143.8899231,-9.584636688,1.90694046,-0.494316161,0.773823619,0.385765642,2.677346706
675,2106874957,104.2499161,76.42874908,143.9713287,-9.629677773,1.795660496,-0.585969806,1.57118547,1.664851189,1.824379563
676,2106891624,104.3377686,76.43262482,144.0587769,-9.593917847,1.833517194,-0.667125702,2.352449417,1.632450938,1.894571543
677,2106908291,104.3667526,76.43504333,144.0626068,-9.551944733,1.779832006,-0.760201573,2.484444857,0.757329226,2.159829617
678,2106924958,104.3081512,76.43280792,143.9806976,-9.592396736,1.828044772,-0.718678355,1.960306406,-0.291133106,2.702178001
679,2106941625,104.1816177,76.42625427,143.8273621,-9.629020691,1.764866352,-0.708251953,1.661060452,-1.123212934,3.168841839
680,2106958292,103.9736557,76.41439819,143.5976257,-9.565606117,1.74472332,-0.712529361,1.71794641,-2.194822788,3.771816254
681,2106974959,103.7102585,76.3984375,143.3389587,-9.573291779,1.860220313,-0.64293021,1.59089458,-2.839584351,4.242629051
682,2106991626,103.4264832,76.37996674,143.0589447,-9.628268242,1.834179282,-0.613865852,1.220765352,-3.035969496,4.40383482
683,2107008293,103.1340942,76.35286713,142.7556,-9.557089806,1.791119456,-0.601721466,1.03175652,-3.04577899,4.875813484
684,2107024960,102.8353119,76.31880188,142.4408417,-9.554005623,1.818308353,-0.599152863,0.945108533,-3.058777809,5.273091793
685,2107041627,102.5396652,76.28153229,142.1337585,-9.530893326,1.846988559,-0.652368963,0.953522623,-2.988432884,5.44216156
686,2107058294,102.2248001,76.24468231,141.8299866,-9.47876358,1.940840125,-0.593879104,0.6257056,-3.187238693,5.4783144
687,2107074961,101.9339981,76.20977783,141.5636139,-9.54263401,2.00684762,-0.484406948,0.200099245,-2.782480955,5.255252838
688,2107091628,101.7157211,76.18283844,141.3726349,-9.591871262,1.922531128,-0.503251851,0.027047008,-1.814922214,4.545357227
689,2107108295,101.5117874,76.15293121,141.1784668,-9.519303322,1.802217126,-0.593272805,-0.094811805,-1.594870806,4.625064373
690,2107124962,101.2903442,76.12232208,140.9913177,-9.460865974,1.919352651,-0.644245327,-0.058019169,-1.817022681,4.760004997
691,2107141629,101.0606689,76.09755707,140.771637,-9.519126892,2.081430674,-0.567340076,-0.493396699,-1.977243066,4.348217487
692,2107158296,100.8568649,76.08674622,140.596817,-9.582269669,2.069442034,-0.518415272,-0.788198888,-1.672836065,3.455307245
693,2107174963,100.6653519,76.08052063,140.4150391,-9.519233704,1.884374261,-0.555684686,-0.700103998,-1.605474591,3.112225056
694,2107191630,100.4955902,76.07272339,140.2615509,-9.534020424,1.920380116,-0.438565165,-0.700488091,-1.263160706,3.153371096
695,2107208297,100.3785324,76.06954193,140.1800232,-9.579553604,1.913272619,-0.486646771,-0.494562,-0.554265201,2.778081179
696,2107224964,100.2801285,76.06877136,140.0825195,-9.511419296,1.923810124,-0.569507957,0.142457828,-0.510685265,2.568953991
697,2107241631,100.1612396,76.06912994,139.9386139,-9.498017311,1.986566663,-0.537269831,0.483529329,-0.939928472,2.535772324
698,2107258298,100.0567017,76.07313538,139.8261566,-9.522631645,1.990713477,-0.502212822,0.206592038,-0.678051412,2.288866043
699,2107274965,99.96737671,76.08043671,139.7515259,-9.588454247,1.913241863,-0.420299351,0.023653328,-0.411487252,2.077676773
700,2107291632,99.92822266,76.08670044,139.7277222,-9.611566544,1.884212613,-0.42135185,0.766383171,0.177419186,2.064127684
701,2107308299,99.90281677,76.08946991,139.7017365,-9.610538483,1.928294539,-0.492295802,1.193526149,0.293662399,2.234964132
702,2107324966,99.8688736,76.09399414,139.6690979,-9.519089699,1.972444534,-0.524275243,1.064079642,0.182618558,2.149468899
703,2107341633,99.84866333,76.10176086,139.6572113,-9.4435215,1.993184566,-0.500389576,0.767510176,0.423416376,1.910963535
704,2107358300,99.87480164,76.1129303,139.7002411,-9.457566261,1.979879022,-0.485441506,0.678128183,1.100289583,1.600876927
705,2107374967,99.95718384,76.1266098,139.7715454,-9.515693665,1.940152049,-0.479074895,1.118391275,1.744724393,1.28431046
706,2107391634,100.0844116,76.13685608,139.8625183,-9.504076004,1.866214633,-0.480940759,1.37675941,2.337888718,1.347189665
707,2107408301,100.2550201,76.13639832,140.0317078,-9.54696846,1.88805902,-0.401008993,1.404203653,3.127426147,1.918711543
708,2107424968,100.4669571,76.1350708,140.2594452,-9.597436905,1.988656163,-0.439414948,1.177428603,3.8113873,1.862606645
709,2107441635,100.7183838,76.13485718,140.4958038,-9.566285133,1.916477323,-0.49381876,1.63076067,4.225468159,1.657384992
710,2107458302,100.9896393,76.133461,140.759079,-9.593680382,1.965329409,-0.489594042,2.342972994,4.385047913,1.725258708
711,2107474969,101.2619858,76.13225555,140.9968109,-9.641921997,1.864097834,-0.535915375,3.095166683,4.194797039,1.702783585
712,2107491636,101.4871445,76.12361908,141.2047119,-9.593709946,1.867635965,-0.554054081,3.738455534,3.490012169,2.34582901
713,2107508303,101.6301117,76.10959625,141.3412476,-9.579323769,1.900716186,-0.698285162,3.562983036,2.423473835,2.908399105
714,2107524970,101.6721497,76.09342194,141.4070892,-9.548009872,1.905060291,-0.694131374,3.150042295,1.130851984,3.366072416
715,2107541637,101.6255798,76.07185364,141.3485718,-9.541656494,1.908238888,-0.636433601,2.391368389,4.48E-04,3.817252636
716,2107558304,101.5296936,76.04592896,141.2474518,-9.522798538,1.928429484,-0.607583225,1.671561956,-0.496175677,4.185768604
717,2107574971,101.4160614,76.01993561,141.1396332,-9.526885033,2.021294594,-0.585064113,1.012303591,-0.596667111,4.210356712
718,2107591638,101.2977753,75.99881744,141.0666351,-9.483863831,1.948923349,-0.573833227,0.391631037,-0.532814682,3.952654839
719,2107608305,101.2268982,75.98023987,141.0186615,-9.457120895,1.987710238,-0.562801063,0.580242932,0.045283254,3.636542559
720,2107624972,101.1784058,75.96907806,141.0302734,-9.530893326,2.077379942,-0.497701138,0.092948481,0.452627689,3.161209106
721,2107641639,101.2001877,75.96961212,141.0716858,-9.566804886,2.096128464,-0.480810553,-0.622382164,1.432082772,2.13351202
722,2107658306,101.2975388,75.98219299,141.1976471,-9.512402534,2.029490709,-0.526327908,-0.044034634,2.288161755,1.260003805
723,2107674973,101.4090118,76.00205994,141.3465118,-9.543628693,2.001035929,-0.496061236,0.403963506,2.32008791,0.83922565
724,2107691640,101.5459137,76.02624512,141.4985352,-9.575717926,1.947437882,-0.579948485,0.608096719,2.555417538,0.481108934
725,2107708307,101.6492386,76.04523468,141.6177521,-9.534373283,1.871377468,-0.640280247,0.975984752,2.044802904,0.917024314
726,2107724974,101.6834717,76.05854034,141.6509705,-9.541897774,1.901661992,-0.662851214,1.13000679,1.041271567,1.443096399
727,2107741641,101.635582,76.06847382,141.6145935,-9.584754944,1.912077785,-0.624939382,1.304941535,-0.13317965,1.929123163
728,2107758308,101.5649872,76.07280731,141.4782715,-9.58569622,1.932899237,-0.584728181,1.417278647,-0.540562391,2.202576876
729,2107774975,101.4706039,76.07821655,141.3960876,-9.585102081,1.957183957,-0.512199163,1.668014169,-0.821597815,2.370814085
730,2107791642,101.4079132,76.08509827,141.3217163,-9.546503067,1.965113282,-0.559931397,2.090098858,-0.512273252,2.172751188
731,2107808309,101.3842468,76.09327698,141.2557373,-9.483845711,1.96341908,-0.51311022,2.49741745,-0.09839759,1.955990553
732,2107824976,101.3944168,76.10501862,141.2433472,-9.544075966,1.969036698,-0.555370927,2.707582474,0.341737419,1.701951027
733,2107841643,101.4504471,76.12007904,141.2516327,-9.518016815,1.981473088,-0.513108313,2.650619984,0.935721636,1.316018939
734,2107858310,101.5110779,76.14073181,141.3040771,-9.540360451,1.973109841,-0.56493938,2.422705173,1.050376773,1.027555943
735,2107874977,101.5981064,76.16170502,141.358551,-9.526350021,1.941624522,-0.563098669,2.319652319,1.405074239,0.877222121
736,2107891644,101.6861496,76.18478394,141.4922333,-9.54414463,1.966728091,-0.54178834,2.208922386,1.539355159,0.877343893
737,2107908311,101.7935333,76.20523071,141.6057587,-9.567493439,1.950316787,-0.534981668,1.869407058,1.857433081,0.875211537
738,2107924978,101.9012299,76.22419739,141.6953125,-9.557180405,1.906562924,-0.620386362,1.98653388,1.811022997,0.926014423
739,2107941645,101.9748154,76.23908997,141.7263794,-9.530461311,1.927194476,-0.616870821,1.664005876,1.401565433,1.203668833
740,2107958312,102.0018005,76.2518158,141.7158051,-9.548185349,1.918716073,-0.607097268,1.15254581,0.878553927,1.437948108
741,2107974979,102.0043564,76.26613617,141.7437134,-9.564152718,1.91338861,-0.588621557,1.205641031,0.59345901,1.538670063
742,2107991646,101.9786072,76.27635956,141.716507,-9.609959602,1.927436471,-0.584356964,1.113653183,0.216017529,1.815197706
743,2108008313,101.9259415,76.28752899,141.7004242,-9.589018822,1.945558786,-0.576370358,0.809130728,-0.054471806,1.878422379
744,2108024980,101.8605957,76.30017853,141.7315369,-9.5508461,1.903725624,-0.586738169,0.637372017,-0.126341045,1.9189291
745,2108041647,101.8188858,76.30728149,141.6773376,-9.466726303,1.88218224,-0.634427547,0.581228971,0.119329542,1.981603265
746,2108058314,101.7485733,76.3152771,141.6137695,-9.471063614,1.961398363,-0.566911399,0.607161939,-0.273716539,2.049758673
747,2108074981,101.6997299,76.32611847,141.5665131,-9.5861063,1.942178011,-0.565175653,0.735046029,-0.035018962,1.81816864
748,2108091648,101.6355209,76.33844757,141.5109406,-9.57082653,1.92494607,-0.521208763,0.702364147,-0.256082118,1.78379631
749,2108108315,101.6072006,76.35219574,141.4989319,-9.545868874,1.928380966,-0.562432587,1.099540353,0.172181353,1.638905287
750,2108124982,101.5680542,76.36778259,141.4977722,-9.517871857,1.927783489,-0.584291518,1.251718163,-0.00903488,1.611000299
751,2108141649,101.530159,76.38502502,141.5122223,-9.548454285,1.918385148,-0.550988793,1.322690964,-0.005128942,1.537594199
752,2108158316,101.506485,76.40166473,141.5115814,-9.547577858,1.917315006,-0.548724473,1.466993093,0.130752832,1.49363029
753,2108174983,101.4952087,76.41855621,141.4894257,-9.553610802,1.93777287,-0.546571195,1.548735976,0.23796761,1.390936136
754,2108191650,101.4945831,76.43865204,141.4911194,-9.546052933,1.930304766,-0.578444302,1.495691895,0.383601397,1.185137987
755,2108208317,101.5073395,76.46085358,141.5147858,-9.520330429,1.93066752,-0.562416673,1.535327554,0.553977013,1.043461204
756,2108224984,101.5463181,76.48711395,141.5791779,-9.496932983,1.956880569,-0.52667892,1.588614583,0.884572864,0.756227612
757,2108241651,101.6149063,76.51724243,141.6455383,-9.559819221,1.931350827,-0.532413363,1.69142437,1.182973981,0.402004153
758,2108258318,101.7207184,76.54943848,141.745163,-9.617255211,1.931498051,-0.477977186,1.435591936,1.72919023,0.144314781
759,2108274985,101.8556747,76.58652496,141.9004974,-9.573064804,1.84882021,-0.551512718,1.730368495,2.041946888,-0.165464461
760,2108291652,102.0239105,76.62278748,142.0468903,-9.524644852,1.897876263,-0.568061113,2.305565596,2.323609829,-0.247232974
761,2108308319,102.2305222,76.66122437,142.2146149,-9.500371933,1.925183296,-0.563088,2.505306482,2.755901098,-0.501054823
762,2108324986,102.4620209,76.70204926,142.4415131,-9.52910614,1.918923497,-0.554017603,2.226627827,3.152872562,-0.691574991
763,2108341653,102.710144,76.74414825,142.6692047,-9.520809174,1.869479537,-0.61379236,2.175568581,3.336387634,-0.857686222
764,2108358320,102.9456787,76.78146362,142.8953857,-9.531272888,1.83709085,-0.614293694,2.136970282,3.220298052,-0.534594774
765,2108374987,103.1457901,76.8108139,143.0737457,-9.641354561,1.815399885,-0.575178444,1.717754126,2.900625229,-0.014439158
766,2108391654,103.3328476,76.83281708,143.3041077,-9.713626862,1.802419901,-0.509370863,1.522956491,2.932256937,0.545806587
767,2108408321,103.4995041,76.85101318,143.4586639,-9.690278053,1.823823333,-0.575264394,1.643618107,2.604542732,0.745803416
768,2108424988,103.6465378,76.86325836,143.5128479,-9.593295097,1.827477574,-0.659724832,2.201539755,2.194726467,1.066820025
769,2108441655,103.7583847,76.87390137,143.4979248,-9.552617073,1.860638261,-0.661047399,2.703074932,1.591496348,1.257583618
770,2108458322,103.8107758,76.88983154,143.5357666,-9.563417435,1.848873258,-0.696763575,3.064316034,0.779087067,1.370599508
771,2108474989,103.8035736,76.90341187,143.4966583,-9.514616966,1.803170443,-0.728406727,3.440567493,-0.092609137,1.710531712
772,2108491656,103.6890564,76.91390228,143.395752,-9.447447777,1.770643234,-0.749471962,2.654833555,-1.277337432,2.260538578
773,2108508323,103.4767151,76.91433716,143.2298431,-9.296102524,1.624253154,-0.898931623,1.842757106,-2.250722408,3.154985428
774,2108524990,103.0703201,76.88721466,142.9002533,-9.32877636,1.617913842,-0.787501574,0.701941729,-4.247246265,5.330644131
775,2108541657,102.5816116,76.8394928,142.4025269,-9.804761887,1.914397717,-0.508790433,-0.595758021,-4.970101833,6.517179489
776,2108558324,102.1057587,76.79650879,141.9189148,-9.922212601,1.875058651,-0.314675152,-1.018098474,-4.822737217,6.129452705
777,2108574991,101.7375488,76.75183105,141.6022491,-9.721282005,1.955008984,-0.402900517,-0.682892203,-3.362890005,5.999480724
778,2108591658,101.4435043,76.71663666,141.4176025,-9.463258743,2.027796507,-0.483273625,-1.217903137,-2.301115274,5.258402348
779,2108608325,101.2781448,76.69321442,141.3462677,-9.53126049,2.012065649,-0.472654313,-1.296918273,-0.681137741,4.156877041
780,2108624992,101.2317886,76.68270874,141.3529968,-9.598173141,1.931760907,-0.48253727,-0.178360432,0.525623798,3.076879025
781,2108641659,101.2725143,76.67843628,141.3802795,-9.518491745,1.89738822,-0.486492097,0.928101718,1.345114946,2.43320632
782,2108658326,101.3476639,76.67732239,141.4387665,-9.468400955,1.902620673,-0.62954694,1.352120161,1.693972826,2.172469616
783,2108674993,101.4266205,76.67478943,141.5379181,-9.485955238,1.905956984,-0.580022097,1.435245991,1.792965651,2.314504385
784,2108691660,101.5237961,76.66758728,141.6402893,-9.488455772,1.83572495,-0.559677243,1.494872451,2.067918301,2.512772322
785,2108708327,101.6254501,76.65299225,141.7908173,-9.499817848,1.806712031,-0.512737691,1.56685698,2.260423183,3.013782263
786,2108724994,101.7657852,76.63082123,141.9315033,-9.517224312,1.884003639,-0.570779979,1.497715712,2.851103544,3.257628441
787,2108741661,101.9011612,76.60834503,142.0250549,-9.506443977,1.940695047,-0.576840818,1.225580454,2.791553497,3.18643713
788,2108758328,102.0130157,76.58685303,142.1179504,-9.513642311,1.92951262,-0.608936787,0.607635677,2.621575117,3.190945387
789,2108774995,102.1095276,76.56295013,142.2817993,-9.538135529,1.861690164,-0.602947474,0.747724414,2.513195038,3.525998116
790,2108791662,102.1817703,76.53489685,142.3779755,-9.602965355,1.929361463,-0.556082129,1.050364017,2.110640287,3.788976669
791,2108808329,102.2860489,76.50395203,142.5000153,-9.614123344,1.936059356,-0.469783902,1.128559709,2.580659151,3.857516289
792,2108824996,102.4170914,76.4690094,142.632782,-9.606918335,1.866932392,-0.506654859,1.195946693,2.978180647,3.979074001
793,2108841663,102.5795822,76.43382263,142.7331238,-9.551856995,2.029486418,-0.553367674,0.9457618,3.419334412,3.769498587
794,2108858330,102.7715607,76.40956879,142.9416504,-9.561031342,2.043653488,-0.559299469,0.361894667,3.91470933,3.099841356
795,2108874997,102.9973145,76.39470673,143.1483917,-9.470345497,1.966847777,-0.649602175,1.008282304,4.091346741,2.418927431
796,2108891664,103.2255402,76.38896179,143.3616333,-9.487425804,1.986406446,-0.634488523,1.779211879,3.840573072,1.937126994
797,2108908331,103.4696426,76.39169312,143.6156616,-9.507773399,1.974377275,-0.703679204,2.095080614,3.909932375,1.442059278
798,2108924998,103.6982193,76.39704895,143.8304443,-9.476164818,1.904742718,-0.682597935,2.562474012,3.525473356,1.328735709
799,2108941665,103.9215088,76.40422821,144.0197906,-9.518913269,1.93895328,-0.697370112,2.761766195,3.342546701,1.214016318
800,2108958332,104.0850449,76.41451263,144.1521149,-9.558156013,1.975409031,-0.674689233,2.523440361,2.51393795,1.225209236
801,2108974999,104.2242661,76.43323517,144.3273773,-9.570012093,1.966155052,-0.693793893,2.399628162,2.1474967,0.907739699
802,2108991666,104.3292313,76.45231628,144.462204,-9.59568882,1.927525401,-0.693571806,2.424075365,1.64886868,1.005567312
803,2109008333,104.3849258,76.46934509,144.5476379,-9.622832298,1.896279812,-0.690192223,2.178219318,1.02919507,1.277804852
804,2109025000,104.3683548,76.48470306,144.5666656,-9.59383297,1.939892411,-0.726890147,1.896146774,0.114488766,1.622666955
805,2109041667,104.2853165,76.50092316,144.4470215,-9.580439568,1.928407431,-0.752025843,1.80431211,-0.877651274,1.691283345
806,2109058334,104.1293335,76.51557922,144.2934875,-9.537769318,1.862182379,-0.696321547,1.858354926,-1.842161417,2.105722427
807,2109075001,103.9246292,76.52360535,144.1434326,-9.546426773,1.890555382,-0.683084726,1.619990826,-2.312539339,2.716445208
808,2109091668,103.6737061,76.5254364,143.9523163,-9.574764252,1.896698713,-0.616439283,1.062056065,-2.747224092,3.184759617
809,2109108335,103.4238739,76.52760315,143.7768555,-9.587738991,1.932178378,-0.643726349,1.138343573,-2.745034456,3.176986217
810,2109125002,103.175209,76.52835083,143.5665283,-9.521389961,1.960467815,-0.588199317,0.812498808,-2.676597595,3.15734148
811,2109141669,102.9484634,76.52498627,143.3149109,-9.527218819,1.99488461,-0.572653294,0.503955543,-2.315048933,3.184094429
812,2109158336,102.7701263,76.52832031,143.1492462,-9.539497375,1.998235703,-0.61163348,0.233510986,-1.637477517,2.660275936
813,2109175003,102.6330566,76.5382843,143.0488434,-9.510167122,1.978708386,-0.576581657,0.416974753,-1.162400365,2.18647933
814,2109191670,102.5259781,76.54847717,142.9707642,-9.509456635,1.977011442,-0.551400959,0.240477651,-0.713665903,2.047120571
815,2109208337,102.4592438,76.5582428,142.9471893,-9.532654762,1.925919056,-0.555087864,0.542540967,-0.193664014,1.989812136
816,2109225004,102.4011765,76.56580353,142.9106903,-9.537402153,1.943130136,-0.598248184,0.654225171,-0.094248332,2.062770128
817,2109241671,102.3200455,76.57131195,142.7933044,-9.560880661,1.950654149,-0.614795685,0.91270858,-0.498544812,2.182009935
818,2109258338,102.1931305,76.57785797,142.6562958,-9.574402809,1.929667473,-0.640699625,1.018591404,-1.144522786,2.312929392
819,2109275005,102.0348969,76.58296204,142.4829102,-9.552101135,1.923453093,-0.607123375,1.089333773,-1.588595748,2.485417843
820,2109291672,101.8693008,76.58457184,142.3401947,-9.508284569,1.895171165,-0.643611968,1.020115376,-1.592642426,2.758436441
821,2109308339,101.6965637,76.58422852,142.1755219,-9.527113914,1.899774194,-0.574539721,1.110374451,-1.706401229,2.871964693
822,2109325006,101.5391922,76.58249664,142.0106201,-9.52605629,1.962060928,-0.508535504,1.154069901,-1.499322653,2.883080959
823,2109341673,101.4428253,76.58554077,141.9493713,-9.519356728,1.995877385,-0.526407421,1.079229474,-0.644985378,2.479334831
824,2109358340,101.3700714,76.58974457,141.8489227,-9.514536858,1.969048023,-0.520012558,0.923376262,-0.357342005,2.22859931
825,2109375007,101.3481903,76.59880829,141.807785,-9.483344078,2.03396368,-0.466962337,0.862520278,0.318826824,1.806860447
826,2109391674,101.4054794,76.61725616,141.9124756,-9.494959831,2.011136532,-0.526896298,0.871036649,1.375606894,1.130992651
827,2109408341,101.516922,76.64039612,142.029953,-9.485394478,1.993081927,-0.471055567,1.04398644,1.998174906,0.646900058
828,2109425008,101.686821,76.67018127,142.2180939,-9.531821251,2.0227139,-0.443794012,1.241101861,2.692342997,0.11670427
829,2109441675,101.9213943,76.70040131,142.4558105,-9.555462837,1.998770237,-0.413170457,0.944289029,3.616948605,-0.149443686
830,2109458342,102.1177673,76.72653961,142.6719513,-9.663678169,1.864659429,-0.6011886,0.51002568,3.240761995,0.187318474
831,2109475009,102.2841568,76.74639893,142.8276825,-9.54906559,1.927342772,-0.59158498,0.628881454,2.834186077,0.597749174
832,2109491676,102.4147797,76.765625,143.0132904,-9.5505476,1.884138823,-0.653924763,0.644185007,2.401331186,0.845014155
833,2109508343,102.5153046,76.77940369,143.1561432,-9.527471542,1.877939224,-0.599256814,0.581971765,2.053050041,1.228564382
834,2109525010,102.6222992,76.78830719,143.2696381,-9.552342415,1.942376137,-0.572516024,0.65414834,2.155884981,1.442276597
835,2109541677,102.7285767,76.79701996,143.3390503,-9.56702137,1.925264716,-0.561312139,0.576247275,2.130477428,1.380921483
836,2109558344,102.8231964,76.80990601,143.4252319,-9.56420517,1.963391185,-0.579015613,0.991032302,1.842296004,1.247953296
837,2109575011,102.9324875,76.82504272,143.5374603,-9.566407204,1.909964323,-0.644478202,1.301137924,1.954466581,1.109734178
838,2109591678,103.0255737,76.83934021,143.6013947,-9.547269821,1.89374125,-0.613267958,1.672675729,1.631977201,1.187660933
839,2109608345,103.1237106,76.85423279,143.7121429,-9.536963463,1.899758935,-0.590597689,1.915292263,1.676671386,1.218011975
840,2109625012,103.2300644,76.86346436,143.7084351,-9.544192314,1.927539229,-0.570663214,2.018575191,1.73734796,1.342156649
841,2109641679,103.3175278,76.87689209,143.7817993,-9.573254585,1.942111135,-0.596916199,1.643093109,1.580188274,1.274808049
842,2109658346,103.3848114,76.89069366,143.8401031,-9.58839798,1.843651175,-0.640449166,2.32910347,1.152648211,1.380831957
843,2109675013,103.4051437,76.91186523,143.8637238,-9.534983635,2.053104639,-0.721542835,2.004257679,0.495272756,1.093316555
844,2109691680,103.3756866,76.9457016,143.8821106,-9.613337517,2.031465769,-0.59109062,0.782442391,-0.064601645,0.484284967
845,2109708347,103.3884583,76.97827148,143.8556213,-9.576236725,1.77397573,-0.466754735,1.540911198,0.301371813,0.352328271
846,2109725014,103.4568939,76.99919891,143.9420624,-9.577131271,1.83335793,-0.58020401,1.805964351,1.203989029,0.959298074
847,2109741681,103.5419159,77.01772308,144.0577393,-9.517087936,1.923195958,-0.604888558,1.557085752,1.508844256,1.041335583
848,2109758348,103.5711899,77.04238129,144.0921631,-9.570184708,1.927441478,-0.738642812,1.492925882,0.665507555,0.821476161
849,2109775015,103.6001205,77.07119751,144.1056976,-9.515665054,1.917440295,-0.623232186,1.924563766,0.496092319,0.584635437
850,2109791682,103.641037,77.10121155,144.1262207,-9.566953659,1.922094226,-0.590490103,1.440381527,0.741846204,0.43003726
851,2109808349,103.7105408,77.12973022,144.2283936,-9.553379059,1.837023258,-0.558180213,1.360380054,1.193013787,0.494504303
852,2109825016,103.7959213,77.15174866,144.3795013,-9.559664726,1.800023317,-0.609507859,1.487765074,1.482143044,0.874148726
853,2109841683,103.8752518,77.16316223,144.4316254,-9.565453529,1.854744077,-0.633613467,1.263282418,1.532395124,1.362659812
854,2109858350,103.9445877,77.16853333,144.4561462,-9.546827316,1.819408298,-0.629694402,1.055806756,1.521919489,1.705088735
855,2109875017,104.0083084,77.17353058,144.5167999,-9.540807724,1.832802176,-0.631323218,1.219087601,1.446579695,1.818130374
856,2109891684,104.075882,77.17617035,144.6250458,-9.528341293,1.886279106,-0.636957109,1.014659882,1.605340004,1.989594698
857,2109908351,104.1533127,77.1799469,144.7237701,-9.538681984,1.89089334,-0.646727443,0.647565842,1.77685535,1.827594042
858,2109925018,104.2331085,77.18289948,144.7996216,-9.519109726,1.902281165,-0.613056839,0.599977493,1.81376338,1.824725628
859,2109941685,104.3545685,77.19112396,144.9240265,-9.537811279,1.920196533,-0.605316103,0.509410977,2.308319092,1.38058877
860,2109958352,104.4715805,77.19933319,145.024292,-9.58368206,1.862086535,-0.598868608,0.535561621,2.226473808,1.365425944
861,2109975019,104.6185303,77.20843506,145.183197,-9.569047928,1.824699998,-0.64392364,0.871766746,2.551639318,1.272554159
862,2109991686,104.7432327,77.21452332,145.3268738,-9.553790092,1.83027494,-0.687538981,1.039670706,2.265071869,1.546687126
863,2110008353,104.8373871,77.22031403,145.4551544,-9.564455032,1.868245959,-0.696940899,1.126292706,1.858482957,1.695150852
864,2110025020,104.9124985,77.22865295,145.5031433,-9.567420959,1.873503447,-0.705867767,1.303250909,1.497638583,1.543011427
865,2110041687,104.940155,77.23907471,145.4823303,-9.563491821,1.854920268,-0.690239489,1.60315001,0.76159364,1.581750751
866,2110058354,104.9534912,77.25134277,145.4689789,-9.573694229,1.855270982,-0.699503005,1.541551709,0.581869304,1.555472136
867,2110075021,104.9513092,77.26515198,145.420639,-9.56716156,1.843414664,-0.659988284,1.707253098,0.297606796,1.504080296
868,2110091688,104.9431,77.28120422,145.4329834,-9.567861557,1.82367003,-0.687678874,1.895570517,0.192312971,1.506257296
869,2110108355,104.9305344,77.29497528,145.3932648,-9.529631615,1.847344041,-0.64334774,2.057224751,0.108841144,1.598872662
870,2110125022,104.9174271,77.30782318,145.367157,-9.556781769,1.83996129,-0.676891983,1.968246222,0.138987303,1.666016221
871,2110141689,104.8977585,77.32122803,145.3384552,-9.55164814,1.863431811,-0.633005857,1.980310082,0.049035512,1.664594889
872,2110158356,104.8883743,77.3360672,145.310318,-9.548242569,1.849710226,-0.663006842,2.054189682,0.140216708,1.536966801
873,2110175023,104.8806839,77.34894562,145.2711792,-9.540266991,1.842606068,-0.645843148,1.981206536,0.205144927,1.621271253
874,2110191690,104.8747101,77.36306,145.286377,-9.568050385,1.877035499,-0.648139536,1.85044086,0.260967821,1.604213119
875,2110208357,104.8813248,77.37837982,145.2801514,-9.578466415,1.868327498,-0.632602096,1.910809875,0.378875881,1.449141026
876,2110225024,104.874855,77.39415741,145.2689514,-9.571647644,1.840809345,-0.626419783,1.934642315,0.193772897,1.476175189
877,2110241691,104.8840103,77.40818787,145.2405853,-9.572621346,1.842192292,-0.644717932,1.941916466,0.410110563,1.484563351
878,2110258358,104.8853302,77.42221832,145.2431946,-9.576107979,1.842481732,-0.635819674,1.787984252,0.353071064,1.546712518
879,2110275025,104.8929977,77.43742371,145.2395782,-9.569189072,1.834411979,-0.646521628,1.890729547,0.396113217,1.449115396
880,2110291692,104.8863983,77.45170593,145.2387848,-9.580434799,1.828258634,-0.647858858,1.763959527,0.260225028,1.569597483
881,2110308359,104.8666229,77.46315002,145.2557678,-9.57412529,1.811689019,-0.607935727,1.683010578,0.166367292,1.807065487
882,2110325026,104.8342667,77.47293854,145.2338867,-9.562240601,1.830307722,-0.643531144,1.628442645,0.027200688,1.907211304
883,2110341693,104.8023071,77.48235321,145.2117157,-9.560381889,1.846181989,-0.640956879,1.569623113,0.052019391,1.922783613
884,2110358360,104.7554932,77.49039459,145.1516113,-9.560006142,1.811043501,-0.625178754,1.618991613,-0.138801605,2.026335716
885,2110375027,104.7165375,77.497612,145.1265106,-9.553125381,1.842927933,-0.611986697,1.599077582,-0.010597254,2.080724001
886,2110391694,104.6847534,77.5039978,145.0940552,-9.563751221,1.838296533,-0.626278102,1.290111661,0.154073194,2.058979034
887,2110408361,104.6416321,77.51091003,145.0675812,-9.557592392,1.829086423,-0.646534264,1.20313096,0.025305348,2.082030773
888,2110425028,104.6011658,77.51725769,145.0074463,-9.556567192,1.850509882,-0.626841307,1.256123662,0.044540484,2.062859774
889,2110441695,104.5710144,77.52349854,144.9312439,-9.548447609,1.833910108,-0.606771708,1.125255585,0.193491146,1.984279871
890,2110458362,104.5560303,77.53207397,144.9645996,-9.553275108,1.858473659,-0.60395062,1.097978115,0.400569826,1.924282074
891,2110475029,104.5631332,77.54097748,145.011795,-9.569604874,1.842912793,-0.643640041,1.184113503,0.650985181,1.818950057
892,2110491696,104.5479431,77.5506897,145.015564,-9.562373161,1.848648548,-0.614915907,1.20748508,0.345669001,1.828093767
893,2110508363,104.5517731,77.56324768,145.0970001,-9.562908173,1.826544166,-0.613696456,1.281646729,0.551185369,1.679424882
894,2110525030,104.5654984,77.57509613,145.1317444,-9.558423042,1.842223644,-0.585128725,1.378859758,0.642135978,1.61796701
895,2110541697,104.5885468,77.58751678,145.1858673,-9.57942009,1.826347709,-0.633469939,1.316031814,0.769290328,1.561926603
896,2110558364,104.6020813,77.59849548,145.1916809,-9.578607559,1.837637782,-0.629681528,1.389104843,0.641149938,1.631477952
897,2110575031,104.6092453,77.60808563,145.1490631,-9.600054741,1.839101553,-0.617415965,1.407622814,0.566885889,1.682856679
898,2110591698,104.608696,77.6199646,145.1608887,-9.578070641,1.802971959,-0.648639977,1.413628936,0.445545733,1.654004216
899,2110608365,104.6051254,77.62981415,145.1989441,-9.532687187,1.836337686,-0.608514249,1.45122838,0.439437121,1.822791815
900,2110625032,104.611412,77.63941956,145.195282,-9.568758011,1.821313143,-0.613272309,1.288267612,0.58793956,1.724797726
901,2110641699,104.6210861,77.64910126,145.1672516,-9.554384232,1.840893149,-0.585425317,1.3139956,0.616664231,1.673226476
902,2110658366,104.6432648,77.65862274,145.1396027,-9.560595512,1.827730298,-0.640271783,1.571454525,0.719550431,1.645129323
903,2110675033,104.6557541,77.66989136,145.141983,-9.5720644,1.833652258,-0.619476199,1.476444125,0.60037446,1.617416382
904,2110691700,104.6684418,77.68035889,145.1585693,-9.575065613,1.808538795,-0.615467429,1.530281901,0.609300613,1.687198281
905,2110708367,104.6648941,77.68839264,145.1569061,-9.550298691,1.789249182,-0.633227885,1.648190022,0.422199726,1.892074108
906,2110725034,104.6628036,77.6940918,145.1261902,-9.566978455,1.812846422,-0.584136307,1.508882403,0.496361285,1.97026968
907,2110741701,104.6455612,77.69741058,145.0705109,-9.575305939,1.820763946,-0.618824124,1.264793515,0.383345276,2.127762318
908,2110758368,104.6475601,77.70023346,145.0440521,-9.558047295,1.838590145,-0.639560699,1.444184899,0.602641225,2.117402077
909,2110775035,104.6339035,77.70576477,145.0387573,-9.557918549,1.823294282,-0.599615157,1.469566822,0.380246133,2.066906452
910,2110791702,104.6475372,77.71110535,145.0423279,-9.55790329,1.830385327,-0.589867175,1.580930948,0.688763857,1.965428948
911,2110808369,104.6657715,77.71559906,145.0606995,-9.567461967,1.806276798,-0.586749852,1.531780124,0.770135403,2.007715464
912,2110825036,104.6917725,77.71766663,145.0887604,-9.574746132,1.829604745,-0.622232258,1.613036633,0.8897084,2.129171133
913,2110841703,104.7171249,77.72094727,145.0893097,-9.58266449,1.7985816,-0.623046219,1.524736881,0.877388716,2.024978638
914,2110858370,104.7239685,77.7231369,145.1021729,-9.554603577,1.801622748,-0.62844795,1.574822426,0.653815389,2.192421675
915,2110875037,104.7282639,77.72427368,145.1192627,-9.563465118,1.823322415,-0.606750846,1.568099022,0.644351423,2.26986146
916,2110891704,104.738739,77.72718048,145.1429901,-9.573285103,1.823024035,-0.641177773,1.373071074,0.741231501,2.132193089
917,2110908371,104.7408905,77.73127747,145.1874084,-9.572473526,1.793545604,-0.636524141,1.547186375,0.585826457,2.138135195
918,2110925038,104.7354584,77.73262787,145.1864166,-9.548898697,1.817467213,-0.64567101,1.527899742,0.523882151,2.27538085
919,2110941705,104.7155762,77.73410034,145.1360931,-9.570311546,1.835920572,-0.631564796,1.424527049,0.354236484,2.259975195
920,2110958372,104.7108688,77.73896027,145.1659241,-9.565422058,1.819254518,-0.605303943,1.488469362,0.495938718,2.105184793
921,2110975039,104.7102661,77.74324036,145.2059937,-9.576722145,1.82670033,-0.616805494,1.537632704,0.533538103,2.128889084
922,2110991706,104.7092896,77.74568939,145.2223816,-9.574991226,1.812047601,-0.62341702,1.380934238,0.589425027,2.196954966
923,2111008373,104.704483,77.74763489,145.292923,-9.566728592,1.793372869,-0.637039423,1.348636746,0.573263466,2.308472633
924,2111025040,104.6977692,77.74868011,145.287674,-9.571892738,1.837367296,-0.630309582,1.374364734,0.538775921,2.276405573
925,2111041707,104.6875916,77.75004578,145.2229767,-9.563806534,1.840118766,-0.600101471,1.4009763,0.471542656,2.200451136
926,2111058374,104.6849747,77.75426483,145.2225189,-9.554388046,1.818574071,-0.639712155,1.418789983,0.525367677,2.080365896
927,2111075041,104.6760712,77.75744629,145.2080688,-9.567275047,1.823994517,-0.63937366,1.384891272,0.478150666,2.150672674
928,2111091708,104.6694794,77.76164246,145.2112122,-9.560564995,1.82600534,-0.609294116,1.502517819,0.466061473,2.112112761
929,2111108375,104.6677704,77.76572418,145.2403717,-9.569586754,1.813471079,-0.627424717,1.44200778,0.549405158,2.123561621
930,2111125042,104.6577454,77.76780701,145.2190247,-9.555624008,1.831560016,-0.628224313,1.449768543,0.456034124,2.212655544
931,2111141709,104.6419907,77.77127838,145.1722717,-9.563211441,1.831818223,-0.601390183,1.373455286,0.377364725,2.123523235
932,2111158376,104.6322174,77.77635193,145.1894531,-9.540233612,1.835081339,-0.639733791,1.372635722,0.437618613,2.076536655
933,2111175043,104.6220779,77.78195953,145.2015991,-9.556609154,1.830321908,-0.627832592,1.326020837,0.435454339,2.038860559
934,2111191710,104.5994034,77.78839874,145.1958771,-9.576403618,1.835050583,-0.596766353,1.315429807,0.267896026,2.024376631
935,2111208377,104.5790787,77.79441833,145.1930389,-9.578075409,1.816980958,-0.559989035,1.30959022,0.312795103,2.044930935
936,2111225044,104.5643921,77.79794312,145.1843872,-9.588431358,1.83535409,-0.589547038,1.285117149,0.423352271,2.151069641
937,2111241711,104.5587311,77.80197906,145.1712646,-9.565392494,1.842025876,-0.616629958,1.373634577,0.502226591,2.08085227
938,2111258378,104.5264969,77.80651093,145.1274261,-9.56194973,1.825369,-0.626620471,1.451420307,0.144878224,2.139198303
939,2111275045,104.5009308,77.81292725,145.1455994,-9.560256958,1.848330021,-0.604743719,1.401770353,0.221665114,2.073642731
940,2111291712,104.4850922,77.81777954,145.1359863,-9.558903694,1.798856616,-0.595152438,1.287703991,0.379119188,2.073629856
941,2111308379,104.4673233,77.82083893,145.1454773,-9.546032906,1.831401587,-0.581709802,1.180310011,0.410597175,2.20497179
942,2111325046,104.4605942,77.82472992,145.1127777,-9.567403793,1.824539661,-0.607622504,1.218805909,0.527685642,2.061976194
943,2111341713,104.4531097,77.82884216,145.1036224,-9.552189827,1.834303856,-0.624265373,1.252384305,0.504723907,2.07695961
944,2111358380,104.4487534,77.83699036,145.1252441,-9.536434174,1.857522726,-0.584304631,1.312189817,0.474680156,1.871993899
945,2111375047,104.4702225,77.84468842,145.2108917,-9.574980736,1.824933529,-0.597348332,1.288062692,0.810846865,1.852989197
946,2111391714,104.4807663,77.85025787,145.2211304,-9.565423965,1.820342422,-0.622733951,1.322767973,0.694667637,1.94187808
947,2111408381,104.4981689,77.85309601,145.2255554,-9.562112808,1.81839776,-0.607606113,1.208035707,0.846947908,2.053344488
948,2111425048,104.5059509,77.85617828,145.211441,-9.534789085,1.842174053,-0.607613742,1.204552412,0.712596476,2.053549528
949,2111441715,104.5162506,77.85929871,145.2352295,-9.578579903,1.800298691,-0.609374821,1.244303226,0.741064966,2.093146324
950,2111458382,104.5215836,77.85941315,145.2229462,-9.560713768,1.851980329,-0.555766165,1.250809073,0.718922853,2.245183706
951,2111475049,104.5141907,77.86091614,145.2074585,-9.579274178,1.816904426,-0.584099054,1.20751071,0.55333674,2.212975502
952,2111491716,104.4949799,77.86103821,145.2099915,-9.558289528,1.841089129,-0.581232429,1.191131353,0.427693635,2.367650747
953,2111508383,104.4819641,77.86039734,145.2152405,-9.565348625,1.790177941,-0.599030554,1.129327893,0.535215795,2.383722782
954,2111525050,104.4519348,77.85858154,145.1941833,-9.553700447,1.822478533,-0.586989999,1.182743073,0.328303546,2.498774529
955,2111541717,104.4503632,77.85813141,145.2357178,-9.571040154,1.864036441,-0.587040544,1.220188975,0.647002399,2.36803484
956,2111558384,104.4642563,77.85941315,145.2985077,-9.557852745,1.85182941,-0.578882575,1.186866879,0.821796238,2.216382027
957,2111575051,104.4924774,77.86009216,145.3228912,-9.569988251,1.82671845,-0.589269221,1.195716143,1.011970639,2.148521423
958,2111591718,104.5136795,77.85906982,145.3408203,-9.560495377,1.826312542,-0.582223654,1.274654388,0.934722722,2.277238131
959,2111608385,104.5414352,77.8585968,145.3735504,-9.551890373,1.852170944,-0.606318951,1.218139887,1.02106297,2.227305889
960,2111625052,104.5787735,77.85974884,145.4075623,-9.565382004,1.867201328,-0.611458242,1.281685114,1.099975824,2.096168995
961,2111641719,104.6288986,77.86157227,145.4516602,-9.555780411,1.845431209,-0.606164634,1.382125139,1.2292943,2.015437603
962,2111658386,104.6732178,77.86342621,145.474411,-9.566655159,1.805736542,-0.597557902,1.324368596,1.168848395,2.014592648
963,2111675053,104.723465,77.8632431,145.5208435,-9.542568207,1.847147942,-0.60001862,1.328466773,1.277074814,2.132091045
