PacketCounter,SampleTimeFine,Euler_X,Euler_Y,Euler_Z,Acc_X,Acc_Y,Acc_Z,Gyr_X,Gyr_Y,Gyr_Z
0,1474744516,90.70301819,17.01851273,20.11867714,0,0,0,0,0,0
1,1474761183,90.80780029,17.15788269,20.12797165,-2.912322283,9.28457737,-0.259904861,0.828513265,0.415726155,0.071862839
2,1474777850,90.9617691,17.24843216,20.09421921,-2.913207293,9.330341339,-0.26322332,0.514680803,-0.169389591,0.204344526
3,1474794517,91.10003662,17.29375267,20.05389595,-2.88197279,9.47376442,-0.130673349,0.758116603,-0.468443394,0.260474741
4,1474811184,91.16484833,17.28528976,20.06483841,-2.863749981,9.494095802,-0.139903873,1.455550551,-0.022321468,0.411640942
5,1474827851,91.19573975,17.25178528,20.07773399,-2.950437546,9.45482254,-0.212371454,1.492432833,6.98E-04,0.47389257
6,1474844518,91.22707367,17.23300552,20.06918526,-2.93545413,9.397319794,-0.247513771,1.450632691,-0.002676527,0.405071199
7,1474861185,91.26838684,17.22171974,20.05516243,-2.94279027,9.400938988,-0.310493559,1.787478209,-0.188727185,0.423473954
8,1474877852,91.31489563,17.21179962,20.03732681,-2.941379309,9.39229393,-0.26829955,1.60465467,-0.457071424,0.640413463
9,1474894519,91.36286926,17.20169449,20.04137421,-2.906284571,9.445240021,-0.220918581,1.779205322,-0.478816599,0.819151759
10,1474911186,91.39421082,17.18736076,20.04926682,-2.941680908,9.342301369,-0.246727124,1.258652925,-0.748838484,0.919028401
11,1474927853,91.43380737,17.17721558,20.084198,-2.900727034,9.374076843,-0.088565581,1.825128794,-0.502610803,0.851871908
12,1474944520,91.46443176,17.16346359,20.09714508,-2.904288769,9.489952087,-0.136553153,1.97441268,-0.380105287,1.011298299
13,1474961187,91.46968079,17.14042854,20.09126091,-2.985658169,9.436184883,-0.253681093,0.842485011,-0.569536805,1.448263764
14,1474977854,91.47550964,17.12275505,20.06397057,-2.991540194,9.508752823,-0.269758642,0.945140541,-1.156157136,1.310928226
15,1474994521,91.48616028,17.10659027,20.04423523,-2.939783335,9.511571884,-0.250460178,1.29283309,-1.710595489,1.315205693
16,1475011188,91.4942627,17.09187508,20.00659752,-2.966854572,9.408089638,-0.281759501,1.21520102,-2.067482948,1.196977496
17,1475027855,91.49950409,17.08265495,19.98789215,-2.929764271,9.448379517,-0.146025255,0.932257533,-1.995126843,0.935523152
18,1475044522,91.48696899,17.07515526,19.96172333,-2.942374706,9.428613663,-0.1912864,0.028910337,-1.984305501,0.80803591
19,1475061189,91.47658539,17.06843567,19.94702721,-2.939145565,9.334055901,-0.089177854,0.133371726,-1.736335993,0.761766493
20,1475077856,91.46185303,17.06314659,19.90944862,-3.008097887,9.559836388,-0.119874015,0.12862058,-2.030754328,0.720376432
21,1475094523,91.42536926,17.05704308,19.87727737,-2.990975857,9.453902245,-0.167818651,-1.053322196,-2.145268202,0.794768453
22,1475111190,91.4030838,17.04867554,19.84230423,-3.01091361,9.344299316,-0.129495323,-0.140191108,-2.321099281,0.967743814
23,1475127857,91.39930725,17.04144096,19.82288933,-3.007341385,9.380866051,-0.118999757,0.978757262,-2.244133472,0.969165325
24,1475144524,91.38648224,17.04094696,19.79226303,-2.978116274,9.479511261,-0.101668142,0.615005791,-2.739752293,0.619948983
25,1475161191,91.37732697,17.03737831,19.75350761,-2.955299377,9.381422043,-0.172999993,0.831509829,-2.605157137,0.785803974
26,1475177858,91.38092041,17.03663635,19.72218323,-2.979106188,9.308470726,-0.111806124,1.513960242,-2.445448875,0.603736043
27,1475194525,91.38445282,17.03975105,19.68247795,-2.991607428,9.336176872,-0.137771755,1.516406417,-2.418556213,0.39294365
28,1475211192,91.3895874,17.03584099,19.65710449,-2.995357275,9.417881012,-0.075652257,1.559845328,-2.268247843,0.828897357
29,1475227859,91.38999176,17.03128433,19.65420723,-3.011141777,9.470933914,0.021955388,1.22880125,-2.008957624,0.861233532
30,1475244526,91.40441132,17.0300312,19.63770294,-3.000956774,9.440398216,0.013759946,1.926529765,-1.279418588,0.64557457
31,1475261193,91.43991089,17.02347565,19.64950943,-3.072498083,9.399244308,-0.009180602,3.014966726,-0.495119125,0.941887796
32,1475277860,91.50257874,17.01658058,19.65084267,-3.071473122,9.419303894,-0.094548054,4.554226875,-0.067873664,0.987375975
33,1475294527,91.59660339,16.99892998,19.6738987,-3.013564825,9.334674835,-0.119300842,6.356286049,0.187734738,1.651923537
34,1475311194,91.73477173,16.97310829,19.68739128,-3.104032755,9.272833824,-0.129818231,8.961867332,0.295897186,2.146568775
35,1475327861,91.90436554,16.94293022,19.69758606,-3.065459013,9.35755825,-0.109403186,10.7711544,0.540543437,2.450150013
36,1475344528,92.099617,16.89700699,19.73870087,-3.01548171,9.354636192,-0.148022339,12.25061893,0.807869852,3.402578592
37,1475361195,92.3238678,16.83557892,19.78385735,-2.990486622,9.284812927,-0.222108155,14.01156139,0.791695595,4.333806992
38,1475377862,92.54764557,16.77651787,19.81424522,-2.952484131,9.378965378,-0.19584924,13.955019,0.85695678,4.186610222
39,1475394529,92.67904663,16.71117592,19.83296013,-2.95572257,9.578566551,-0.353503764,8.41440773,0.911818743,4.542458534
40,1475411196,92.68814087,16.64748955,19.85644341,-2.969575882,9.432999611,-0.417949617,1.256142974,0.210709304,4.444745064
41,1475427863,92.66036987,16.58523369,19.88251686,-2.940612793,9.3051157,-0.350881875,-1.040349483,0.333330095,4.346430779
42,1475444530,92.65782928,16.51291084,19.90299797,-2.939530611,9.411868095,-0.328171819,0.488158852,0.223387584,4.951683998
43,1475461197,92.66156006,16.41555214,19.90664864,-2.836586714,9.128125191,-0.593966842,1.070969462,-0.447690785,6.479718685
44,1475477864,92.70102692,16.3169651,19.913311,-2.826433897,9.222437859,-0.462091297,2.93514514,0.198837802,6.51330328
45,1475494531,92.74969482,16.22232437,19.93583107,-2.797538757,9.568908691,-0.344240814,3.252326727,0.847012162,6.232876778
46,1475511198,92.75482941,16.1206913,19.96732712,-2.777793407,9.513613701,-0.589038551,0.563504994,1.122630239,6.602223873
47,1475527865,92.77402496,16.06299591,19.98643875,-2.788346052,9.791186333,-0.526466608,1.544695377,0.31036827,3.97056365
48,1475544532,92.76278687,15.9985981,19.9861412,-2.7572155,9.455997467,-0.425239444,-0.03599865,-0.656530261,4.37895155
49,1475561199,92.76138306,15.95089626,19.9752903,-2.888862848,9.497306824,-0.366756737,0.607085049,-0.946722269,3.369760752
50,1475577866,92.73429871,15.90132236,19.95502472,-2.801086903,9.409648895,-0.42244339,-0.768726885,-1.526196957,3.515318155
51,1475594533,92.735466,15.85813904,19.93506241,-2.915998459,9.458042145,-0.08457385,0.932340801,-1.628141761,3.132318258
52,1475611200,92.7881546,15.81176186,19.92722321,-2.955642223,9.420909882,-0.068788156,3.886900187,-0.950602591,3.308732033
53,1475627867,92.86586761,15.77830029,19.94559288,-2.912332296,9.405779839,-0.238947466,5.154709816,0.021565894,2.510595322
54,1475644534,92.92837524,15.75178909,19.95949745,-2.978637934,9.482698441,-0.439429522,4.190385342,0.251664013,2.098826647
55,1475661201,92.86705017,15.74880123,19.93314362,-3.042268991,9.917603493,-0.55739671,-2.591518402,-2.171316624,0.830882311
56,1475677868,92.8107605,15.75222969,19.90292358,-3.077179909,9.300533295,-0.243844315,-2.324781418,-2.175203323,0.456418335
57,1475694535,92.82566071,15.76375771,19.87493134,-3.106220961,9.439245224,-0.26384443,2.013241529,-2.370301723,0.023288349
58,1475711202,92.82589722,15.78074265,19.84274864,-2.951778173,9.623198509,-0.522209287,1.19031179,-2.545319796,-0.258092791
59,1475727869,92.81678009,15.78646946,19.80766487,-2.882132292,9.45246315,-0.36162141,0.731569171,-2.96029067,0.444771022
60,1475744536,92.8358078,15.79600143,19.78597641,-2.884611845,9.38270092,-0.152425408,2.156646967,-2.044930935,0.172840908
61,1475761203,92.86637878,15.80761051,19.77803993,-2.870897532,9.50168705,-0.130116582,2.61113143,-1.11384511,0.007177959
62,1475777870,92.87589264,15.81477737,19.77701187,-2.88387394,9.553966522,-0.230512947,1.26615119,-0.700193584,0.252131432
63,1475794537,92.87124634,15.81636143,19.77808762,-2.864902496,9.423458099,-0.400672644,0.469992995,-0.810007989,0.591922283
64,1475811204,92.86282349,15.81795692,19.77310753,-2.841099024,9.319882393,-0.433454305,0.335436672,-1.168182373,0.608967483
65,1475827871,92.88710785,15.8111639,19.76934433,-2.820680857,9.374775887,-0.209361315,2.281713963,-1.132427096,1.111584783
66,1475844538,92.90554047,15.80099773,19.76472092,-2.876948118,9.402888298,-0.287173241,1.929519892,-1.060653925,1.308053374
67,1475861205,92.89670563,15.79118252,19.75385666,-2.854769707,9.544408798,-0.229755595,0.400076747,-1.410043001,1.308149338
68,1475877872,92.88274384,15.78082466,19.73792648,-2.872446537,9.442220688,-0.337067485,0.167955294,-1.62490809,1.347778678
69,1475894539,92.88517761,15.77544594,19.71404648,-2.845403194,9.360898018,-0.373568565,1.232047677,-1.919613957,1.065437078
70,1475911206,92.88999176,15.77412033,19.68962479,-2.85522151,9.489059448,-0.344430119,1.427062869,-2.134953022,0.834052026
71,1475927873,92.87780762,15.77138519,19.66246986,-2.883730173,9.403283119,-0.35351035,0.492039084,-2.432604313,0.933294535
72,1475944540,92.87483215,15.76947594,19.63389015,-2.924972296,9.356066704,-0.332137734,1.080606103,-2.562076569,0.895272732
73,1475961207,92.88381195,15.77073669,19.60498619,-2.894932032,9.513978004,-0.222533733,1.787049174,-2.529791832,0.71356976
74,1475977874,92.89439392,15.76730061,19.57030296,-2.894997597,9.488806725,-0.249113753,1.890742183,-2.493088961,0.997012675
75,1475994541,92.90715027,15.76331902,19.54449463,-2.922320843,9.445428848,-0.199111074,1.978337407,-2.294801712,1.024213314
76,1476011208,92.91651154,15.76230431,19.5210495,-2.865849733,9.518267632,-0.243728727,1.770035982,-2.236897945,0.851308525
77,1476027875,92.91503906,15.75287724,19.49785614,-2.876336336,9.303946495,-0.359957427,1.160402656,-2.308421373,1.361129284
78,1476044542,92.91577148,15.74968052,19.46903801,-2.850937366,9.427653313,-0.30920735,1.357236266,-2.567583799,1.006777644
79,1476061209,92.902565,15.74890041,19.44346619,-2.835107803,9.549555779,-0.240719855,0.520815074,-2.56030941,0.863487422
80,1476077876,92.89290619,15.74956608,19.41770172,-2.891365051,9.441855431,-0.286678106,0.688174784,-2.362592459,0.763040721
81,1476094543,92.89427948,15.75490379,19.39681244,-2.896223545,9.538925171,-0.248939261,1.264422059,-2.050290346,0.472323745
82,1476111210,92.89665222,15.75702477,19.37899971,-2.897138596,9.465248108,-0.229674265,1.307618022,-1.939746022,0.66336894
83,1476127877,92.90733337,15.75879669,19.36493301,-2.96232295,9.417866707,-0.230759799,1.813423991,-1.927483916,0.689871728
84,1476144544,92.89737701,15.76660061,19.34428787,-2.890578985,9.553329468,-0.300913781,0.659494996,-2.201616526,0.354396522
85,1476161211,92.87978363,15.77017593,19.3164959,-2.938541889,9.387205124,-0.34455508,0.345015883,-2.681284666,0.634349763
86,1476177878,92.87979126,15.77479362,19.28320503,-2.916192055,9.377932549,-0.304342955,1.439920306,-2.815238953,0.589937329
87,1476194545,92.88821411,15.77545452,19.25142097,-2.914814711,9.388571739,-0.270468056,1.950509787,-2.813145638,0.835729659
88,1476211212,92.8950119,15.76487637,19.22455025,-2.965309381,9.38906765,-0.284423798,1.812393069,-2.606713295,1.509920001
89,1476227879,92.90111542,15.74455643,19.1989727,-2.907772541,9.467810631,-0.312115788,1.816331267,-2.723731518,2.114962578
90,1476244546,92.92692566,15.7183218,19.17801857,-2.891052246,9.485176086,-0.172745079,2.880013704,-2.269477367,2.454061508
91,1476261213,92.9637146,15.69100571,19.17070198,-2.890004396,9.505662918,-0.179584533,3.347573519,-1.536749244,2.487306833
92,1476277880,92.9927063,15.66090298,19.16740417,-2.90762949,9.463551521,-0.319349289,2.789927721,-1.146943212,2.64096427
93,1476294547,93.02429962,15.61824894,19.16832542,-2.88931036,9.211071014,-0.263911664,2.856360674,-0.773285925,3.384046078
94,1476311214,93.06993103,15.57783794,19.18132973,-2.873482704,9.331465721,-0.198408872,3.582813025,-0.338804781,3.239756584
95,1476327881,93.08892822,15.53055954,19.18899345,-2.825571537,9.439145088,-0.296543688,2.043451786,-0.473553181,3.669345379
96,1476344548,93.07169342,15.50459576,19.18714142,-2.775574684,9.570253372,-0.293830067,0.056175053,-1.193705559,2.430690289
97,1476361215,93.06398773,15.46065617,19.19062424,-2.82810235,9.376553535,-0.101427659,0.52093029,-0.717693388,3.483422995
98,1476377882,93.05274963,15.41987324,19.198349,-2.956808567,9.477237701,-0.12468648,0.223675698,-0.340937018,3.280755997
99,1476394549,93.00841522,15.37896729,19.20459747,-2.823553085,9.515095711,-0.159107283,-1.719406009,-0.4197281,3.307118177
100,1476411216,92.95211029,15.3313942,19.20933914,-2.874471426,9.432955742,-0.135902271,-2.378152132,-0.550775528,3.719546795
101,1476427883,92.90937042,15.27873039,19.21793938,-2.870562553,9.348741531,-0.108460784,-1.576423287,-0.434096873,4.029466629
102,1476444550,92.87393951,15.22241211,19.21355057,-2.976355314,9.471150398,-0.154267579,-0.923536479,-1.137287259,4.298003674
103,1476461217,92.83259583,15.16503334,19.19468307,-2.914998293,9.570659637,-0.32446602,-1.059232354,-1.890056968,4.416947842
104,1476477884,92.75888824,15.12483978,19.13233757,-2.846170187,9.561238289,-0.522344708,-2.3933599,-4.183367729,3.507390976
105,1476494551,92.69528961,15.10792065,19.06906319,-2.650445461,9.372172356,-0.458699882,-1.722146869,-4.554232597,2.131047249
106,1476511218,92.70786285,15.0975523,19.03220558,-2.834332228,9.448803902,-0.169529095,2.435831547,-3.093277693,1.662840366
107,1476527885,92.68196106,15.09451008,19.00745964,-2.88106513,9.612230301,-0.272639215,-0.017115686,-2.532141685,1.207203388
108,1476544552,92.63160706,15.08677673,18.9819355,-2.863244295,9.405727386,-0.36973384,-1.458495855,-2.596685886,1.500878572
109,1476561219,92.60531616,15.07453632,18.95345116,-2.867475271,9.422740936,-0.326558828,-0.041844748,-2.490444422,1.779583335
110,1476577886,92.60001373,15.06029415,18.92243576,-2.80980444,9.409894943,-0.266208142,1.224447012,-2.520455837,1.912916422
111,1476594553,92.61038208,15.05131245,18.89835167,-2.820736647,9.542233467,-0.209102511,2.090322971,-2.246669292,1.594691753
112,1476611220,92.62130737,15.04713726,18.88132858,-2.819864273,9.547919273,-0.121645898,2.040256739,-1.914722562,1.29930675
113,1476627887,92.64434052,15.04195976,18.8719635,-2.882724047,9.4644804,-0.142640397,2.706058502,-1.636427283,1.355500937
114,1476644554,92.65251923,15.04081631,18.86076546,-2.87907505,9.483267784,-0.187135264,1.836840272,-1.67236197,1.129801869
115,1476661221,92.65254974,15.04249096,18.85149384,-2.875574589,9.449876785,-0.193907484,1.332859397,-1.586610794,0.970490813
116,1476677888,92.65792847,15.04285526,18.83894348,-2.873806715,9.432758331,-0.188072413,1.647754788,-1.524423242,1.060788512
117,1476694555,92.66029358,15.04825592,18.82883644,-2.832432508,9.435829163,-0.144405022,1.453072548,-1.444409013,0.767535806
118,1476711222,92.66758728,15.05725098,18.82665443,-2.869109869,9.463784218,-0.081305429,1.689003944,-1.182205439,0.552414715
119,1476727889,92.6716156,15.0667038,18.83080673,-2.863548756,9.502976418,-0.107380964,1.437269449,-0.910448313,0.524701834
120,1476744556,92.67399597,15.07238865,18.83854866,-2.872018099,9.414402962,-0.134213194,1.32210207,-0.773606002,0.756343067
121,1476761223,92.67900085,15.08066368,18.84846687,-2.881253958,9.491112709,-0.16460824,1.40880084,-0.472419798,0.600694597
122,1476777890,92.67199707,15.08491516,18.85175514,-2.85939908,9.419314384,-0.262953311,0.809988856,-0.867668688,0.873982191
123,1476794557,92.6676178,15.09054852,18.84797287,-2.824390888,9.431790352,-0.116081908,1.06349051,-1.204507589,0.819247723
124,1476811224,92.66014099,15.09770489,18.84851837,-2.772271633,9.447079659,-0.173705474,0.865619659,-1.114139676,0.733406901
125,1476827891,92.65642548,15.10282898,18.85771942,-2.806771755,9.415780067,-0.135256082,0.985820115,-0.678742886,0.840903282
126,1476844558,92.65830231,15.09939671,18.87406731,-2.860183954,9.427019119,-0.125016078,1.23952651,-0.299879909,1.346523643
127,1476861225,92.66756439,15.0863924,18.89156532,-2.884832382,9.418460846,-0.141868144,1.654548407,-0.125553444,1.925146461
128,1476877892,92.68464661,15.07072353,18.91213799,-2.874585867,9.505750656,-0.137602657,2.055662394,0.189405903,2.0843997
129,1476894559,92.70317078,15.05561352,18.93746376,-2.854470253,9.515982628,-0.180593997,2.126468897,0.292202473,2.058902502
130,1476911226,92.71924591,15.03626919,18.96767426,-2.826289415,9.416113853,-0.146619707,1.907877207,0.607533216,2.307678461
131,1476927893,92.73548126,15.02099991,19.00290108,-2.824156761,9.42961216,-0.129821405,1.83995223,0.92496419,2.058582067
132,1476944560,92.75897217,15.0033989,19.04253006,-2.818568707,9.524482727,-0.158774436,2.192011833,1.303532839,2.191269159
133,1476961227,92.76002502,14.98838615,19.07153702,-2.804455996,9.443011284,-0.242604569,1.003774524,0.747698784,2.06971097
134,1476977894,92.73830414,14.98635387,19.09425926,-2.834558487,9.654265404,-0.042077146,-0.260743678,0.351175666,1.319194794
135,1476994561,92.74967194,14.96233177,19.14189911,-2.885292292,9.196075439,0.114994302,1.411323667,1.670076013,2.58528161
136,1477011228,92.74876404,14.95532799,19.19735527,-2.92643261,9.70432663,0.048838101,0.553272784,2.175299406,1.556893468
137,1477027895,92.69736481,14.93827629,19.24173927,-2.95958972,9.493910789,-0.118333191,-2.245497227,1.442929745,2.209914684
138,1477044562,92.64315796,14.91682911,19.26543617,-2.967696667,9.443722725,-0.344175249,-2.068974733,0.213699549,2.55103755
139,1477061229,92.5692749,14.90031242,19.22021103,-2.973466396,9.552911758,-0.621495426,-2.281227589,-3.439049721,2.441659212
140,1477077896,92.49317169,14.89091873,19.13877106,-2.574425697,9.250846863,-0.548926473,-1.854097366,-5.653447628,2.122742653
141,1477094563,92.50567627,14.9047451,19.08387947,-2.629513025,9.297674179,-0.112217635,3.067249298,-4.287137508,0.66349715
142,1477111230,92.54202271,14.91466236,19.05397797,-2.75168252,9.632159233,0.122282304,4.132609844,-2.862405062,0.836869419
143,1477127897,92.53240204,14.93118095,19.05267715,-2.784221649,9.605890274,-9.83E-04,0.997870803,-1.359349251,0.376199335
144,1477144564,92.51805115,14.95465279,19.05382729,-2.860848665,9.608905792,-0.212424189,0.659283757,-1.090550423,-0.04769085
145,1477161231,92.51168823,14.98235321,19.04468918,-2.88288331,9.641680717,-0.250989616,1.254778862,-1.516675115,-0.274420857
146,1477177898,92.50285339,15.00882816,19.03233528,-2.88434124,9.44171524,-0.214959756,1.159602046,-1.69738543,-0.182957888
147,1477194565,92.51044464,15.03028011,19.02473068,-2.929558992,9.399514198,-0.10178221,2.102956057,-1.501435518,0.121583477
148,1477211232,92.51957703,15.0453825,19.02523232,-2.920306206,9.385425568,-0.117603242,2.113470316,-1.143972158,0.504800737
149,1477227899,92.53565979,15.05730724,19.02804756,-2.888506174,9.378369331,-0.134433448,2.555302382,-1.178049803,0.711853862
150,1477244566,92.56867981,15.07056141,19.02781487,-2.879526854,9.508132935,-0.115223058,3.543247938,-1.046016216,0.639139295
151,1477261233,92.59199524,15.08276749,19.0291214,-2.874354839,9.466880798,-0.124420613,3.008070707,-1.174297333,0.718820393
152,1477277900,92.61547089,15.09777832,19.02828598,-2.889320135,9.455218315,-0.061615214,3.00283289,-1.085543036,0.556563973
153,1477294567,92.63196564,15.11165905,19.03287888,-2.901395798,9.505997658,-0.084985957,2.544365644,-0.876063228,0.626281798
154,1477311234,92.63640594,15.12548637,19.03732872,-2.919682503,9.405362129,-0.082901455,1.842091203,-0.896931171,0.641239583
155,1477327901,92.64759064,15.13885117,19.04641724,-2.885211945,9.461504936,-0.052341592,2.213609934,-0.730192542,0.675041914
156,1477344568,92.6559906,15.15113544,19.05996323,-2.900404215,9.470791817,-0.115042634,1.993878245,-0.476076096,0.737306356
157,1477361235,92.65908813,15.16353607,19.0704937,-2.874911308,9.401322365,-0.171463549,1.738692403,-0.66251725,0.750516057
158,1477377902,92.6672287,15.17311192,19.07352257,-2.883540154,9.418209076,-0.177390873,2.08330512,-0.78560555,0.934536994
159,1477394569,92.67398834,15.18061829,19.07197189,-2.871956348,9.467435837,-0.155333579,2.10221982,-1.123757124,1.085703015
160,1477411236,92.68583679,15.18659782,19.07935143,-2.883934498,9.39040184,-0.087516561,2.319012165,-0.762445152,1.167644501
161,1477427903,92.69006348,15.19047737,19.0923481,-2.8644104,9.473086357,-0.116520301,1.827491879,-0.585743248,1.296092272
162,1477444570,92.68431091,15.19241905,19.10586548,-2.874368191,9.457888603,-0.172139406,1.172600389,-0.329590559,1.407110214
163,1477461237,92.68479156,15.19045162,19.1215477,-2.875128508,9.392036438,-0.214676693,1.575257897,-0.397413075,1.653850555
164,1477477904,92.69577789,15.18771458,19.13126755,-2.871995449,9.429405212,-0.196545914,2.206406116,-0.3813411,1.707765222
165,1477494571,92.70294189,15.18178749,19.13997841,-2.877643347,9.394586563,-0.22606504,2.024344683,-0.529683471,1.914261341
166,1477511238,92.70939636,15.1708765,19.14591217,-2.913571358,9.365214348,-0.185574099,2.066893816,-0.815751791,2.235796928
167,1477527905,92.72021484,15.15883827,19.15342903,-2.891134977,9.483838081,-0.111783333,2.341237545,-0.832194984,2.315765619
168,1477544572,92.72194672,15.14573956,19.15888786,-2.902575493,9.510924339,-0.129749641,1.82518661,-0.896963298,2.391483545
169,1477561239,92.719841,15.13597107,19.16780281,-2.880359888,9.48554039,-0.159309104,1.576948404,-0.802503526,2.194393873
170,1477577906,92.71953583,15.12778664,19.1711998,-2.880941868,9.428391457,-0.211437821,1.677606344,-0.747756362,2.105517626
171,1477594573,92.716362,15.1233778,19.17585754,-2.911716461,9.361214638,-0.232142583,1.553621411,-0.924887478,1.893898964
172,1477611240,92.71875,15.11817455,19.17603493,-2.90471983,9.391067505,-0.225434944,1.942134261,-1.118353009,1.962995768
173,1477627907,92.72723389,15.11226368,19.17861176,-2.904477835,9.427444458,-0.164036274,2.318333387,-1.136339426,2.015271187
174,1477644574,92.74485016,15.1085968,19.18558311,-2.887582064,9.486413002,-0.114004992,2.804244757,-0.88680768,1.878844857
175,1477661241,92.75019836,15.10406876,19.19229126,-2.887592316,9.489338875,-0.181325331,2.044072628,-0.75643903,1.932708502
176,1477677908,92.75737762,15.10458088,19.19321442,-2.904758692,9.472483635,-0.14218691,2.196263552,-0.903302372,1.643771887
177,1477694575,92.75567627,15.10298252,19.19252586,-2.867653131,9.484677315,-0.222297713,1.733019471,-1.125851035,1.789597869
178,1477711242,92.75398254,15.10345745,19.19604111,-2.883224487,9.40018177,-0.164370492,1.706766248,-1.018431306,1.665811419
179,1477727909,92.75593567,15.10307121,19.20245171,-2.913129568,9.393198967,-0.12770772,1.887451053,-0.843035638,1.718484163
180,1477744576,92.77519989,15.09958649,19.21973419,-2.984395742,9.419665337,-0.039829265,2.751783371,-0.161116675,1.880183101
181,1477761243,92.78256989,15.09998417,19.24010277,-2.932924986,9.542456627,-0.080145858,1.980194569,0.093114972,1.649047971
182,1477777910,92.77629852,15.10640812,19.25452805,-2.922625303,9.491396904,-0.163935691,1.197906137,-0.01135283,1.300228715
183,1477794577,92.76174927,15.11667061,19.26613998,-2.933492184,9.424559593,-0.322628796,0.791573286,-0.3366597,1.094584346
184,1477811244,92.75200653,15.12187004,19.27262306,-2.933566093,9.368659973,-0.336484075,1.212934136,-0.82197547,1.431500077
185,1477827911,92.75453186,15.12186337,19.27636528,-2.892205954,9.319226265,-0.25610882,2.010391712,-1.044492245,1.765765071
186,1477844578,92.77668762,15.12472343,19.28684998,-2.856775522,9.416409492,-0.223775417,3.029585838,-0.470114708,1.573119402
187,1477861245,92.80865479,15.11838627,19.30671883,-2.867966413,9.471845627,-0.154647455,3.47168684,0.114014946,2.103955507
188,1477877912,92.86431122,15.11551094,19.34523773,-2.81830883,9.483790398,-0.132093146,4.59689045,1.225452542,1.844882727
189,1477894579,92.85177612,15.13826561,19.34914589,-2.832745075,9.938120842,-0.323995322,1.052745938,-0.847684383,0.410571605
190,1477911246,92.83293915,15.14278221,19.35488892,-2.839078665,9.043340683,-0.20918107,0.681464195,-0.815027952,1.500891209
191,1477927913,92.84109497,15.15022755,19.36388779,-2.87577796,9.382294655,-0.005059035,2.260500193,-0.667319655,1.325726151
192,1477944580,92.87857819,15.13835812,19.38586426,-2.936094999,9.293828011,0.101869047,3.788964272,0.30316475,2.444860458
193,1477961247,92.9168396,15.12274265,19.411726,-2.881157637,9.201794624,-0.127264902,3.804498196,0.508783579,2.669650316
194,1477977914,92.94871521,15.11056423,19.43471909,-2.947933197,9.304401398,-0.23968789,3.437710762,0.469096541,2.47335434
195,1477994581,92.86256409,15.10709286,19.40623856,-2.946779966,9.619931221,-0.659992099,-2.852454185,-2.474090576,2.111946106
196,1478011248,92.78215027,15.09407234,19.35555458,-2.986032963,9.11126709,-0.409880817,-2.11190176,-3.986649036,2.762125015
197,1478027915,92.75766754,15.08811665,19.29466057,-2.942746162,9.421890259,-0.364926875,1.436040282,-4.7580266,2.385682583
198,1478044582,92.73139191,15.08382797,19.22259521,-2.804417372,9.587368011,-0.435440004,1.421466589,-5.123686314,2.308831215
199,1478061249,92.70540619,15.07849979,19.15736198,-2.782895565,9.592508316,-0.232936844,1.385378242,-4.953656673,2.358635426
200,1478077916,92.69814301,15.083498,19.10595512,-2.787270069,9.598958969,0.01295795,2.244197369,-3.991207361,1.689144611
201,1478094583,92.69523621,15.09316826,19.07942963,-2.815152645,9.646855354,0.012044839,2.138135672,-2.580626965,1.338647842
202,1478111250,92.68508911,15.10223293,19.07418823,-2.887448549,9.558511734,-0.057164881,1.440214992,-1.54888308,1.325418711
203,1478127917,92.67101288,15.10828972,19.0765419,-2.981316805,9.414217949,-0.133216739,1.089999676,-1.071718574,1.487227082
204,1478144584,92.65901184,15.10958576,19.07297897,-3.016809225,9.448781967,-0.182871103,1.274116755,-1.259370089,1.792773724
205,1478161251,92.64782715,15.10688114,19.06629944,-3.004164219,9.4861269,-0.181012288,1.384443283,-1.460557818,2.052307367
206,1478177918,92.6423111,15.1057272,19.05223656,-2.929214239,9.490434647,-0.184055105,1.759362102,-1.590580583,1.975814939
207,1478194585,92.64659882,15.10972214,19.04463768,-2.878710032,9.413315773,-0.173136622,2.335570574,-1.540968657,1.670011759
208,1478211252,92.63955688,15.11217785,19.03904915,-2.89870286,9.374223709,-0.161037654,1.609694242,-1.354905486,1.758081436
209,1478227919,92.62181091,15.11107445,19.03842545,-2.90604353,9.327988625,-0.180873767,0.987100661,-1.403710365,1.979605675
210,1478244586,92.60696411,15.10420513,19.02968597,-2.867453098,9.41135788,-0.220078364,1.21921587,-1.595754623,2.341308355
211,1478261253,92.59860992,15.0959549,19.01594734,-2.820779085,9.481027603,-0.234345794,1.65226233,-1.751825333,2.434794188
212,1478277920,92.58610535,15.08582497,18.99665451,-2.845205307,9.420012474,-0.232032895,1.480401158,-2.038393259,2.560552835
213,1478294587,92.57991791,15.07677746,18.97657394,-2.809481621,9.408049583,-0.184175149,1.921465039,-2.269433022,2.507854939
214,1478311254,92.56904602,15.0683403,18.96073723,-2.791501284,9.47412014,-0.148407519,1.594134569,-2.096226692,2.463416815
215,1478327921,92.54701996,15.06281948,18.95296669,-2.806680679,9.518120766,-0.114897862,0.829403222,-1.734395981,2.270924568
216,1478344588,92.51895142,15.05761814,18.94828415,-2.828502893,9.46869278,-0.093935236,0.389325827,-1.429463983,2.237038851
217,1478361255,92.49433899,15.04875755,18.94287682,-2.879428864,9.395277977,-0.150962502,0.574544072,-1.318458557,2.452787638
218,1478377922,92.47187042,15.03709507,18.93567848,-2.902900934,9.352695465,-0.106680125,0.734124064,-1.417054772,2.630437374
219,1478394589,92.4315567,15.02022457,18.93190193,-2.940788507,9.39840126,-0.131720781,-0.352808535,-1.328460336,2.944166899
220,1478411256,92.37715149,14.99288845,18.92454529,-2.938867569,9.27833271,-0.149551123,-1.170238137,-1.390494466,3.583063602
221,1478427923,92.33470917,14.96180248,18.9228096,-2.856420994,9.375757217,-0.045466635,-0.520706236,-1.134438038,3.805016994
222,1478444590,92.28902435,14.91639042,18.92590714,-2.831139803,9.355706215,-0.008384869,-0.801940084,-0.752699733,4.653238773
223,1478461257,92.2203598,14.85691166,18.91516685,-2.729449749,9.196494102,-0.173827693,-1.979708195,-1.449179411,5.529608727
224,1478477924,92.11502075,14.81316948,18.89012337,-2.530998945,9.633382797,-0.113528855,-3.972049952,-2.296684742,4.614397526
225,1478494591,92.04550934,14.70772266,18.87696648,-2.543186665,8.931228638,0.052648794,-2.033450365,-1.362525582,8.27064991
226,1478511258,92.03931427,14.61256313,18.87010193,-2.86926198,9.642896652,0.192016423,1.692487478,-1.091991305,7.638682365
227,1478527925,91.9684906,14.49748993,18.83586693,-2.791915655,9.956635475,-0.01386869,-1.739493608,-2.712712288,8.89334774
228,1478544592,91.86303711,14.34042454,18.75040436,-2.837092638,9.51540947,-0.229355812,-3.072494984,-5.533569336,11.50270844
229,1478561259,91.69766998,14.19341373,18.58860588,-2.400227308,9.266129494,-0.537594616,-5.571963787,-9.969565392,11.02810669
230,1478577926,91.56776428,14.07833672,18.44993591,-2.255327225,9.028678894,-0.091081649,-3.871496439,-8.523866653,9.034039497
231,1478594593,91.57192993,13.92340088,18.34051704,-2.599271774,9.183314323,0.216279864,3.752326727,-6.870245457,11.35722733
232,1478611260,91.54532623,13.74714375,18.24667168,-2.630215406,9.364357948,0.276026756,1.662828684,-5.875268459,12.61062431
233,1478627927,91.46840668,13.5401907,18.14888573,-2.558554649,9.364418983,0.34871015,-1.314195037,-6.035222054,14.45277309
234,1478644594,91.35603333,13.30794621,18.01783943,-2.431828499,9.095231056,0.109807551,-3.04044199,-7.717453957,16.00312614
235,1478661261,91.26739502,13.05625343,17.90976715,-2.336401939,9.13257885,0.301193595,-1.93500948,-6.471549034,17.12764168
236,1478677928,91.16828918,12.77327156,17.79586411,-2.410878658,9.496809006,0.319006443,-2.590222597,-6.408133984,18.99071884
237,1478694595,91.00875854,12.46596241,17.67765427,-2.327411652,9.398152351,0.375706673,-6.165301323,-6.73994875,20.44036484
238,1478711262,90.87100983,12.13341045,17.55274963,-2.262221098,9.213345528,0.585559785,-4.823348522,-7.038428783,21.93917847
239,1478727929,90.77410889,11.78980732,17.43179131,-2.129283905,9.304636955,0.419292957,-2.449443102,-6.790829659,22.58398819
240,1478744596,90.6962738,11.4204874,17.29176521,-2.042788744,9.256129265,0.304382324,-1.135893822,-7.768496037,24.12311935
241,1478761263,90.63088226,11.02613258,17.12544632,-2.022960186,9.263711929,0.269388974,-0.155411839,-9.173500061,25.62672234
242,1478777930,90.55529785,10.61968613,16.9308548,-1.818092227,9.475101471,0.326572895,-0.55532974,-10.61447716,26.34979057
243,1478794597,90.47080994,10.19784737,16.71489906,-1.723445415,9.608801842,0.387144893,-0.910611093,-11.99351597,27.25787544
244,1478811264,90.40576935,9.769710541,16.46600533,-1.564437747,9.634067535,0.377612531,0.528590322,-14.00839043,27.61946869
245,1478827931,90.34583282,9.338643074,16.18608284,-1.42058599,9.703454971,0.286978364,1.042453527,-15.8366642,27.77227974
246,1478844598,90.27050781,8.89136982,15.86532402,-1.445002794,9.516137123,0.184222922,0.362011343,-18.10193062,28.71572685
247,1478861265,90.18500519,8.436048508,15.50333214,-1.431742191,9.402146339,0.160442412,-0.018678145,-20.58533096,29.16392708
248,1478877932,90.08463287,7.955741882,15.08374596,-1.314447045,9.133887291,0.063967645,-0.610104144,-23.87749672,30.62303734
249,1478894599,89.99664307,7.455262661,14.61506176,-1.263076067,8.994495392,0.11154639,0.323272616,-26.87742805,31.78144073
250,1478911266,89.90534973,6.95894289,14.09106159,-1.009840131,9.370492935,0.194337994,0.303531736,-30.20803833,31.47204971
251,1478927933,89.83234406,6.465949535,13.52961636,-0.820730925,9.614123344,0.292230725,1.404392719,-32.49560928,31.19970322
252,1478944600,89.7689743,5.9766078,12.91808033,-0.727575064,9.746271133,0.107090332,2.054116249,-35.66910553,30.90097427
253,1478961267,89.70853424,5.464026451,12.26036835,-0.700347662,9.47163868,-0.079453021,2.328638792,-39.85615921,32.2048111
254,1478977934,89.6394577,4.916984558,11.52735329,-0.63594377,9.037307739,-0.24956134,1.847028971,-44.44541931,34.17282867
255,1478994601,89.60860443,4.317656517,10.72467518,-0.494370967,8.378733635,-0.156469733,4.020427227,-48.7076416,37.21796036
256,1479011268,89.7049942,3.678265572,9.882683754,-0.293400884,8.187730789,-0.009512646,11.28626537,-51.10327148,39.60876465
257,1479027935,89.97130585,3.009253502,9.005149841,0.130916327,8.700376511,-0.007834516,21.02435303,-53.16010284,41.50969696
258,1479044602,90.41382599,2.295819759,8.086277962,0.496867388,8.920448303,-0.272254378,31.07210159,-55.42105865,44.46376801
259,1479061269,90.98090363,1.523466349,7.096604824,0.589768231,8.809814453,-0.634939492,37.95698166,-59.27849579,48.47613144
260,1479077936,91.53810883,0.70459038,6.038445473,0.740698636,9.161971092,-0.759491444,36.59191895,-62.88944626,51.87656021
261,1479094603,91.85484314,-0.18851997,4.955666542,0.88045156,9.271226883,-0.760993004,21.19604874,-63.86983109,56.79304123
262,1479111270,92.0212326,-1.154168963,3.880270958,0.908861756,8.652151108,-0.592757404,11.10027409,-63.05402756,61.34015274
263,1479127937,92.40623474,-2.121900082,2.83834815,1.378309727,8.563321114,-0.460740954,23.1661644,-60.74335861,61.63986969
264,1479144604,93.24060059,-3.025374174,1.859618902,1.92715466,9.41437149,-0.701708853,49.26261902,-56.47719574,58.18070602
265,1479161271,94.27539825,-3.901096821,0.914870024,2.159687042,11.06746674,-1.027675629,60.4823761,-53.58189011,57.21724319
266,1479177938,95.05318451,-4.825642586,0.027835416,1.940951943,11.400527,-1.343933344,44.41685867,-48.96065903,60.61555862
267,1479194605,95.42430115,-5.758586407,-0.755948663,1.769403577,10.67902565,-1.605710506,19.70413208,-42.1114502,60.98094177
268,1479211272,95.60939026,-6.717291832,-1.432299852,1.582829356,9.443771362,-2.06339407,8.435157776,-35.22493362,62.06326675
269,1479227939,95.75039673,-7.706125259,-2.018915653,1.305149198,9.420514107,-1.680682182,5.727188587,-29.48242569,63.39917755
270,1479244606,95.74042511,-8.597658157,-2.48788166,1.452782393,9.754384995,-1.790915489,-2.940255404,-22.96880722,56.91222382
271,1479261273,95.68169403,-9.391547203,-2.855403423,1.387182117,9.746983528,-1.885322094,-5.36357832,-17.54204369,50.46343613
272,1479277940,95.6977005,-10.16144371,-3.161472559,0.939057171,9.424904823,-1.774243355,-0.591319442,-14.0378027,48.66631317
273,1479294607,95.87276459,-10.93167305,-3.465745926,0.668008864,9.098041534,-1.824275255,8.689304352,-13.80340672,48.72117615
274,1479311274,96.16504669,-11.70783234,-3.774065495,0.734811842,9.301438332,-1.804012656,15.39142704,-13.75481796,49.18718719
275,1479327941,96.43273926,-12.47953033,-4.090606213,0.793822765,9.592308044,-1.58484745,13.531744,-13.9712038,49.07600784
276,1479344608,96.62508392,-13.22759151,-4.422082901,0.907709122,9.022049904,-1.545699239,8.538524628,-14.7458744,47.86014175
277,1479361275,96.75429535,-13.88476086,-4.740889549,1.056577921,8.579543114,-1.442453623,4.669843674,-14.45440674,42.43194199
278,1479377942,96.88095856,-14.52037239,-5.040924549,1.217381477,8.612895012,-1.296873093,4.5623312,-13.37399769,41.07983017
279,1479394609,97.10295105,-15.2329731,-5.388105869,1.859713793,9.013072014,-1.440787435,9.336382866,-15.34580803,46.0637207
280,1479411276,97.49367523,-16.02368927,-5.772566319,2.429429054,9.452589035,-1.149532318,18.57783127,-16.57164764,51.07292938
281,1479427943,97.9076767,-16.93899918,-6.239593506,2.65595293,9.717510223,-0.658924162,18.23876762,-19.83476448,59.22156525
282,1479444610,98.26006317,-17.93595314,-6.808176041,2.804417133,9.579791069,-0.571441531,12.2878828,-24.38401604,65.00531006
283,1479461277,98.39392853,-19.02019119,-7.488121033,3.071908474,9.406346321,-0.799688935,-3.505638361,-29.44524956,71.18313599
284,1479477944,98.31906128,-20.18932343,-8.229302406,2.92490387,9.094758034,-0.30295065,-18.00400162,-31.84461021,76.70343018
285,1479494611,98.10762024,-21.4705658,-9.054163933,3.13737154,8.157525063,0.307600647,-28.84420013,-35.40697479,83.91441345
286,1479511278,97.98516846,-22.86667061,-9.930075645,3.593565941,7.236040592,0.981574416,-25.69238853,-37.09583282,90.97047424
287,1479527945,98.40193176,-24.36746788,-10.85055637,3.930450678,6.028900623,0.592422366,4.423445225,-37.91761017,97.5329895
288,1479544612,99.78752136,-25.96998405,-11.99745083,4.867184639,5.51031208,0.482783705,55.44600296,-46.99674225,105.936554
289,1479561279,101.5012741,-27.64448929,-13.34240532,5.353695393,6.075405598,-0.098486923,68.03984833,-52.96364975,113.121994
290,1479577946,102.8286133,-29.39602852,-14.7833128,6.041913986,6.891178608,0.299644619,39.99155807,-52.88717651,119.7446671
291,1479594613,103.4852524,-31.26819992,-16.29294777,7.009726048,6.556825161,0.366217196,-4.665232182,-51.38732529,128.1118011
292,1479611280,103.867897,-33.28478241,-17.89909554,8.033987999,5.991172791,0.19881852,-26.78570175,-51.45104218,137.6695404
293,1479627947,104.5270462,-35.43884277,-19.56619644,8.949785233,5.844483852,0.706035435,-15.16744804,-49.30880356,146.2655182
294,1479644614,105.5856094,-37.68401337,-21.23158836,9.111182213,5.896089554,1.570356369,5.764240265,-43.55678558,151.5187836
295,1479661281,106.7766418,-39.97608185,-22.74506378,8.910467148,5.654332638,1.90686214,16.35113907,-30.76559639,152.2637177
296,1479677948,107.8853149,-42.24438858,-23.99121857,8.857833862,5.499253273,1.631385207,19.25017548,-14.50245571,147.0872803
297,1479694615,108.8858414,-44.4767189,-24.93860817,9.043198586,6.004967213,1.160411,22.94778442,1.646770835,140.4539795
298,1479711282,109.9304276,-46.77815628,-25.63883209,9.155076027,6.37543726,1.084967256,34.62796402,16.68657303,140.2792053
299,1479727949,111.1411896,-49.07017136,-26.17159271,8.497550011,7.01039505,1.537832856,50.94151688,26.58451271,136.563385
300,1479744616,112.1547012,-51.30244827,-26.43548012,8.026849747,7.279091835,1.183440089,50.72559357,38.27478409,128.5410614
301,1479761283,112.9373322,-53.41782379,-26.42151642,8.13445282,8.071393967,0.052205589,49.74478531,47.32539368,117.4141235
302,1479777950,113.4116058,-55.45607376,-26.23248672,7.731416225,8.685320854,-0.497045249,39.82793808,52.31305695,110.3303452
303,1479794617,113.5305557,-57.39390945,-25.91715813,7.185194016,9.179986,-0.547474742,25.06195831,53.98524857,103.1195984
304,1479811284,113.1060333,-59.19335175,-25.35554314,6.590304852,9.12468338,-0.775114834,5.368634701,57.05216599,92.94142914
305,1479827951,112.4029388,-60.79192352,-24.59989929,6.321815491,8.432537079,-1.231588364,-0.751534104,56.04988861,80.66127777
306,1479844618,111.3287582,-62.21138382,-23.5454731,6.40782547,8.26502037,-1.713693261,-6.689235687,57.78410339,68.93959808
307,1479861285,110.0884476,-63.4442215,-22.36650276,6.559415817,8.049162865,-2.111242056,-9.352750778,54.45216751,59.06955338
308,1479877952,108.3926697,-64.51158142,-20.83001709,7.481823921,8.100698471,-1.64493525,-16.80080223,57.41032791,48.58505249
309,1479894619,107.9268494,-65.41388702,-19.74208069,5.120842457,4.052955151,-5.454673767,33.26155853,41.27793503,44.43059158
310,1479911286,111.2712021,-64.96263123,-21.99088669,10.80210304,16.24337196,-16.81752205,80.17444611,-64.10777283,-4.854370117
311,1479927953,112.2735596,-64.13213348,-23.88339806,8.894119263,8.087756157,-9.500376701,-40.58099747,-65.05669403,-26.21824265
312,1479944620,112.7036209,-63.57248688,-25.51762199,7.979273319,5.407673836,-2.088688612,-60.49910355,-53.81913757,-12.46561718
313,1479961287,113.5938644,-62.88077164,-27.13103485,8.168272018,3.492551088,2.355317831,-31.28911781,-57.44535446,-18.96026611
314,1479977954,116.1692276,-62.04217529,-29.08782578,10.46572304,2.318637371,-0.652436435,52.20528412,-71.52744293,-20.76280785
315,1479994621,118.976799,-61.12093353,-31.17546654,10.91335392,4.297737122,-5.106771946,60.10903931,-79.55268097,-19.44284439
316,1480011288,120.6296082,-60.51690292,-32.93226242,10.52169037,4.351200104,-4.308496475,8.933564186,-63.65892792,-3.988839149
317,1480027955,121.3522339,-60.14576721,-34.42334747,10.06599903,3.636713743,-2.17532444,-32.60155869,-50.43880463,5.584407806
318,1480044622,121.8324356,-59.86843109,-35.81059265,9.651660919,2.289744854,-1.501787782,-41.49027252,-45.18966675,9.440047264
319,1480061289,122.3478165,-59.66297531,-37.10599518,9.506925583,3.415785551,-2.016385555,-34.43881989,-40.76649857,12.08297062
320,1480077956,122.5807343,-59.56772614,-38.17777252,9.292970657,4.438848972,-2.101686716,-39.70279694,-31.5909462,14.32286549
321,1480094623,122.5003357,-59.521698,-38.93172836,9.0989151,5.685093403,-2.675672531,-42.01861572,-21.91146469,11.67159271
322,1480111290,122.4013901,-59.54984665,-39.51543045,8.683533669,5.552968025,-2.374582052,-34.31871414,-15.17510128,12.63636303
323,1480127957,122.1918411,-59.54685211,-39.83177567,8.794185638,5.580245495,-2.149853468,-27.12459946,-9.327322006,6.695128441
324,1480144624,121.9043198,-59.53070068,-39.92139816,9.18791008,5.138888836,-1.980131984,-20.06604576,-3.931125164,2.355897665
325,1480161291,121.6292267,-59.48895264,-39.89916229,9.204141617,4.997528553,-2.326343298,-13.52617073,-1.862012267,-0.74902451
326,1480177958,121.4348755,-59.41591263,-39.9067688,8.836651802,5.206047058,-2.614532948,-10.2225008,-3.609708548,-1.871373653
327,1480194625,121.2213821,-59.3818512,-39.84525299,8.900286674,5.262201309,-2.595217943,-7.800228119,-0.570772767,-0.967782557
328,1480211292,121.0149994,-59.32695389,-39.76281357,9.020918846,5.296427727,-2.622121572,-6.298099518,-0.647425115,-2.352360249
329,1480227959,120.959404,-59.23106003,-39.67490768,9.151202202,4.409543991,-2.807042122,3.029002905,-1.749437213,-4.538250446
330,1480244626,120.9896469,-59.13866043,-39.64196396,9.262282372,4.057643414,-2.879343748,5.331873417,-3.06737113,-3.503299236
331,1480261293,121.0259705,-59.03385925,-39.70284653,9.308711052,3.609030724,-2.967576742,0.859703124,-5.92076683,-2.675842285
332,1480277960,121.0461578,-58.93914413,-39.81017303,9.484527588,3.930726528,-3.432479858,-2.507631302,-6.83159399,-1.445933342
333,1480294627,120.9373245,-58.88349915,-39.82839966,9.608076096,4.200856209,-3.358907938,-5.683797359,-3.243330002,-0.891315579
334,1480311294,120.7278595,-58.85260391,-39.75407028,9.588370323,4.325071335,-2.890964508,-6.982208729,0.008093615,-1.116528153
335,1480327961,120.5373764,-58.81949997,-39.73459625,9.292528152,4.304978848,-2.323101997,-8.669189453,-1.506058931,-0.381827772
336,1480344628,120.3177185,-58.77468109,-39.74373245,9.031897545,4.761469364,-2.156290054,-11.88762379,-2.625706911,-0.557620883
337,1480361295,120.0877762,-58.71739578,-39.72432327,8.683919907,4.872809887,-2.650121927,-11.03557587,-2.230117798,-1.65971005
338,1480377962,119.9270477,-58.65323257,-39.67347717,8.748156548,4.633668423,-3.254002333,-5.278040886,-1.566261411,-2.508539677
339,1480394629,119.7022476,-58.55955505,-39.49560165,9.125972748,4.711597919,-3.221815586,-2.631378651,1.033677459,-6.028237343
340,1480411296,119.3934402,-58.4382515,-39.18685913,9.390472412,5.063208103,-2.652449369,-0.997928739,3.856197596,-9.498683929
341,1480427963,119.0534058,-58.28279877,-38.7690506,9.335417747,5.237141609,-2.587280989,2.674607754,5.952343941,-12.95614719
342,1480444630,118.7024994,-58.10389328,-38.26375198,9.219311714,5.045015812,-2.615551949,6.443841934,7.844371796,-15.50686073
343,1480461297,118.317894,-57.91638565,-37.66652298,9.119238853,5.054506302,-2.661311865,9.048662186,10.3539896,-17.33855247
344,1480477964,117.9081879,-57.75517273,-37.01986313,9.187252045,4.831389427,-2.619721413,9.991161346,12.71360397,-16.65455246
345,1480494631,117.5566711,-57.61627197,-36.39864731,9.45915699,4.874887943,-3.003579617,12.13443565,12.81898689,-15.0463438
346,1480511298,117.3048553,-57.49399948,-35.87438583,9.51488018,4.833827019,-2.865010262,13.1506567,10.67475128,-12.69239998
347,1480527965,117.0850677,-57.35643387,-35.39492416,9.991854668,5.405735493,-3.018919945,12.7636528,9.093001366,-12.84102154
348,1480544632,116.8807144,-57.25855637,-34.95370865,9.861413956,4.75303936,-2.496129274,11.71907139,9.175944328,-10.15033722
349,1480561299,116.646904,-57.18422699,-34.52479935,9.771914482,4.552838326,-2.587679625,9.307074547,9.533374786,-8.704336166
350,1480577966,116.304924,-57.15959167,-34.06004333,9.868965149,4.869828224,-3.092484474,4.608765602,11.97810841,-6.535002232
351,1480594633,115.8121567,-57.19910049,-33.50514221,9.638803482,5.061214924,-2.81994009,0.095381789,16.36937714,-4.291176319
352,1480611300,115.2243118,-57.24503326,-32.85928345,9.46496582,5.044135094,-2.54677701,-1.013105392,19.24430656,-5.056613445
353,1480627967,114.5998688,-57.2648201,-32.13510513,9.339180946,5.07988739,-2.396600246,0.749563456,20.94719887,-7.338179588
354,1480644634,113.9247284,-57.29285812,-31.2909317,9.273525238,5.059566021,-2.381812572,3.771466494,24.78700829,-8.240387917
355,1480661301,113.0724182,-57.358284,-30.28165054,8.958335876,4.71048069,-2.367623568,1.498079181,30.6869278,-7.966301441
356,1480677968,111.9804001,-57.4986763,-29.08646965,8.880483627,4.578243732,-2.795271158,-3.434649229,38.03496933,-5.551754475
357,1480694635,110.6816177,-57.71579742,-27.6973114,8.64350605,4.323690891,-2.69264245,-5.905673027,45.49523163,-2.666525841
358,1480711302,109.2925415,-58.00206375,-26.15794754,8.40185833,4.09411478,-2.290154934,-3.514959574,51.22860336,0.769041181
359,1480727969,107.8468094,-58.34587479,-24.45152855,8.499733925,5.09510088,-2.026595354,1.858670831,56.94334412,3.765365839
360,1480744636,106.2798233,-58.73095322,-22.56630325,8.286505699,5.217360973,-1.938436985,4.06456089,62.42050552,6.17173481
361,1480761303,104.5833817,-59.12526703,-20.47582054,8.042783737,5.359230042,-1.585384607,7.235464573,67.91010284,6.998530388
362,1480777970,102.8133469,-59.57397461,-18.17084122,8.107161522,5.312054157,-1.642394066,14.35310268,74.09644318,10.89471531
363,1480794637,100.8900528,-60.04113388,-15.57476807,8.061655045,5.801658154,-1.337379336,20.80118179,81.65332031,12.79162884
364,1480811304,98.72138977,-60.52427292,-12.72685528,8.093565941,6.206053734,-1.343907952,19.83423233,87.64563751,15.61329174
365,1480827971,96.27600861,-60.98983383,-9.606739044,7.869016647,5.891534328,-1.841738462,18.15927505,93.56757355,17.27177811
366,1480844638,93.40755463,-61.44318008,-6.127217293,7.759516239,5.777320385,-1.328554034,12.37758064,101.7326736,20.1584034
367,1480861305,90.35581207,-61.92345047,-2.408969402,7.852888584,5.369997978,-0.493497282,14.77703571,106.0026169,26.89159775
368,1480877972,87.1802063,-62.45828247,1.45922482,8.142215729,5.264286041,-0.082922995,16.21310616,106.8588943,35.99647903
369,1480894639,84.0938797,-63.16173935,5.281286716,7.662908554,4.202264309,0.18826887,20.24643707,100.5789032,51.65329361
370,1480911306,81.42858124,-64.13677979,8.796062469,7.600961208,3.325026035,0.239672154,30.47911453,84.80455017,71.43035126
371,1480927973,79.43605042,-65.36487579,11.92374325,7.894803524,2.801267385,-0.196086809,51.58896637,66.02030182,87.55153656
372,1480944640,77.71852112,-66.82529449,15.29366493,9.609528542,2.831508875,0.029322706,83.19402313,62.31564713,103.6739731
373,1480961307,76.36540222,-68.33973694,18.82854652,10.01645279,2.763570547,-1.103475213,116.2585907,57.83274841,108.2127762
374,1480977974,76.77313995,-70.03510284,21.41796494,10.58899689,1.916385651,-1.891523957,171.041626,29.50513649,113.2766571
375,1480994641,78.03810883,-71.42357635,23.31371689,10.67381287,4.753101349,-1.598948002,184.595993,17.96901131,90.96258545
376,1481011308,80.1949234,-72.68553162,24.02598953,10.21407604,6.30062294,-0.983225346,171.362915,-1.813779116,78.33557129
377,1481027975,83.22216034,-73.78411865,23.31724739,9.743451118,6.705049038,-0.160737321,142.1858521,-22.04902649,65.00752258
378,1481044642,87.23667145,-74.7201767,21.04280472,9.562397957,5.726008892,0.333167553,110.7854996,-41.95391846,54.50621796
379,1481061309,92.11138916,-75.38842773,17.49013329,9.555272102,4.619306087,0.975637317,87.79035187,-55.55607605,41.44955826
380,1481077976,97.40526581,-75.75279999,13.14656544,9.573149681,4.128969669,1.759521961,66.50512695,-63.2580986,28.88932419
381,1481094643,102.6439056,-75.81697083,8.403532982,9.414541245,3.789694309,1.92459929,39.74383926,-68.52046204,17.71466637
382,1481111310,107.3365479,-75.58913422,3.816002846,9.159995079,3.462235689,2.017197371,16.15272522,-69.60493469,6.181365967
383,1481127977,111.0039063,-75.10285187,-0.082199804,9.014783859,3.209901094,1.761212826,-4.887049675,-65.92905426,-6.295833111
384,1481144644,113.701149,-74.41805267,-3.198974609,9.179051399,2.956386566,1.088598132,-17.20685959,-61.59848404,-17.45581818
385,1481161311,115.9192963,-73.63486481,-5.778987408,9.310531616,2.479700804,0.563304305,-14.32248783,-58.93527985,-22.91831398
386,1481177978,117.8759003,-72.78858185,-7.908595085,9.285432816,2.574129581,0.299587876,-3.495433092,-56.46683121,-26.73584747
387,1481194645,119.5639648,-71.92250061,-9.636874199,9.190990448,2.702200413,0.358149648,3.928961754,-53.14499283,-28.62534332
388,1481211312,120.8988419,-71.06757355,-10.95015621,9.190642357,2.424115658,0.475786388,6.855393887,-48.0716095,-29.88570404
389,1481227979,121.9192047,-70.25119781,-11.89074516,9.325867653,2.149734974,0.262202203,9.483667374,-42.1491127,-30.23881912
390,1481244646,122.7451401,-69.49478149,-12.57891369,9.664628029,2.052852631,-0.120408595,12.32128239,-36.97567368,-28.94083786
391,1481261313,123.5758514,-68.8392334,-13.24828339,9.356287956,1.491066098,-0.099776193,13.86034298,-34.19499588,-23.33193588
392,1481277980,124.3458939,-68.24778748,-13.91314793,8.803015709,1.222157359,0.363010466,10.64688587,-32.67884064,-19.53836632
393,1481294647,125.0367203,-67.71895599,-14.61179352,8.387400627,1.173167467,0.508944154,4.180229187,-31.76458359,-15.43998814
394,1481311314,125.757431,-67.27626801,-15.41195965,8.161478996,1.196061134,0.557801545,0.499744028,-31.18331528,-9.340620041
395,1481327981,126.7179184,-66.92746735,-16.46246719,7.972005844,1.314395905,0.259844273,1.196668267,-33.01071548,-0.753086746
396,1481344648,127.9634552,-66.68481445,-17.77381897,8.095355034,1.442514896,-0.01630873,4.058171272,-34.35697174,8.817288399
397,1481361315,129.5302887,-66.51052856,-19.35007477,8.339536667,1.823191762,0.037060566,8.872292519,-36.76055908,16.91995239
398,1481377982,131.4461517,-66.35050201,-21.22911453,8.267301559,2.035760641,0.063920736,13.28900528,-41.47130585,23.50890541
399,1481394649,133.5709534,-66.18448639,-23.29485512,8.308912277,2.063941479,-0.014518894,15.71089363,-44.48712921,27.88765907
400,1481411316,135.6600647,-65.96940613,-25.35368156,8.559058189,2.234942436,-0.213876188,14.12905025,-45.73910141,27.50471878
401,1481427983,137.5828857,-65.71317291,-27.27013779,9.218748093,2.289533138,-0.329350829,12.16737938,-44.54682922,25.14242744
402,1481444650,139.4209747,-65.44464111,-29.13449287,10.14011574,2.618318319,-0.006523076,10.16142082,-43.79998016,25.44437981
403,1481461317,141.0419922,-65.2592926,-30.97348022,11.06389046,2.797869205,0.397367328,-1.279038787,-39.12430191,29.72423935
404,1481477984,142.3377686,-65.18104553,-32.69807053,11.56553841,3.125796795,0.315246195,-14.43098259,-31.76929283,32.57622147
405,1481494651,143.34198,-65.23473358,-34.24907684,11.44774246,3.610165119,-0.627431095,-22.43751907,-22.27093124,34.49022293
406,1481511318,144.104187,-65.41775513,-35.56879044,10.50544643,3.840095043,-1.635750294,-24.4115963,-12.02350807,34.59256744
407,1481527985,144.4841309,-65.7171402,-36.47575378,9.397950172,3.374602795,-2.760400295,-24.93003273,0.100632846,30.22054863
408,1481544652,144.5082397,-66.12648773,-36.86611938,8.921971321,2.512141466,-3.433743477,-18.11953354,13.09280014,23.51674652
409,1481561319,144.298233,-66.67434692,-36.6979599,8.566305161,1.881691337,-3.63963604,-1.546699166,27.73329163,17.32407188
410,1481577986,144.1353149,-67.32105255,-36.191082,8.225661278,1.669891357,-4.007660866,20.01383972,37.09646225,14.51986408
411,1481594653,144.2770691,-68.00686646,-35.59776306,7.927992344,1.922217369,-4.327881813,43.20933914,39.98746109,14.56803894
412,1481611320,144.7241821,-68.6891098,-35.10398865,7.502468586,2.599868298,-4.346037388,56.12108994,38.4056282,16.35754776
413,1481627987,145.3823395,-69.34300995,-34.82247925,7.225070477,3.188354254,-4.297930241,56.99977493,34.39642715,19.03209305
414,1481644654,146.1560059,-69.97900391,-34.84540176,7.055876732,3.40819931,-4.127614021,46.85557938,30.09157944,23.41845322
415,1481661321,146.9250946,-70.57688141,-35.1336441,7.014304638,3.496002913,-4.370518684,31.57712173,25.56115913,26.24840546
416,1481677988,147.5658264,-71.12815857,-35.56002808,7.124982357,3.834736824,-5.073612213,15.97385025,22.17238426,26.59719467
417,1481694655,148.1873322,-71.65005493,-36.18217468,7.144662857,4.068820477,-5.652240276,3.594437122,19.13186646,28.43183708
418,1481711322,148.8075104,-72.17076874,-36.88400269,7.179430008,3.742558718,-6.077219963,-1.153248668,18.80978775,29.21222496
419,1481727989,149.4585876,-72.68106079,-37.49039841,7.072152138,3.373707056,-6.233476162,6.018919945,19.71535492,26.92198944
420,1481744656,150.1596527,-73.17616272,-37.88042068,7.266183376,3.179281473,-6.082817554,21.31380463,21.36769295,22.6989975
421,1481761323,150.9707947,-73.65804291,-38.01460648,7.221928596,3.281356573,-6.014439106,42.55121994,23.26795006,18.06789589
422,1481777990,151.8271179,-74.09133148,-37.85188675,7.312430382,3.620033979,-6.162631989,62.3371582,23.41357613,11.96170902
423,1481794657,152.7600098,-74.44387054,-37.42636108,7.425551891,3.981980562,-6.30029726,82.11005402,21.31814766,5.648025513
424,1481811324,153.6451416,-74.69312286,-36.70628357,7.639226437,4.352687359,-6.192836761,96.29810333,17.99345398,-1.525524855
425,1481827991,154.3880615,-74.78497314,-35.77720261,7.844262123,4.772274971,-5.64642334,99.88430023,10.93330193,-8.724952698
426,1481844658,154.7840271,-74.68763733,-34.62146378,8.051672935,4.941588879,-5.061987877,92.17652893,2.191554785,-16.8844471
427,1481861325,154.6345215,-74.39753723,-33.13592148,8.485639572,4.900704861,-4.411931992,78.45692444,-5.887945175,-26.7398243
428,1481877992,153.8805084,-73.92742157,-31.28892708,9.562521935,4.693865299,-3.923701048,62.88991165,-12.51420403,-37.25540543
429,1481894659,152.810379,-73.28334045,-29.2971344,10.97602272,4.568800926,-3.866649389,51.96343613,-19.60940552,-45.1906929
430,1481911326,151.7546234,-72.43940735,-27.44678688,11.58524323,4.73703146,-3.473027468,44.27429581,-29.78598404,-50.17782974
431,1481927993,150.5955963,-71.39614868,-25.77882385,10.66875839,4.895981789,-2.600171566,27.13670158,-40.02428436,-55.0130806
432,1481944660,149.0122833,-70.18948364,-24.06884575,9.498311043,4.509371281,-1.620013833,3.453793287,-45.76749802,-63.16122055
433,1481961327,146.83992,-68.86523438,-22.10028648,8.848324776,3.624559879,-0.765680194,-18.09695053,-45.57427979,-74.7256546
434,1481977994,144.2926331,-67.49039459,-19.85321617,8.889151573,2.471641541,-0.50391233,-26.05422974,-39.92108154,-85.48407745
435,1481994661,141.7034149,-66.14148712,-17.36474419,9.182376862,1.622882605,-0.622493446,-16.46656799,-29.52287483,-93.15608978
436,1482011328,139.5104523,-64.85569763,-14.87585354,9.736501694,1.626722574,-0.711340129,5.955111027,-20.62189293,-94.34978485
437,1482027995,137.7915344,-63.69458008,-12.57405376,10.15258408,1.892302871,-0.614235163,22.93729973,-13.03873634,-88.59004974
438,1482044662,136.5066833,-62.68671036,-10.55249596,10.63228703,2.305123091,-0.364554524,32.8260994,-7.508372307,-78.83654022
439,1482061329,135.5349426,-61.87348175,-8.842429161,10.62255096,2.480749607,0.054166518,34.19741058,-2.391638994,-65.86627197
440,1482077996,134.7029877,-61.21998978,-7.373612881,10.42796612,2.903286457,0.17608647,29.25909996,1.376125097,-55.09693909
441,1482094663,133.8544312,-60.69946289,-6.057332993,10.42062759,3.169065237,0.05669516,19.84630013,5.125200272,-46.83033752
442,1482111330,132.9029541,-60.31204605,-4.832108974,10.09437084,2.823342323,-0.089871138,8.631800652,9.771483421,-39.48339462
443,1482127997,131.828476,-60.03581238,-3.688903332,9.90970993,2.419038773,-0.36600396,-3.21135354,13.417593,-32.99620056
444,1482144664,130.4780273,-59.86125565,-2.38028264,9.705527306,2.290955067,-0.560243249,-11.30195618,22.04849815,-31.55736351
445,1482161331,129.0081177,-59.79888916,-0.949148834,9.224197388,2.09909606,-0.77783066,-12.18833733,30.07940483,-28.30261993
446,1482177998,127.5503006,-59.8326149,0.565714836,9.071919441,1.685442567,-1.240984082,-7.12617445,36.37997818,-24.59585953
447,1482194665,126.164238,-59.98102188,2.188798189,8.926548004,1.371305227,-1.484118342,2.866020441,43.63758087,-20.08230591
448,1482211332,125.0273514,-60.22981644,3.769150257,8.878973007,1.630210757,-1.898983598,15.75642395,46.32486343,-13.33662128
449,1482227999,124.2481918,-60.58808136,5.160797596,8.96564579,2.123299837,-2.37377286,27.60912323,45.34143066,-3.756965637
450,1482244666,123.8230286,-61.06368256,6.267624378,8.988956451,2.553733587,-2.691034794,34.21443176,41.99560928,7.487081051
451,1482261333,123.6248016,-61.64268494,7.092103004,9.103475571,2.807420731,-2.906298161,33.24795151,38.21130753,17.65763664
452,1482278000,123.5054932,-62.28794479,7.665748596,9.200717926,3.183311939,-3.011307478,24.93127823,34.09133148,25.22762299
453,1482294667,123.4887009,-62.97648239,7.877374172,9.318240166,3.375338316,-3.028772116,11.96769238,26.87781906,33.12266159
454,1482311334,123.4576111,-63.70615005,7.878111839,9.476530075,3.513489485,-3.316461325,-0.137611613,23.37570953,38.38620377
455,1482328001,123.3917542,-64.44760132,7.685012817,9.161352158,3.598392963,-2.940042019,-12.6992569,19.49745369,41.78804779
456,1482344668,123.3613052,-65.14710236,7.287232399,9.160574913,3.422342777,-3.344692945,-21.75936127,13.8239975,42.49976349
457,1482361335,123.4629669,-65.81344604,6.748337269,9.081690788,3.47448945,-3.557465315,-21.66735268,10.04167175,42.61224365
458,1482378002,123.6914063,-66.43770599,6.114320278,8.864534378,3.561748266,-3.646086931,-19.44285583,7.128849506,41.56656265
459,1482394669,124.0683212,-67.01913452,5.410963535,8.836513519,3.679723024,-3.656682014,-14.5291481,4.861347675,40.10097504
460,1482411336,124.5990601,-67.59645081,4.676493168,9.062272072,3.817218065,-3.62360549,-7.198036671,4.769509792,40.03717422
461,1482428003,125.3168182,-68.15057373,3.782752514,9.348023415,4.10697937,-3.325144291,-5.009393215,1.787661672,40.67477036
462,1482444670,126.2251587,-68.69470978,2.686178923,9.530047417,4.281992435,-3.232541561,-5.087835312,-1.245675325,42.49368286
463,1482461337,127.3299484,-69.20136261,1.328090191,9.299175262,4.399504185,-2.921371222,-8.173435211,-5.930399895,43.75067902
464,1482478004,128.5244293,-69.6533432,-0.226041749,9.00154686,4.493570328,-2.785965681,-14.04605579,-9.857334137,43.42597198
465,1482494671,129.7605286,-70.04047394,-1.882979274,8.66218853,4.431345463,-2.755273819,-17.57768822,-12.57998562,41.55295944
466,1482511338,130.9239655,-70.36164856,-3.468144178,8.384940147,4.303223133,-2.825140953,-18.09472084,-12.75097847,37.48560333
467,1482528005,132.03862,-70.61816406,-4.933284283,8.436998367,4.186777115,-2.859209061,-14.39440346,-12.46502781,32.94697571
468,1482544672,133.1273346,-70.80545807,-6.240868568,8.508060455,4.360793114,-2.71617198,-7.143618584,-12.13506317,27.80419159
469,1482561339,134.1934967,-70.92242432,-7.416660786,8.587687492,4.456492901,-2.644326925,-1.090866566,-12.53800297,23.06595421
470,1482578006,135.1604004,-70.96883392,-8.416412354,8.755046844,4.519488811,-2.632065296,2.906239271,-12.61389732,17.80290413
471,1482594673,136.0309143,-70.89370728,-9.321403503,8.887540817,4.694280624,-2.468944073,2.504964113,-16.27542496,11.60527039
472,1482611340,136.7070618,-70.70057678,-10.08580971,9.029195786,4.733829498,-2.457291365,-1.140259862,-19.43925476,5.040138245
473,1482628007,137.1273499,-70.39459229,-10.68170357,9.099161148,4.59883976,-2.309862375,-6.885416985,-22.18489456,-1.692419887
474,1482644674,137.2427216,-69.98386383,-11.03322601,8.895105362,4.423027039,-2.21108532,-11.30039883,-23.58553886,-9.324193954
475,1482661341,137.0745697,-69.48980713,-11.11526585,8.744423866,4.293588638,-2.149578333,-13.07615662,-23.55250549,-16.69833183
476,1482678008,136.7327118,-68.93937683,-10.99707413,8.564585686,4.200449467,-2.279853106,-12.23835468,-23.06376076,-22.17170525
477,1482694675,136.2771912,-68.34951019,-10.74036503,8.56875515,4.122554302,-2.314903736,-11.33342171,-22.48752403,-26.17686844
478,1482711342,135.7439575,-67.73431396,-10.38472748,8.640833855,3.947050571,-2.281992674,-10.5405426,-21.69517326,-29.10557747
479,1482728009,135.193985,-67.12316895,-9.954734802,8.800365448,3.834185362,-2.25059247,-7.501413345,-19.8842392,-30.49199677
480,1482744676,134.6079712,-66.52017212,-9.450082779,8.707893372,3.712888002,-2.170427322,-5.643099785,-17.79094124,-31.74371719
481,1482761343,133.9409332,-65.91893768,-8.850429535,8.648551941,3.79455328,-2.164184332,-5.403455257,-15.50128651,-33.65758133
482,1482778010,133.2432861,-65.3398819,-8.223397255,8.63903141,3.698410511,-2.223830938,-5.887933254,-13.42668247,-33.56118011
483,1482794677,132.5576935,-64.79534149,-7.584254265,8.645996094,3.487555981,-2.304496288,-4.652380466,-11.11981964,-32.62672424
484,1482811344,131.9523315,-64.30345917,-6.948420525,8.706558228,3.323940277,-2.383581161,-0.157998919,-8.441227913,-30.55943489
485,1482828011,131.4609222,-63.87179184,-6.343791485,8.805301666,3.27178669,-2.427339315,4.865389347,-6.129117489,-27.57800865
486,1482844678,131.0393677,-63.49308395,-5.761723995,8.977469444,3.319350481,-2.507260561,7.732504845,-4.079350471,-24.99528313
487,1482861345,130.664856,-63.16662216,-5.203007698,9.107358932,3.258523941,-2.537620544,9.210512161,-2.172300577,-22.37133598
488,1482878012,130.3421478,-62.88650131,-4.660402775,9.057819366,3.156932354,-2.620077848,11.37819481,-0.433450967,-20.09283638
489,1482894679,130.0565643,-62.64209747,-4.134571552,8.959856033,3.115726233,-2.647233486,12.64496136,0.815919578,-18.25687408
490,1482911346,129.7935333,-62.42642593,-3.620787144,9.141644478,3.132086992,-2.710035086,13.29853153,1.850008249,-16.79707146
491,1482928013,129.5700073,-62.23896027,-3.157136679,9.244022369,3.126843929,-2.75991869,12.95084858,2.011393785,-14.66724205
492,1482944680,129.4146729,-62.08582687,-2.773073912,9.162508011,3.095299482,-2.85695076,12.78120995,1.709610939,-11.71273136
493,1482961347,129.3106384,-61.96251297,-2.461838722,9.143941879,3.138633013,-2.798116446,11.97223091,1.329761267,-9.070776939
494,1482978014,129.2049713,-61.85072327,-2.19750762,9.12848568,3.060709,-2.868544102,9.371896744,0.787347674,-7.729373455
495,1482994681,129.0606537,-61.76273727,-1.957286358,9.081163406,3.07282877,-2.659662724,5.7631917,1.198367238,-6.220256805
496,1483011348,128.8233337,-61.71043777,-1.720530152,8.903104782,2.987359285,-2.548637867,-0.011199155,2.50385952,-4.511082172
497,1483028015,128.5566101,-61.71409225,-1.481425643,8.737894058,2.836736917,-2.78651309,-1.656008363,4.680119514,-1.939297795
498,1483044682,128.3894806,-61.78205872,-1.276457191,8.609044075,2.9496665,-3.180283785,2.516307354,6.330142498,1.692244411
499,1483061349,128.4011993,-61.92634201,-1.138900638,8.465478897,3.207309246,-3.57098937,9.683859825,7.670086384,6.474010944
500,1483078016,128.5711823,-62.10695267,-1.073814869,8.249398232,3.394992352,-3.612512827,15.34423065,7.430484295,9.437088013
501,1483094683,128.8503571,-62.30570984,-1.078494072,8.201603889,3.483798981,-3.387839079,18.19207954,6.621061325,11.47447109
502,1483111350,129.1411438,-62.49876404,-1.127158642,8.284805298,3.516312599,-3.196949959,16.5444603,5.515166283,11.93677902
503,1483128017,129.4171753,-62.6761322,-1.240343332,8.361733437,3.61903286,-3.055222988,12.21385098,3.601905107,12.29734802
504,1483144684,129.7120209,-62.83221054,-1.446902275,8.562725067,3.720217943,-2.991164923,8.348068237,0.880757391,12.91211414
505,1483161351,130.0455017,-62.96943283,-1.764748812,8.633274078,3.877838135,-3.017948389,4.709807396,-2.098366737,13.9624157
506,1483178018,130.396637,-63.08340836,-2.165887356,8.61885643,3.922026873,-3.053883076,1.292379498,-4.627841473,14.34784889
507,1483194685,130.74263,-63.1659317,-2.591518402,8.560202599,3.829704046,-3.012915134,-0.342640549,-6.257027626,13.34558392
508,1483211352,131.063385,-63.20863342,-2.990235329,8.591532707,3.873356581,-2.98720479,-0.428596795,-7.18763876,11.0792675
509,1483228019,131.3354034,-63.21510315,-3.3452034,8.691708565,3.929360628,-2.976245403,-1.012233496,-7.676174641,8.692749023
510,1483244686,131.5721436,-63.18437195,-3.67000103,8.813455582,3.968030691,-3.022460461,-1.509517074,-8.51646328,6.514593124
511,1483261353,131.7854767,-63.11528397,-3.97975111,8.884591103,4.014411926,-2.951823473,-2.101388454,-9.736127853,4.569589138
512,1483278020,131.973877,-62.99749756,-4.285235405,8.94591713,4.002264023,-2.85174489,-3.351929426,-11.61779118,2.365999937
513,1483294687,132.1210022,-62.82677078,-4.5756464,8.885410309,3.949300528,-2.789853096,-4.998853207,-13.47156525,-0.205650896
514,1483311354,132.1652679,-62.60492706,-4.809131622,8.803850174,3.917103529,-2.753361225,-8.101042747,-14.42022705,-3.474628687
515,1483328021,132.0893402,-62.3394165,-4.973903179,8.706497192,3.84683466,-2.8647089,-11.62512684,-14.80932903,-6.664133072
516,1483344688,131.9134827,-62.05131149,-5.067887306,8.584619522,3.692922831,-3.011941671,-13.8393507,-14.26165295,-8.999440193
517,1483361355,131.7023621,-61.76542282,-5.116440773,8.524867058,3.565399885,-3.046607494,-13.53430367,-13.20172215,-9.788043022
518,1483378022,131.5142365,-61.48931122,-5.152880669,8.439489365,3.493954659,-3.054950714,-11.50481129,-12.52478695,-9.619292259
519,1483394689,131.3725739,-61.23673248,-5.199536324,8.438165665,3.45002985,-3.097785473,-9.248800278,-11.78438377,-8.401057243
520,1483411356,131.2855835,-61.00885391,-5.28867197,8.511361122,3.531375647,-3.125719547,-8.194540977,-11.71921062,-6.497723579
521,1483428023,131.2596741,-60.80213165,-5.458997726,8.343527794,3.604906321,-3.155051947,-8.775847435,-12.66698265,-3.985781193
522,1483444690,131.2207794,-60.60689926,-5.686626911,8.192314148,3.698691607,-3.095614672,-12.53251934,-13.50053978,-2.351395845
523,1483461357,131.127243,-60.42572021,-5.965594292,8.124505043,3.661183596,-2.981579065,-18.47094727,-14.11001968,-0.708647192
524,1483478024,131.0132599,-60.2620163,-6.305849075,8.06116581,3.556314945,-2.989981413,-22.86512566,-14.82908154,1.273863792
525,1483494691,130.9160919,-60.12725449,-6.702554703,8.045488358,3.610876799,-2.981367826,-24.7668438,-14.99937248,3.687510252
526,1483511358,130.8507233,-60.03530884,-7.159389496,8.03564167,3.753999233,-2.912084103,-25.96182823,-14.71703434,6.808031082
527,1483528025,130.8249512,-59.99437332,-7.676908016,8.075528145,3.877330542,-2.884625912,-26.72066498,-14.1250248,10.31512833
528,1483544692,130.8241882,-60.00811005,-8.23878479,8.102293968,3.930360794,-2.82035923,-27.52049255,-13.00019073,13.6673069
529,1483561359,130.8368073,-60.07552338,-8.821365356,8.081585884,3.953109503,-2.772789478,-27.80435753,-11.35776043,16.49401855
530,1483578026,130.8490295,-60.19824982,-9.407979965,8.092103958,3.963289261,-2.793469667,-28.06406784,-9.247921944,19.04913139
531,1483594693,130.885849,-60.3743515,-10.00050831,8.161289215,4.068202972,-2.780699015,-26.94385338,-7.226558685,21.53841591
532,1483611360,130.9471741,-60.59980774,-10.60750389,8.238826752,4.185564518,-2.775585175,-26.28728867,-5.521963596,23.98816299
533,1483628027,131.0571747,-60.86765671,-11.23446655,8.306208611,4.185035229,-2.924444675,-24.49023819,-4.167890549,26.21220779
534,1483644694,131.2546539,-61.16124344,-11.89754868,8.301677704,4.309086323,-2.973171234,-21.22659683,-3.763898373,27.96932983
535,1483661361,131.5028687,-61.4575119,-12.58865547,8.294078827,4.446755886,-2.96848321,-19.75646019,-4.036444187,28.51788902
536,1483678028,131.7677155,-61.74485016,-13.28845406,8.269666672,4.550050259,-3.040694952,-19.31756783,-4.323921204,28.17971802
537,1483694695,132.0066071,-61.99703217,-13.96755981,8.30805397,4.677018166,-3.21692276,-19.87247849,-5.058777332,26.12360764
538,1483711362,132.2069092,-62.21546936,-14.58845425,8.370826721,4.632602692,-3.307706118,-19.17945099,-5.003809929,23.45277214
539,1483728029,132.3916473,-62.38759613,-15.14857292,8.43960762,4.62193203,-3.220329046,-16.94171143,-5.46616745,20.20185089
540,1483744696,132.5476837,-62.49865723,-15.63421249,8.589891434,4.666592598,-3.153492928,-14.74072838,-6.307887077,16.07569695
541,1483761363,132.6658325,-62.53886032,-16.02273369,8.808039665,4.70824194,-3.172767162,-11.85839272,-7.149376392,11.1261692
542,1483778030,132.7398682,-62.49874496,-16.32043076,8.903101921,4.733139515,-3.23341918,-9.668628693,-8.558087349,5.897456646
543,1483794697,132.7549438,-62.37257767,-16.50123787,8.927739143,4.698888779,-3.213122845,-6.9732337,-9.694046974,-0.0662793
544,1483811364,132.6740112,-62.15050125,-16.5483036,8.945094109,4.698605537,-3.14295125,-5.613430023,-10.87458897,-6.804767132
545,1483828031,132.4577026,-61.83223343,-16.4486599,9.082270622,4.65890646,-3.038600445,-5.950868607,-11.72208309,-13.8631916
546,1483844698,132.1209412,-61.42606354,-16.24258041,9.142311096,4.505898476,-2.987159491,-7.571994781,-12.92771244,-19.8745575
547,1483861365,131.6901398,-60.9431839,-15.96180439,9.167798042,4.361981392,-3.015550613,-9.327590942,-14.18905067,-24.87681198
548,1483878032,131.2046814,-60.41234207,-15.63729668,9.185602188,4.262439728,-2.852658033,-10.38401222,-14.82483482,-28.07646179
549,1483894699,130.6793823,-59.85488129,-15.30795193,9.152385712,4.205643654,-2.792745352,-12.60806561,-15.37957668,-29.60704613
550,1483911366,130.1390533,-59.29286575,-14.99459457,9.030038834,4.014782429,-2.813269854,-14.42950058,-15.51324368,-29.74587631
551,1483928033,129.6031342,-58.74457932,-14.69905949,8.846756935,3.853294611,-2.77272439,-15.16841602,-14.99710655,-29.00515366
552,1483944700,129.0796509,-58.22420883,-14.42572498,8.607355118,3.645294666,-2.872151613,-15.64153099,-14.08276081,-27.49548531
553,1483961367,128.5896301,-57.74515915,-14.16686344,8.457679749,3.525265455,-2.740111113,-14.44139385,-12.53562355,-25.47864914
554,1483978034,128.1190186,-57.32109833,-13.92738914,8.400540352,3.426593781,-2.65498209,-14.32140446,-10.67356777,-22.67826462
555,1483994701,127.711235,-56.95931244,-13.72533798,8.515304565,3.363319874,-2.686848879,-12.4895792,-9.091854095,-19.1209507
556,1484011368,127.4022598,-56.67463684,-13.57045746,8.654986382,3.349079609,-2.737913132,-8.965895653,-7.328717232,-14.61083889
557,1484028035,127.2192001,-56.46596146,-13.48025036,8.680498123,3.37873292,-2.825288296,-4.674915791,-6.175654411,-9.75206089
558,1484044702,127.1349182,-56.31076431,-13.46330643,8.630960464,3.576238632,-2.833431721,-2.421008587,-6.139090061,-5.761289597
559,1484061369,127.0472183,-56.20830536,-13.4869442,8.56229496,3.732195139,-2.722407818,-4.65105629,-5.305102825,-2.446686029
560,1484078036,126.9498825,-56.15852737,-13.54806614,8.557985306,3.744096279,-2.802304745,-7.097952843,-4.404981613,0.811807454
561,1484094703,126.8612061,-56.16491699,-13.62798214,8.514837265,3.758146048,-2.842184782,-7.518833637,-2.890015841,3.866365671
562,1484111370,126.8124466,-56.22527695,-13.71712685,8.416275978,3.725917816,-2.873285294,-5.586918354,-1.202266812,6.627645493
563,1484128037,126.8159027,-56.34479523,-13.80360317,8.384133339,3.789160252,-2.824183464,-2.327907324,0.993273735,9.399058342
564,1484144704,126.8788528,-56.54843521,-13.86572647,8.447922707,3.881446362,-2.686899185,2.444798231,4.676229954,12.93590927
565,1484161371,127.0059509,-56.84127045,-13.89042568,8.571201324,4.063748837,-2.923031569,8.157694817,8.899938583,16.44641113
566,1484178038,127.1710358,-57.19931412,-13.88447571,8.749709129,4.09992981,-3.255707979,11.97229767,12.09473991,18.92813492
567,1484194705,127.3815918,-57.60270309,-13.86057949,8.59349823,4.168917656,-3.378020763,15.5996027,14.26103973,20.69561958
568,1484211372,127.6229172,-58.01825714,-13.85810471,8.316086769,4.298254967,-3.313492298,16.3591423,14.23111629,21.63140488
569,1484228039,127.8665543,-58.41987991,-13.88593864,8.11654377,4.360250473,-3.224190474,14.94669247,13.04953098,21.49250221
570,1484244706,128.0948792,-58.77788925,-13.9632864,8.104758263,4.411036491,-3.223696232,11.48014927,10.31283569,20.32312012
571,1484261373,128.2971802,-59.07564545,-14.11145687,8.21926403,4.44622612,-3.105901241,6.264837265,6.442180157,18.78124428
572,1484278040,128.4244995,-59.31412125,-14.31718636,8.400520325,4.475151062,-3.030203819,-1.224461079,2.92668891,17.04983902
573,1484294707,128.4556274,-59.51116562,-14.54658031,8.470150948,4.351110935,-2.939008713,-8.244114876,0.867016315,15.52257824
574,1484311374,128.3998718,-59.68144226,-14.76503563,8.375644684,4.184010506,-2.869818687,-12.91490555,0.152434155,14.03527641
575,1484328041,128.2687378,-59.84289932,-14.9470787,8.458189011,4.02748251,-2.786778688,-15.57043552,0.689302623,12.91718006
576,1484344708,128.0928955,-60.00724792,-15.10860729,8.451992035,3.904209137,-2.677656174,-17.20574951,1.268983245,12.65708637
577,1484361375,127.9210434,-60.17020416,-15.2769804,8.353719711,3.780942917,-2.584547281,-17.33625603,1.035394907,12.70354652
578,1484378042,127.7639618,-60.33449173,-15.45352173,8.190983772,3.669698954,-2.562246799,-16.89398956,0.876416683,12.90316105
579,1484394709,127.6049118,-60.49355698,-15.62177181,8.0952425,3.703100204,-2.453876495,-16.5961647,0.863533437,12.48894978
580,1484411376,127.4119873,-60.64346695,-15.77662754,8.106207848,3.754178762,-2.456660032,-17.94412422,0.821170032,11.79899693
581,1484428043,127.1929626,-60.79515839,-15.91359138,8.261640549,3.759103298,-2.548451662,-18.58703423,1.282391667,11.55616188
582,1484444710,126.9803772,-60.94784927,-16.04102707,8.362121582,3.84593153,-2.717139721,-17.7135849,1.513239026,11.42904472
583,1484461377,126.7807159,-61.10417175,-16.15419006,8.537364006,3.974145889,-2.712617874,-16.20095634,1.953905821,11.34788704
584,1484478044,126.6237335,-61.25939941,-16.27812767,8.579601288,4.028323174,-2.867998362,-14.21914291,1.647615552,11.47934246
585,1484494711,126.5279312,-61.41558456,-16.40699577,8.50450325,4.159048557,-2.968777895,-10.81898785,1.562696457,11.60365295
586,1484511378,126.4856262,-61.5527153,-16.52556419,8.482493401,4.346821785,-3.224758148,-7.076273918,1.122758985,10.50032902
587,1484528045,126.4364853,-61.66505814,-16.58693695,8.444129944,4.81505537,-3.304368019,-4.47746563,1.567036629,8.33230114
588,1484544712,126.3376999,-61.72943497,-16.59241867,8.315497398,5.197149277,-3.665784597,-4.504551411,1.14150703,5.075528622
589,1484561379,126.1804504,-61.7179184,-16.56306839,8.102425575,5.56830883,-4.23797226,-6.169568539,-0.741353273,0.83611393
590,1484578046,125.9801331,-61.59399796,-16.55191803,7.86229372,6.260635853,-4.343533039,-9.713510513,-5.104248047,-4.296807766
591,1484594713,125.611145,-61.32539368,-16.52170181,7.631498814,7.421259403,-4.177633762,-18.82413864,-9.677144051,-11.65850925
592,1484611380,125.0198364,-60.87451172,-16.43472672,7.572955132,8.586237907,-4.716294289,-29.17702103,-14.51122665,-21.5820713
593,1484628047,124.2312012,-60.23588943,-16.16402626,7.476278782,9.037607193,-5.948582649,-31.42661667,-16.10129547,-34.07648849
594,1484644714,123.4752579,-59.32284927,-15.67911243,7.291957378,10.12800121,-6.533042908,-18.45221519,-19.20500755,-51.62253952
595,1484661381,122.6872711,-58.12039566,-14.85543633,7.673909187,12.15001297,-7.014402866,-3.261438131,-18.6644249,-72.37464905
596,1484678048,121.9808273,-56.53494644,-13.84828377,7.846201897,14.01853561,-7.917165756,10.28005123,-24.0253315,-95.67476654
597,1484694715,121.3988113,-54.49230194,-12.67658138,8.050465584,14.95796585,-7.635162354,24.84892082,-31.13638115,-122.9727631
598,1484711382,121.0901871,-51.93291855,-11.32552433,8.449538231,15.60201454,-7.034939766,48.24477386,-38.68605042,-154.1694946
599,1484728049,121.0583801,-48.8294754,-9.831225395,9.288666725,16.53193092,-6.9697752,69.01397705,-47.60008621,-186.6236267
600,1484744716,121.0908127,-45.18789291,-8.192715645,9.907829285,16.69389343,-7.087652683,75.73478699,-55.7440033,-219.3071899
601,1484761383,121.1203842,-41.08255005,-6.437752724,10.16655827,17.26136208,-6.785228252,75.66213989,-61.77744293,-248.1195526
602,1484778050,121.0287552,-36.54044342,-4.630018234,10.45272827,18.30060768,-7.195350647,64.39761353,-68.54066467,-274.5220337
603,1484794717,120.7328415,-31.60336113,-2.840803862,10.64967346,18.44364357,-7.668869019,44.3250885,-75.94615173,-297.3253784
604,1484811384,120.3366928,-26.35964203,-1.062301397,10.55384541,18.54699135,-6.532067299,29.88559151,-79.64529419,-315.8589478
605,1484828051,119.8262482,-20.82868958,0.655011058,10.25213432,18.73352432,-7.09662199,12.59683132,-84.83132172,-331.9346008
606,1484844718,119.2409134,-15.07025719,2.321991205,9.652311325,18.70657158,-7.291726112,-2.291509628,-87.73213959,-344.9811401
607,1484861385,118.7978745,-9.200035095,4.007077694,9.326483727,18.53302002,-6.788525105,-3.314104557,-84.64817047,-353.4423828
608,1484878052,119.0028915,-3.336663485,5.670125961,9.447647095,17.94425392,-5.214107513,25.19750786,-83.42978668,-353.4758911
609,1484894719,119.7573929,2.483987808,7.354310036,9.058775902,17.81852913,-5.247606754,48.03801346,-83.55761719,-351.5220337
610,1484911386,120.8815613,8.259029388,9.133436203,8.28421402,17.17203903,-5.240987301,59.50434875,-83.47247314,-350.4772339
611,1484928053,122.4107208,13.9002018,11.0209074,7.188809872,16.11987114,-5.04829216,72.06843567,-83.2819519,-344.2701111
612,1484944720,124.4014359,19.31618881,13.04778862,5.776033401,14.86333561,-4.176493645,86.80103302,-81.94178009,-333.3592529
613,1484961387,126.8723068,24.45404625,15.20915985,4.800513268,13.83811665,-4.039055824,102.0785675,-82.12754822,-318.6836243
614,1484978054,129.8471527,29.28336716,17.49039078,4.524529457,12.84421253,-3.087725639,118.8473587,-84.3928299,-301.1196594
615,1484994721,133.0264893,33.89680099,19.85308266,3.386124134,12.19165802,-1.978226185,118.7865372,-92.95906067,-285.6795044
616,1485011388,136.0655975,38.34250259,22.2353878,2.473873138,10.97995281,-2.658968687,100.4708328,-105.1049118,-269.4507446
617,1485028055,138.9293976,42.62358475,24.68414116,1.441631079,9.315236092,-2.900834799,78.89796448,-114.1272125,-254.3871765
618,1485044722,141.8052063,46.55749893,27.40226936,0.828156054,8.29505825,-1.360170603,60.56177902,-107.9224091,-238.5510864
619,1485061389,144.696228,50.13314438,30.27449608,0.948035657,7.360704422,-0.289592087,47.25654221,-103.555687,-218.7719421
620,1485078056,147.2363586,53.37252045,33.16551971,0.904872298,6.729211807,0.626721144,18.79393959,-101.1191406,-196.4892273
621,1485094723,149.4760437,56.31821442,36.14604187,1.343768358,4.556973934,1.123089671,-9.174345016,-96.5501709,-179.1814423
622,1485111390,151.8039551,58.94672012,39.32429504,0.500528395,2.390409708,1.774324656,-18.7277298,-87.46212006,-165.1522675
623,1485128057,154.3195343,61.34563065,43.06857681,-0.182361454,2.440114975,1.031260848,-41.26755142,-77.65576935,-163.7756348
624,1485144724,157.0790863,63.58820724,47.13812637,0.069391519,2.139787197,0.324241281,-48.33703232,-76.13292694,-157.1320343
625,1485161391,160.2667084,65.70752716,51.67230606,0.247373402,1.597310305,0.851667464,-52.03268051,-75.99081421,-153.6526947
626,1485178058,164.1355133,67.66615295,57.03490829,0.466846257,1.754689693,2.109581947,-60.85615921,-72.81789398,-156.0499725
627,1485194725,168.2428284,69.35107422,63.31826401,-1.024647713,3.087373734,1.496244431,-101.8903732,-64.98590851,-157.1276245
628,1485211392,172.6050873,70.64398956,70.59644318,-0.675105274,2.085592985,-0.652714968,-146.1893158,-51.37779999,-159.0470123
629,1485228059,177.9590149,71.45092773,78.95317078,0.547694683,-0.040307626,-2.151065588,-150.6288757,-34.59088898,-165.072464
630,1485244726,-176.0197906,71.57467651,87.67113495,-0.013647838,-0.804801285,-0.813771546,-132.5407104,-10.06430912,-164.4503632
631,1485261393,-170.5744476,71.11930084,95.87443542,-0.439255774,-0.873450339,-1.188009143,-137.4150696,8.846435547,-158.2296906
632,1485278060,-166.0531769,70.17894745,103.2436371,-0.689725161,-1.938933492,-3.828367472,-143.7545624,25.61274529,-153.5558929
633,1485294727,-162.7248993,68.85443115,109.3022537,-1.630961418,-3.549061775,-5.170795918,-138.75737,42.29334259,-142.521225
634,1485311394,-160.6421967,67.38234711,113.866539,-3.416622877,-6.843062878,-7.32869339,-127.1511841,51.7218895,-123.2343216
635,1485328061,-158.8665619,65.95204163,117.1284943,-4.613684654,-8.940142632,-9.120326996,-71.24437714,53.56686783,-100.9525986
636,1485344728,-156.7472534,64.49648285,119.6052322,-6.933985233,-7.761009216,-8.158164024,-5.932367325,57.11726761,-89.11425781
637,1485361395,-156.7528229,64.21484375,121.5028,-5.766432762,-4.18285656,-15.82735634,-101.1882095,-4.215847969,-50.36651611
638,1485378062,-156.8093719,64.60927582,123.0086899,-4.092030048,-7.135966778,-20.58176231,-83.17205811,-37.58428574,-24.94129372
639,1485394729,-156.8071136,64.88552094,123.4368439,-3.754576206,-7.731613636,-8.502593994,-21.48007774,-20.21396255,-1.927169442
640,1485411396,-156.5684814,64.53894043,123.1648254,-4.536467075,-4.77753067,-2.766904593,30.63988495,21.11807442,-0.173590913
641,1485428063,-156.7261505,63.88572311,122.416687,-5.599995136,-2.876847982,-4.528148174,32.51041031,42.97636795,4.066896439
642,1485444730,-157.0857697,63.24209595,121.4343185,-7.202104092,-2.244168997,-6.744884014,32.74337387,45.04823685,10.66700268
643,1485461397,-157.3140869,62.72416306,120.4907913,-8.724347115,-2.958825588,-7.748433113,38.26224136,37.82051849,13.33463287
644,1485478064,-157.2411957,62.3536911,119.6754456,-10.23700428,-2.502886057,-6.359378338,49.29484177,28.39925003,13.89091492
645,1485494731,-156.9405823,62.21726608,119.1388931,-11.14242744,-0.061277896,-3.325170279,48.04932785,12.54260254,12.26933765
646,1485511398,-156.8113556,62.36264038,119.0328751,-10.87010002,1.728273988,-1.215091228,14.91666698,-7.654696465,7.794190407
647,1485528065,-156.9609222,62.6084938,119.2574539,-10.10653591,-0.496035755,-2.396813631,-19.35930252,-16.76600838,1.691434622
648,1485544732,-157.0777893,62.86634064,119.4612808,-9.677301407,-1.970540524,-3.073564291,-16.30364227,-17.16118431,2.497672081
649,1485561399,-156.953125,62.91937637,119.5934601,-9.63498497,-1.662811637,-3.133965492,2.00987339,-5.060352325,-0.471158475
650,1485578066,-156.7055206,62.81482697,119.6284714,-9.099705696,-1.556831121,-3.545743227,14.58227444,4.682254791,-1.739270091
651,1485594733,-156.2236481,62.60034561,119.7117004,-8.619918823,-0.940606415,-2.893670082,26.07546043,10.18089008,-5.631927967
652,1485611400,-155.8573761,62.3729744,119.9372635,-8.37653923,0.103719234,-3.110245228,11.58085823,9.235513687,-9.65468502
653,1485628067,-155.7359924,62.27693558,120.2178574,-8.231142044,-1.96803534,-6.452347755,-6.009451866,1.364388943,-7.907968521
654,1485644734,-155.4536743,62.19537735,120.4804535,-8.298434258,-2.945668697,-5.613184929,4.607206821,0.717981756,-7.121215343
655,1485661401,-155.174408,62.13129425,120.6534653,-7.918418407,-2.590433121,-4.684980869,9.182290077,0.751111865,-4.422341347
656,1485678068,-154.9628448,62.06761169,120.6505356,-8.056404114,-2.943825483,-4.617195606,14.44936943,2.777488232,0.05006646
657,1485694735,-154.8584442,61.98536682,120.4608383,-8.235300064,-2.560190439,-4.749718189,17.91393471,6.004745007,4.334000587
658,1485711402,-154.9169159,61.88924026,120.1553879,-8.390678406,-2.551553965,-4.96219492,14.2602253,8.149424553,6.949635029
659,1485728069,-155.0795746,61.84230804,119.7382431,-8.061108589,-2.140372515,-4.711845398,13.90262222,6.804041386,11.09539032
660,1485744736,-155.3733978,61.83381271,119.26017,-8.019453049,-2.10929203,-4.507600307,9.252983093,5.396269321,13.66770744
661,1485761403,-155.7720642,61.84973526,118.6861801,-8.143089294,-2.86806941,-4.859703541,8.03562355,5.10994482,16.77923393
662,1485778070,-156.1843262,61.8890152,117.9748154,-7.828059196,-3.362648487,-5.273841858,14.49488735,5.294579983,20.92938805
663,1485794737,-156.5449066,61.97482681,117.1666107,-6.943964005,-3.459797621,-5.401422501,22.73114395,3.682275772,24.55521202
664,1485811404,-156.9810333,62.08690643,116.1938019,-6.090310097,-3.174688339,-6.246626854,26.95785904,3.86281991,29.40123177
665,1485828071,-157.5313263,62.39513016,115.0535507,-4.975665092,-4.205884933,-7.770310879,29.08947182,-5.509054661,38.13476181
666,1485844738,-158.308136,62.88846207,113.5088577,-3.959370852,-5.662313938,-8.331048012,37.2537384,-12.21407223,52.20059586
667,1485861405,-159.7913361,63.56105042,111.3238144,-3.283252001,-6.17261076,-8.534749985,29.57790184,-17.38751793,71.19797516
668,1485878072,-162.0107574,64.27175903,108.2590561,-3.710162878,-6.879593849,-8.469034195,33.49397278,-14.67913055,91.9754715
669,1485894739,-164.6743011,64.9070282,104.3970413,-4.354329586,-5.819545269,-6.377691746,50.96218109,-8.86830616,107.8146973
670,1485911406,-168.1506805,65.64757538,99.66616821,-3.673585892,-5.146715164,-7.622238159,50.71806717,-16.14513588,127.4608765
671,1485928073,-172.3690796,66.40098572,93.99279785,-2.703734875,-4.651954174,-7.641814232,59.3815918,-21.98994637,145.5984802
672,1485944740,-177.5458069,67.08657837,87.39892578,-2.115575314,-3.117035866,-6.547572136,54.32655716,-28.07164192,160.834198
673,1485961407,176.1760101,67.57789612,79.89945221,-1.924141526,-2.084959984,-5.403157234,39.97183228,-32.37373734,174.6364441
674,1485978074,169.4102936,67.68083954,71.75611115,-1.883262396,-2.335398436,-2.829027891,47.33924103,-30.30352783,185.2823944
675,1485994741,162.5277405,67.23299408,63.48529053,-1.794682145,-1.879792094,-0.853065312,46.83505249,-20.94203568,192.6377258
676,1486011408,156.0365906,66.28780365,55.31247711,-1.35446775,-1.617249489,-0.949178696,62.57391739,-16.31760025,202.5682678
677,1486028075,150.1850739,64.83309174,47.49876404,0.085671641,0.389933169,-0.388289243,77.19281769,-10.79765606,213.9861908
678,1486044742,144.8774719,62.79675293,40.40339279,1.0906533,2.803202152,-0.005800037,65.06228638,1.314878583,225.5945892
679,1486061409,140.0587006,60.3227272,34.1513176,0.175469071,4.343230247,0.212382883,42.23252487,7.997068882,233.6167908
680,1486078076,135.8253021,57.481884,28.79796982,0.755515933,5.119735241,-0.200000137,22.56227875,14.57845306,238.8847504
681,1486094743,132.3008575,54.40086365,24.10355186,0.242344394,5.673743248,-0.349236518,23.41735649,14.40243244,244.0702209
682,1486111410,129.4450989,51.13948441,19.92654228,0.527848303,6.730558395,1.076155186,29.74867439,12.61153126,248.7238617
683,1486128077,126.9269104,47.67050552,16.26378632,0.689344049,7.709881783,1.147693634,17.35269928,15.50908566,253.5359344
684,1486144744,124.7801437,43.98752975,13.22884083,1.461521149,8.74210453,1.290412307,3.399425745,25.84022903,254.9550018
685,1486161411,122.815918,40.14675903,10.64517593,1.565054417,9.996902466,1.509692311,-12.36707115,31.81295586,257.0376587
686,1486178078,121.0780563,36.05343628,8.691155434,3.037238359,10.56703854,0.534175873,-30.27649117,50.92626572,258.7319946
687,1486194745,119.6456375,31.7394104,7.093976974,4.325856209,10.98639393,0.370766342,-30.8229332,61.44514084,265.0426025
688,1486211412,118.6333008,27.12406158,5.920460224,5.218212128,11.43858433,0.789167643,-24.44694328,80.50999451,273.208374
689,1486228079,117.8944244,22.30209732,5.000685692,5.005002022,12.19233131,1.119980335,-19.54613686,92.04915619,280.0150146
690,1486244746,117.4070435,17.19020462,4.311340332,5.320255756,12.96565437,0.257398248,-13.53869057,107.0342102,291.1818542
691,1486261413,117.158287,11.75786781,3.823015213,5.846280098,14.00898647,-1.700681686,-5.86021471,123.3344498,304.1005554
692,1486278080,117.3042679,6.112884045,3.339362383,7.293301582,14.2175951,-3.93006444,14.99775314,128.5994263,315.6768188
693,1486294747,117.9096375,0.36580193,2.89824152,8.761734009,14.90637779,-2.962213278,39.52459335,135.449585,319.1981201
694,1486311414,118.5466232,-5.402928352,2.528806448,10.0792923,16.31814957,-0.994421124,38.9478302,143.2338867,316.8108826
695,1486328081,118.9866257,-11.30623722,2.286829472,10.11432457,16.59191132,-2.372603416,26.00232124,156.8544617,318.7670288
696,1486344748,119.4230576,-17.28381729,2.265628815,11.82778645,16.09096527,-4.210782528,27.57674789,172.8823547,315.0297241
697,1486361415,119.8465881,-23.31130791,2.382723808,13.03873539,15.79775906,-6.56153059,29.54010773,183.4867096,312.4468384
698,1486378082,120.0914459,-29.15502548,2.598332167,12.43633842,15.47598362,-8.093684196,22.09090233,184.1146545,299.3075562
699,1486394749,120.2887573,-34.65329742,2.766621828,12.12820911,15.32990074,-7.944070339,18.83134651,172.2129974,282.2067871
700,1486411416,120.4030151,-39.90737534,2.836374044,12.49252796,16.08636665,-4.837919712,11.02802658,161.0569,271.7463074
701,1486428083,120.1279449,-44.9891777,2.687725544,13.61602879,16.81228256,-3.323521376,-20.88996506,146.9044189,268.0527039
702,1486444750,119.4654846,-49.91275024,2.349216938,14.45721912,16.52976227,-4.172920227,-53.08301544,133.7928314,264.5843201
703,1486461417,118.5684814,-54.50683212,1.859498143,14.08195877,15.23384762,-6.600036144,-75.42990112,116.8838654,251.1914673
704,1486478084,117.4297943,-58.60666275,1.594623566,13.05153084,13.57367802,-9.63512516,-79.98078156,106.6985016,222.7290039
705,1486494751,116.3119049,-62.22688293,1.926239133,13.21022606,12.68008614,-9.618440628,-48.17603683,105.9337845,190.7485504
706,1486511418,114.7446136,-65.37075806,2.962595701,12.65044403,13.84887123,-8.328967094,-36.64738083,105.1020432,159.8191681
707,1486528085,112.3107452,-68.16778564,4.914391518,11.82967472,13.2420826,-7.791344166,-36.80586624,108.4104691,136.8732452
708,1486544752,110.1213531,-70.25028992,6.706275463,11.07006645,12.49507809,-6.436974525,-29.25012779,79.89865875,104.1428375
709,1486561419,107.3047028,-71.590271,8.757353783,10.85357857,11.77582073,-6.483865261,-51.09619522,63.03145218,64.74216461
710,1486578086,103.5544891,-72.47068787,11.35510159,9.667393684,11.5424099,-7.077305317,-75.1452713,59.57258987,39.65052414
711,1486594753,99.29318237,-72.91281128,14.17355919,8.81573391,9.941509247,-7.348940372,-92.61306,53.76681519,17.58770561
712,1486611420,95.58395386,-72.94217682,16.59380722,8.467229843,8.33658886,-6.98555088,-82.11511993,41.73345947,-2.195989847
713,1486628087,93.14353943,-72.73073578,18.2370739,7.709777355,7.467552662,-6.554987431,-50.59015656,27.30893707,-13.26723766
714,1486644754,92.02368927,-72.35126495,18.97815132,8.44976902,6.788038731,-6.411028862,-23.13747025,11.58903694,-21.73496628
715,1486661421,92.10915375,-72.06126404,19.05248451,9.409929276,5.584239006,-5.599135876,11.01957226,0.050828468,-15.81430817
716,1486678088,93.1424408,-71.85058594,18.77692413,10.10660553,4.527732849,-4.214380741,47.9249382,-6.357069492,-10.76292801
717,1486694755,94.62865448,-71.61386871,18.60637283,10.20491886,4.147515774,-3.4137187,81.11100769,-4.809455872,-12.32397747
718,1486711422,96.14598846,-71.26874542,18.77578354,11.03722668,3.833472252,-2.770735741,102.3300476,0.642416596,-19.28992081
719,1486728089,97.35926819,-70.76850128,19.44587898,11.52500248,3.159876823,-1.983645201,112.4741821,8.832820892,-29.72162628
720,1486744756,98.39276886,-70.16259003,20.395298,11.3754158,2.65194416,-1.048999071,117.3490067,13.26683807,-37.00287628
721,1486761423,99.45449066,-69.47431183,21.30237007,11.03552437,2.531991482,-0.173801228,116.4399033,11.52478027,-42.10043335
722,1486778090,100.3898315,-68.73506165,22.23128891,10.94968128,2.605111599,0.336983293,109.8428345,11.31800175,-45.51751328
723,1486794757,100.9974213,-67.97328949,23.30976105,10.86095715,2.932451248,0.984612525,98.24705505,14.34718132,-47.74888229
724,1486811424,101.4920425,-67.25449371,24.2733326,10.39572239,2.583346128,0.818725944,84.7816925,12.55114937,-45.00691223
725,1486828091,101.8302155,-66.57653046,25.22863388,10.2394619,2.643854141,1.062322974,74.65688324,13.14341831,-42.79902267
726,1486844758,101.7611465,-65.90838623,26.15260506,9.661949158,3.488859892,1.461616278,48.23941803,13.01366329,-42.23619461
727,1486861425,101.0539093,-65.23246765,27.1453476,9.117612839,3.507243395,1.625744581,13.43669701,15.46190929,-43.05576706
728,1486878092,100.2084351,-64.64081573,27.91820335,8.735261917,3.092891693,1.574630976,-7.087488651,12.08142281,-36.94564056
729,1486894759,99.29601288,-64.10490417,28.54137802,8.619012833,3.845087767,1.380563259,-19.39940071,9.805054665,-32.86487579
730,1486911426,98.41322327,-63.66097641,28.98891449,8.287882805,4.516572475,1.159394741,-27.22142982,6.88439703,-26.57775307
731,1486928093,97.76327515,-63.2653923,29.30973816,8.003643036,3.890617609,0.505090058,-20.14209366,4.472056389,-23.14667892
732,1486944760,96.7798233,-62.71432495,29.86673737,8.006451607,3.827305794,0.220569268,-27.59976387,10.16207504,-33.15694046
733,1486961427,95.15142059,-62.02100754,30.85693741,6.487543583,5.480422974,2.365853071,-43.43318176,22.37130737,-42.67898178
734,1486978094,93.66111755,-61.56417847,31.39491081,5.290611744,6.244028568,2.208423376,-59.33796692,12.38445663,-26.94004059
735,1486994761,92.682724,-61.42704773,31.43019867,5.731780529,5.1799016,-0.591168821,-55.21255112,-0.176902428,-6.703665257
736,1487011428,91.47014618,-61.17036057,31.61955452,6.582348824,3.172399998,-1.664852858,-61.15662003,4.167768478,-14.01767159
737,1487028095,90.15563965,-60.69677734,32.07975769,6.205434322,4.368999958,0.706701279,-53.10486603,12.28855705,-27.03120613
738,1487044762,89.15120697,-60.4184761,32.31181717,6.38020277,5.537247181,0.838170886,-46.50598145,6.221556664,-15.08769131
739,1487061429,88.41236115,-60.25248718,32.35242844,6.53938818,5.44773674,0.218511447,-40.58148575,0.690996289,-8.358504295
740,1487078096,87.64422607,-59.94275284,32.29980087,6.605291843,5.55295372,-0.300498486,-47.19354248,-1.658545852,-17.05091667
741,1487094763,86.79994202,-59.54166412,32.35897446,6.806527138,5.424679756,-0.457343757,-45.95948792,2.229618788,-22.3706665
742,1487111430,86.00164795,-59.06056595,32.47429657,7.057171822,5.593856812,0.227737412,-40.31337738,4.619032383,-27.00666809
743,1487128097,85.66059875,-58.70956039,32.3858223,6.432651043,5.802286625,0.177877247,-23.37508965,-1.924743056,-19.62180519
744,1487144764,85.86528015,-58.60554504,32.12885666,6.800762653,4.355116367,-0.727209985,0.746175051,-8.252921104,-5.231235981
745,1487161431,86.19937897,-58.52177811,32.01284027,7.010932446,3.901313305,-0.856180668,15.7387867,-3.98534584,-3.680720568
746,1487178098,86.63844299,-58.46889114,32.04692841,7.685445309,4.056340218,0.075342566,29.71690941,0.55620718,-1.514643908
747,1487194765,87.07952881,-58.4949646,32.16383362,8.335401535,4.695379257,0.525300086,34.07997513,2.869043827,3.343200922
748,1487211432,87.37371063,-58.57863235,32.37515259,8.394992828,5.147784233,0.699923038,30.0954113,5.658838272,6.914390564
749,1487228099,87.36323547,-58.71007919,32.73749924,8.468240738,5.834473133,1.210930824,19.56857872,10.22966862,9.97587204
750,1487244766,86.99221039,-58.87673569,33.33511734,8.517774582,5.832571507,1.64341867,10.03684139,17.35046005,12.48037434
751,1487261433,86.34907532,-59.0254364,34.0982933,8.60906601,5.45354557,1.305202961,2.278177977,22.34186745,11.85367584
752,1487278100,85.1315155,-59.12176895,34.98052979,9.327320099,5.796339512,2.261945248,-26.01515961,25.97774506,9.361820221
753,1487294767,82.50739288,-59.10546494,36.00283813,9.231080055,5.980994225,3.732135534,-103.1721878,30.68127823,3.991594076
754,1487311434,78.27645111,-59.22452927,37.15551758,9.235157013,5.016903877,4.554270267,-192.8351288,33.02115631,14.53254223
755,1487328101,73.83825684,-59.62345505,38.23257828,9.400568962,2.339735031,1.854463458,-209.0180817,25.3820076,32.71836853
756,1487344768,70.03348541,-60.25741196,39.4318924,8.870765686,1.379889965,2.09450531,-164.370163,21.71281624,48.89533615
757,1487361435,66.38476563,-60.84653091,40.63208771,8.095282555,2.878825665,1.214250565,-154.5781403,18.98974991,47.50415039
758,1487378102,62.79548264,-61.35078812,41.63901901,7.603024483,2.401875734,1.509329796,-160.8292084,12.63390446,41.39302444
759,1487394769,59.56105423,-61.86558533,42.59793091,7.184252262,2.024420977,1.615624666,-141.8168793,8.318750381,41.78259659
760,1487411436,56.93066025,-62.39646912,43.79145432,8.040498734,1.788562536,2.094512463,-92.88812256,10.94313812,46.22447586
761,1487428103,54.70045471,-62.98787689,45.46773148,8.070082664,1.430120945,2.223039627,-42.81092453,17.47803688,56.79311752
762,1487444770,52.61805725,-63.66970444,47.57252121,7.315540314,1.542123079,2.417054892,-10.46381664,20.66140938,68.05013275
763,1487461437,50.63014221,-64.44976044,50.05749893,6.78279686,1.485597134,1.164610147,16.43477821,21.32154274,78.67927551
764,1487478104,49.40503311,-65.47847748,53.01860046,5.891569138,-0.848002315,-0.531959295,89.09681702,17.20226479,97.09680939
765,1487494771,49.6024437,-66.56037903,56.03960419,5.154908657,0.418509722,-2.794854403,179.0872192,13.12879658,98.69523621
766,1487511438,50.50667953,-67.6217041,58.45713043,4.147012711,7.034246445,-2.779241323,189.4897614,1.67430222,86.57738495
767,1487528105,51.19353867,-68.66840363,59.56351089,3.449645281,12.26642609,-2.950718641,104.4535141,-21.2022934,65.83489227
768,1487544772,52.27192307,-69.7256012,58.92059326,3.6825912,12.57842827,-2.990151167,30.277174,-50.73019791,42.88395691
769,1487561439,55.02575302,-70.56777954,56.42015839,5.539662361,11.69410419,-3.017601013,25.75314713,-71.64272308,12.0965662
770,1487578106,59.71960831,-71.0915451,52.05595779,8.183979988,13.07584,-0.340623856,35.92237473,-89.97442627,-18.26421547
771,1487594773,64.83691406,-71.25298309,46.55197144,10.94362545,12.63291836,3.168100119,-3.898147345,-99.43338013,-39.32639694
772,1487611440,69.1473999,-71.04611206,41.23311234,13.21039772,10.0265522,3.534047604,-41.75267029,-90.6569519,-50.00790405
773,1487628107,72.4280014,-70.46385956,37.06564331,13.82115173,7.478929996,4.158908367,-37.59394455,-66.95468903,-58.37721634
774,1487644774,74.61238861,-69.57035065,34.5318222,14.28627586,5.206431389,4.646037102,-10.17172146,-35.25582504,-64.420784
775,1487661441,76.05770111,-68.36040497,33.67633438,15.09895229,4.467556477,4.992461681,40.45381165,-0.100756444,-73.18811035
776,1487678108,77.13402557,-67.0890274,33.75330353,15.2679615,4.342960358,3.94390893,70.48853302,18.71365356,-72.10330963
777,1487694775,77.534935,-65.75876617,34.57439804,13.89003944,2.71232152,2.528237343,70.84336853,36.04241943,-71.86616516
778,1487711442,77.68993378,-64.42978668,35.67670441,11.96650791,1.347015738,3.063476563,70.92565155,43.6223526,-70.23698425
779,1487728109,77.76793671,-63.28567886,36.80437851,11.03823853,0.77164191,2.422231674,67.04646301,43.01963043,-59.08261108
780,1487744776,77.83419037,-62.35197067,37.9525032,9.6795187,0.320397377,1.34514308,66.8814621,41.88710403,-46.46748352
781,1487761443,78.10351563,-61.58590317,39.11474609,8.912575722,-0.628811061,0.59246242,79.34377289,40.92311478,-36.50260925
782,1487778110,78.67440796,-61.03229523,40.01979065,7.753265858,-1.205250263,-0.247182325,83.51515198,31.5083046,-25.68100357
783,1487794777,79.61806488,-60.82974243,40.50091934,7.503497124,-1.331709027,-0.498264253,83.47834015,15.35553741,-7.705578804
784,1487811444,80.89609528,-61.01107407,40.55886459,7.955683708,-0.670954466,0.57901895,81.35097504,-0.880745769,12.58352566
785,1487828111,82.12303925,-61.46393204,40.07278061,8.645386696,0.589814126,0.963915944,49.6819191,-18.59766006,26.36040878
786,1487844778,82.91101837,-62.03393555,39.26929092,9.393777847,-0.159149826,0.478131443,6.444722176,-27.78991508,32.48268509
787,1487861445,83.61739349,-62.73112106,38.34094238,10.21298313,-0.041095436,1.944998741,-5.336409569,-31.26038933,40.0452919
788,1487878112,84.37261963,-63.65252304,37.29309464,10.15395832,1.106608152,2.710144758,-9.169346809,-34.70590591,53.52854156
789,1487894779,84.99567413,-64.72466278,36.27626038,9.816819191,2.331418276,1.994874001,-15.90748215,-33.14595413,63.09169388
790,1487911446,85.5605545,-65.84790039,35.51134491,9.839380264,2.054504395,1.074061275,-6.174086571,-25.41618347,67.08158112
791,1487928113,85.97974396,-66.97820282,35.28523636,8.927052498,2.999751329,1.451891422,14.34791374,-11.1660614,68.71990967
792,1487944780,86.0747757,-68.01152039,35.55387115,8.607559204,4.992483616,1.128863096,22.22021675,1.101837516,63.76420212
793,1487961447,85.72138214,-69.01065063,36.19842911,8.238695145,6.404430866,0.359639168,16.4036541,9.082283974,62.2999115
794,1487978114,85.3265152,-69.93886566,36.7300415,8.014501572,6.633374691,-1.282524705,7.808908463,6.045426846,57.89595032
795,1487994781,84.83886719,-70.5806427,37.15222549,7.829409599,8.034836769,-1.832298756,-3.794152737,4.476114273,40.61643219
796,1488011448,84.79585266,-70.99971008,37.10552597,7.801253796,7.893006802,-2.134996653,-3.601403713,-3.921793938,26.49452019
797,1488028115,85.66385651,-71.28997803,36.47416306,7.770067692,7.000213623,-2.282793045,17.86795807,-14.36207676,17.89139366
798,1488044782,87.60974884,-71.48649597,35.22822571,8.31896019,6.431907177,-2.170066118,47.53610992,-25.20541573,11.9426651
799,1488061449,90.21781921,-71.58437347,33.61832047,8.83960247,6.511145115,-1.44512856,66.49743652,-31.37848091,6.875617504
800,1488078116,92.94258881,-71.5510788,31.85821915,9.086241722,6.681535721,-1.410880804,64.94068909,-34.10068512,0.516553879
801,1488094783,95.66173553,-71.33557892,29.94688225,9.159548759,6.584322453,-1.721971393,56.07012177,-38.01979065,-8.546592712
802,1488111450,98.32621765,-70.91617584,27.93260002,9.121611595,6.391070366,-2.150864363,47.152565,-42.51314163,-18.59458923
803,1488128117,100.8923416,-70.30277252,25.94528961,9.049877167,6.022730827,-1.649611235,43.13924408,-45.80684662,-28.04816246
804,1488144784,103.2590561,-69.54366302,24.07449722,9.226213455,5.476881504,-1.043710589,38.22463989,-47.82995987,-34.83583069
805,1488161451,105.4558945,-68.66158295,22.33873558,9.49518013,5.143906116,-0.850890994,36.16503143,-49.73096466,-40.41450882
806,1488178118,107.4804688,-67.66482544,20.77666473,9.538220406,4.85080862,-0.878093183,36.11902618,-51.00396729,-45.8158226
807,1488194785,109.3880386,-66.55955505,19.30412865,9.35958004,4.738340855,-1.183594823,34.70649719,-54.18977737,-50.39748383
808,1488211452,111.1118393,-65.3532486,17.87338829,9.233994484,4.724320889,-1.467265606,26.67565155,-58.4835968,-54.14268875
809,1488228119,112.5702591,-64.06681061,16.49665642,9.134210587,4.602340221,-1.514859557,14.46606636,-62.08908463,-56.86152649
810,1488244786,113.7646027,-62.74608612,15.13909245,9.118227959,4.314620495,-1.490556121,0.473834664,-65.31930542,-56.85338593
811,1488261453,114.738205,-61.4249115,13.79844666,9.405036926,4.127960205,-1.125804663,-11.01411247,-67.5151062,-55.15273285
812,1488278120,115.5084457,-60.11801529,12.44227695,9.689293861,4.015717983,-0.866200566,-23.14626694,-69.89421844,-52.47286224
813,1488294787,116.0019531,-58.86309814,11.09281349,9.501607895,3.652123213,-0.642736435,-38.49415207,-70.38153076,-48.30577087
814,1488311454,116.140007,-57.70065308,9.844744682,9.0418787,3.150577784,-0.533522189,-53.76601028,-66.67214966,-43.70428085
815,1488328121,115.9307938,-56.64154816,8.849751472,8.834387779,2.942412376,-0.452753305,-61.06509018,-57.64593124,-41.25666428
816,1488344788,115.5843811,-55.74888229,8.051791191,9.384520531,3.007390499,-0.191076726,-58.91630554,-47.9549942,-35.03697586
817,1488361455,115.1929169,-55.09898376,7.434767723,9.67031002,2.635129452,-0.191400021,-52.32178879,-36.41041183,-24.60227776
818,1488378122,114.8338165,-54.66381454,7.057139397,9.541826248,2.460838079,-0.290758938,-38.43420792,-23.58392334,-16.54555893
819,1488394789,114.5563354,-54.44086075,6.930915833,9.310314178,2.165664673,-0.646222532,-21.17572403,-10.33202553,-8.727655411
820,1488411456,114.4468842,-54.41732788,7.063465118,8.986561775,1.953453183,-0.805745184,1.540066004,2.85445857,-1.627450109
821,1488428123,114.4970703,-54.59229279,7.392855167,8.604980469,2.440269232,-0.710919499,20.73687172,14.00822067,6.365667343
822,1488444790,114.5858536,-54.94487762,7.871197224,8.64600563,2.976948023,-0.649036765,30.40306854,23.04750633,13.91895676
823,1488461457,114.7184525,-55.45644379,8.464697838,8.78440094,3.2202847,-0.566167057,38.82529831,30.45682907,20.96538544
824,1488478124,114.9301605,-56.12340927,9.121928215,8.758735657,3.428105831,-0.549280763,46.93988419,36.09165192,28.54812431
825,1488494791,115.2360306,-56.92351913,9.788612366,8.737121582,3.466025114,-0.726225197,53.33730316,39.48677063,35.65982437
826,1488511458,115.6165771,-57.84021378,10.44688797,8.604315758,3.561674356,-0.826610327,57.7213707,41.98188019,42.0606575
827,1488528125,116.0198746,-58.83721161,11.09362316,8.431779861,3.929719925,-0.666373789,58.83972549,43.51379395,46.50539017
828,1488544792,116.2933731,-59.90024567,11.7731266,8.483075142,4.161062241,-0.677659631,53.10336304,45.87520599,49.61796951
829,1488561459,116.4950409,-61.0113945,12.49629211,8.652742386,4.406315327,-0.658912599,51.45724106,47.90315247,51.73611832
830,1488578126,116.5453491,-62.154953,13.31260014,8.885140419,4.568679333,-0.915062726,47.70007706,50.57902145,52.51640701
831,1488594793,116.5166779,-63.30226135,14.2292223,9.22527504,4.672329426,-1.219812512,48.76771927,52.37281418,51.8657608
832,1488611460,116.3342667,-64.43318939,15.28596401,9.42593956,5.038724422,-1.538642764,47.57215118,54.2771759,49.88103104
833,1488628127,115.9090729,-65.49744415,16.51879883,9.347928047,5.534031868,-1.768433332,43.10488892,55.28483582,45.09595108
834,1488644794,115.1437378,-66.45844269,17.8267231,9.291654587,6.020526409,-2.21009016,27.35299492,52.73987579,39.81697464
835,1488661461,114.1360321,-67.2129364,19.0641613,9.278264999,5.926624775,-2.455609083,9.393159866,44.49020004,30.53338432
836,1488678128,112.7862396,-67.83686066,20.53911591,9.330533028,5.179711342,-2.197399139,2.377597094,45.01541138,22.44699097
837,1488694795,111.6716232,-68.21310425,21.65216827,8.804556847,5.293529034,-3.816076517,-3.353874683,30.75812912,13.02551746
838,1488711462,111.8844757,-68.13044739,21.22720146,8.92250824,4.688634396,-5.070628643,-9.303442955,-11.53390121,0.503469229
839,1488728129,113.1437378,-67.64230347,19.9905014,8.959340096,4.27483511,-6.54957056,8.41127491,-37.87286758,-14.76034927
840,1488744796,114.5742111,-67.18498993,19.05601692,8.988502502,3.426375389,-6.62261343,35.67684555,-31.59813309,-14.78569317
841,1488761463,115.2911911,-67.01568604,18.65101242,8.788854599,3.442984343,-5.382790089,22.2567997,-13.61066723,-3.626696825
842,1488778130,115.4791412,-67.03421021,18.66473198,9.140227318,3.613092661,-2.764443636,13.67127419,0.048536099,2.4587183
843,1488794797,115.2403717,-67.12059021,18.98609734,9.018313408,3.587935448,-1.974552393,5.070407391,8.299977303,3.059591532
844,1488811464,114.659996,-67.14769745,19.63207245,9.147708893,3.732486963,-2.158295155,2.526502371,13.63825893,-3.283364296
845,1488828131,114.0558548,-67.12643433,20.50235748,9.182977676,3.673646927,-2.181932211,13.50302696,17.25836945,-7.933157444
846,1488844798,113.8045959,-67.00878143,21.23251152,9.046195984,3.981865406,-1.484522343,26.90956306,12.04798698,-11.78050613
847,1488861465,113.7735977,-66.85387421,21.75742722,8.817320824,4.410665035,-0.796970427,28.75589943,6.851331234,-11.88574886
848,1488878132,113.9057693,-66.70887756,22.06253624,8.663884163,4.113669872,-0.477806747,26.38916779,2.38471508,-9.270215034
849,1488894799,114.0458832,-66.599617,22.29754639,8.608998299,3.948875666,-0.343486041,22.98737907,1.731601357,-6.652700901
850,1488911466,114.1127701,-66.52748108,22.52927589,8.592999458,3.869491816,-0.505557954,18.40044403,2.559570074,-4.59559679
851,1488928133,114.1221695,-66.48249054,22.76890373,8.626091003,3.83934617,-0.612122357,15.37967205,3.394748449,-3.191082478
852,1488944800,114.091095,-66.46073914,23.01005936,8.692913055,3.941014528,-0.685905576,13.02861118,3.995288849,-1.932242155
853,1488961467,114.0351868,-66.45721436,23.25069618,8.698698044,4.122864723,-0.743186116,11.50899506,4.424724579,-0.924420536
854,1488978134,113.9349136,-66.47054291,23.51952362,8.77384758,4.098902702,-0.774850428,10.39425278,5.446235657,-0.261576235
855,1488994801,113.8735809,-66.48748016,23.80880356,8.880075455,3.808017254,-1.205509186,13.85619926,5.970683575,-0.248769924
856,1489011468,113.9024582,-66.49015808,24.08846474,8.943583488,3.671171665,-1.645380139,18.74388504,5.408679008,-0.934704661
857,1489028135,114.0941696,-66.45468903,24.30321693,8.959466934,3.653865814,-1.982585669,24.93671989,3.058380842,-2.40236783
858,1489044802,114.4141083,-66.38961029,24.47746849,9.02762413,3.622965574,-2.189079762,30.39621353,1.438311338,-3.643476009
859,1489061469,114.7919617,-66.30992126,24.65870857,8.986585617,3.513259888,-2.304721594,34.25729752,1.212010741,-4.533473492
860,1489078136,115.1358032,-66.24777222,24.88142586,8.98706913,3.445658922,-2.262898207,34.48851013,2.545042753,-4.017606735
861,1489094803,115.3204651,-66.21929169,25.15765381,9.00808239,3.572162151,-2.075324297,27.87337112,4.566680908,-2.76188302
862,1489111470,115.3544617,-66.22537994,25.42885017,8.973045349,3.640453815,-1.848828793,18.55848885,5.342893124,-0.848684371
863,1489128137,115.2640228,-66.26063538,25.659132,8.975830078,3.682308197,-1.656275511,8.84568119,5.196652412,1.163367629
864,1489144804,115.1086197,-66.3115387,25.86714363,8.990039825,3.680854321,-1.452188134,3.732295513,5.10087204,2.257477999
865,1489161471,114.9704971,-66.34844208,26.00696373,9.064032555,3.722735405,-1.367950916,1.025110006,3.244860649,2.210222483
866,1489178138,114.9018936,-66.38221741,26.08473206,9.008610725,3.833584547,-1.234648466,1.782541513,1.803082824,2.682353973
867,1489194805,114.8653412,-66.40480042,26.11899567,8.939439774,3.902372599,-1.223657012,1.315032959,0.563261688,2.516448021
868,1489211472,114.8159714,-66.4163208,26.13885307,8.870557785,3.96446538,-1.221276522,-0.249461263,-0.036235563,2.066125154
869,1489228139,114.764595,-66.41578674,26.1298008,8.844918251,4.012630463,-1.225545526,-1.957226634,-0.976797938,1.701208472
870,1489244806,114.7481918,-66.40177917,26.06794167,8.84992218,3.999516487,-1.313836932,-2.761734724,-2.472144604,1.501865029
871,1489261473,114.7506332,-66.37158203,25.98085594,8.842075348,3.974436045,-1.45525372,-3.020896435,-3.436039925,0.878899813
872,1489278140,114.7557068,-66.3282547,25.88758087,8.836353302,3.948441029,-1.566423297,-3.20502615,-3.906122923,0.230296612
873,1489294807,114.7590485,-66.280159,25.79342842,8.842017174,3.927815437,-1.671683431,-3.350122213,-4.051487923,-0.018255454
874,1489311474,114.7670517,-66.23622131,25.69953728,8.860712051,3.893482924,-1.784973383,-3.052758217,-3.945194244,0.209422246
875,1489328141,114.7804031,-66.20042419,25.61187172,8.875799179,3.867195368,-1.82894969,-2.390017033,-3.605659485,0.594457924
876,1489344808,114.7921219,-66.17473602,25.5336132,8.901288986,3.846822023,-1.823219657,-1.972952843,-3.145041466,1.054769635
877,1489361475,114.7815475,-66.15858459,25.49027824,8.895412445,3.825268507,-1.774742007,-1.390904069,-2.136208057,1.220803857
878,1489378142,114.7329025,-66.15344238,25.48639107,8.877786636,3.873051643,-1.664668441,-1.509516597,-0.988771915,1.42022419
879,1489394809,114.6679077,-66.15571594,25.50579071,8.882831573,3.86729598,-1.638697386,-1.214368463,-0.290659308,1.591880441
880,1489411476,114.6052094,-66.16765594,25.54021835,8.877080917,3.896939754,-1.597385287,-0.247809246,0.281598777,1.965620637
881,1489428143,114.5577316,-66.18411255,25.57745743,8.834000587,3.945939541,-1.53493154,0.814214945,0.455035269,2.19251132
882,1489444810,114.5279007,-66.19835663,25.61022758,8.838237762,3.977073669,-1.516961217,1.630312443,0.298157424,2.117734671
883,1489461477,114.5177383,-66.20928192,25.63482475,8.848639488,4.005664349,-1.528369784,2.361670256,0.032976355,2.021546364
884,1489478144,114.5353165,-66.21362305,25.63491821,8.862640381,4.00710392,-1.52222681,2.680599451,-0.672173262,1.911847234
885,1489494811,114.5847549,-66.21072388,25.60562134,8.868706703,3.974932671,-1.546182513,2.979230881,-1.502472997,1.815223336
886,1489511478,114.6439209,-66.20445251,25.56917953,8.858271599,3.95695734,-1.604125142,3.169046879,-1.745691419,1.70768857
887,1489528145,114.687767,-66.19734955,25.54362106,8.844417572,3.930479765,-1.623668313,2.846275091,-1.528392911,1.556855083
888,1489544812,114.7152252,-66.19104767,25.53351784,8.855459213,3.893366575,-1.617529631,2.713844538,-1.168777823,1.445657611
889,1489561479,114.7463074,-66.1847229,25.52053833,8.851092339,3.880868912,-1.610705137,2.769846916,-1.233411431,1.478749156
890,1489578146,114.7744827,-66.17895508,25.50554466,8.87434864,3.88713336,-1.606566191,2.488875628,-1.265862823,1.529692769
891,1489594813,114.7770844,-66.17730713,25.50308609,8.87627697,3.906996965,-1.606353998,1.63770175,-0.886039376,1.632873654
892,1489611480,114.7648392,-66.17918396,25.50628853,8.880458832,3.930481434,-1.619743586,1.062901497,-0.675797522,1.765137792
893,1489628147,114.7543411,-66.17757416,25.49947548,8.88214016,3.93766427,-1.578603983,0.613078356,-0.984174371,1.681832194
894,1489644814,114.7532043,-66.1741333,25.47320175,8.890769958,3.938637018,-1.543383598,0.112106793,-1.459892035,1.780069947
895,1489661481,114.7523804,-66.16928101,25.44194984,8.861693382,3.916630507,-1.587884307,-0.144807801,-1.607203364,1.757300258
896,1489678148,114.7423706,-66.163414,25.42156219,8.829244614,3.906289101,-1.623004436,-0.101496734,-1.395258307,1.595735312
897,1489694815,114.714653,-66.15898132,25.42004967,8.82669735,3.90370965,-1.635679364,-0.126341045,-0.94511497,1.483461857
898,1489711482,114.685997,-66.15828705,25.42440987,8.868851662,3.918189049,-1.621614099,0.138078079,-0.722694397,1.629313707
899,1489728149,114.6647415,-66.1650238,25.4355278,8.85735321,3.91093874,-1.628076673,0.950551331,-0.387001514,1.972510815
900,1489744816,114.6619949,-66.17528534,25.45398331,8.8745718,3.928509712,-1.644747138,2.467757702,-0.139467523,2.089701653
901,1489761483,114.6857071,-66.18533325,25.48543358,8.896286011,3.917059422,-1.737212777,4.768790722,0.141177222,1.948729873
902,1489778150,114.7273026,-66.19539642,25.54310608,8.887138367,3.924569607,-1.729472637,7.281295776,0.719909072,1.68742919
903,1489794817,114.7867279,-66.2020874,25.60707283,8.859022141,3.915346861,-1.644032121,8.693529129,0.775322199,1.442136049
904,1489811484,114.846283,-66.20522308,25.67025757,8.856253624,3.893769264,-1.661895156,8.662739754,0.66666019,1.256226182
905,1489828151,114.8924408,-66.20939636,25.7247982,8.876953125,3.872942924,-1.606547117,7.381247997,0.501804054,1.403550506
906,1489844818,114.9144211,-66.21633911,25.77490044,8.861323357,3.877107859,-1.582587719,5.689337254,0.473169088,1.60011518
907,1489861485,114.9294052,-66.22371674,25.80338287,8.916576385,3.883037806,-1.535135746,4.07650423,0.009758439,1.849223971
908,1489878152,114.9681931,-66.22543335,25.78440857,8.919517517,3.920079947,-1.550389051,2.904787779,-1.178062558,2.025324345
909,1489894819,115.0214081,-66.21935272,25.7252903,8.913533211,3.917417765,-1.556323051,1.566126823,-2.258354902,2.013990641
910,1489911486,115.0857925,-66.20457458,25.63949966,8.925559044,3.895228863,-1.570073247,0.772287011,-3.067716599,1.8184762
911,1489928153,115.1612244,-66.17980194,25.54027939,8.889248848,3.870019913,-1.585281968,0.693976164,-3.618863821,1.423707724
912,1489944820,115.245224,-66.15151978,25.42948914,8.88296032,3.895457029,-1.628097296,0.576490581,-3.968168736,1.358830571
913,1489961487,115.3324051,-66.1233902,25.32153893,8.888757706,3.870493412,-1.652893424,0.924208581,-3.906736851,1.345102072
914,1489978154,115.4213486,-66.09609222,25.24022293,8.870940208,3.882970572,-1.709183693,2.496815681,-3.30573535,1.117520571
915,1489994821,115.5232925,-66.06526947,25.18270493,8.854156494,3.888370514,-1.663066864,4.578501225,-2.87499404,0.690006256
916,1490011488,115.6186981,-66.03382111,25.14682388,8.820842743,3.853837252,-1.676455617,5.374287605,-2.421981812,0.433699876
917,1490028155,115.6816483,-66.00255585,25.14461136,8.833654404,3.884396553,-1.677853942,5.276677608,-1.680186868,0.091795921
918,1490044822,115.7189102,-65.97658539,25.15640831,8.817025185,3.918316364,-1.617352366,4.49801302,-1.234641075,0.237045556
919,1490061489,115.7325821,-65.9628067,25.16539192,8.83737278,3.921532154,-1.589272022,2.930963516,-0.98386699,0.925373971
920,1490078156,115.7291031,-65.95548248,25.16494179,8.84002018,3.906599522,-1.58277142,1.382855296,-1.026012778,1.38030684
921,1490094823,115.7180328,-65.95244598,25.16206741,8.86428833,3.887599468,-1.585061431,0.79708004,-0.970561266,1.638162613
922,1490111490,115.7097321,-65.94922638,25.16098595,8.858631134,3.8808465,-1.629021525,1.057612419,-0.937840998,1.614330053
923,1490128157,115.7109451,-65.94309235,25.15951347,8.845022202,3.913974762,-1.575918436,1.605250478,-1.024975419,1.464534163
924,1490144824,115.7241287,-65.93265533,25.14983177,8.858006477,3.909262657,-1.640945077,1.878665805,-1.32132709,1.319911957
925,1490161491,115.7289352,-65.92060089,25.14829254,8.853366852,3.89466095,-1.687256694,1.818002343,-1.186130524,1.150996327
926,1490178158,115.7231293,-65.90963745,25.14489937,8.851547241,3.90369153,-1.687645555,1.08514595,-1.200409651,1.227386117
927,1490194825,115.7049255,-65.9021225,25.13916397,8.878292084,3.89834404,-1.720046639,0.20815438,-1.16210568,1.44400537
928,1490211492,115.6858826,-65.89639282,25.13054085,8.870308876,3.920119286,-1.689715028,0.003073524,-1.180982232,1.572670698
929,1490228159,115.6770706,-65.88877869,25.11695671,8.867586136,3.940883398,-1.653936386,0.345912308,-1.340510964,1.526209474
930,1490244826,115.6746902,-65.87731934,25.10549164,8.84765625,3.913446188,-1.648602128,0.844629943,-1.395347714,1.299178362
931,1490261493,115.666687,-65.86286926,25.10630798,8.87457943,3.936727047,-1.662191749,1.181052566,-1.204302549,1.008307815
932,1490278160,115.6541214,-65.85215759,25.11522102,8.872588158,3.923068047,-1.652915478,1.349238396,-0.929196537,1.129110098
933,1490294827,115.6567535,-65.84802246,25.11646461,8.851112366,3.932715893,-1.673339486,1.840746284,-0.929849803,1.568995476
934,1490311494,115.6771622,-65.84716034,25.1088295,8.851495743,3.931363106,-1.664420843,2.424664259,-1.043390751,1.840400219
935,1490328161,115.7099457,-65.84520721,25.10044098,8.831624985,3.928278208,-1.670614481,3.1232512,-1.089058518,1.793593407
936,1490344828,115.7307281,-65.84020996,25.11001205,8.794674873,3.934295893,-1.69702518,3.382938385,-0.773125827,1.442097545
937,1490361495,115.7346497,-65.82957458,25.1254673,8.780276299,3.902223349,-1.685952544,2.696261883,-0.789428234,1.077180505
938,1490378162,115.7021332,-65.81846619,25.13787079,8.815327644,3.862043142,-1.695405245,0.345092714,-0.87087667,1.085555911
939,1490394829,115.6373291,-65.80518341,25.1706028,8.855438232,3.951515675,-1.695741892,-0.479962736,-0.477683216,0.753551185
940,1490411496,115.5896454,-65.79343414,25.20181465,8.852983475,3.972775459,-1.653675675,0.462526977,-0.470114708,0.855861247
941,1490428163,115.5725098,-65.78232574,25.22072029,8.862241745,3.990690231,-1.647700071,1.623601675,-0.728713334,1.024059653
942,1490444830,115.5722656,-65.7692337,25.22776794,8.839195251,3.961235285,-1.66689527,1.98296082,-1.045311928,1.047713161
943,1490461497,115.5684662,-65.75614929,25.24168587,8.8260746,3.953481197,-1.688216329,2.147522211,-0.89359504,0.978123426
944,1490478164,115.5678406,-65.74378204,25.25721359,8.81897831,3.931171179,-1.69564414,2.42915988,-0.840448737,0.999369144
945,1490494831,115.5554123,-65.73316956,25.28101349,8.835132599,3.907261133,-1.705978155,2.171777487,-0.610344291,1.011074066
946,1490511498,115.5441284,-65.72953033,25.30846214,8.836131096,3.926657915,-1.677182913,2.441210508,-0.34815982,1.351441264
947,1490528165,115.538414,-65.73003387,25.34058762,8.845443726,3.926832438,-1.71515882,3.030955553,-0.139390707,1.528360963
948,1490544832,115.5323792,-65.73033905,25.37764931,8.86515522,3.949822664,-1.699355006,3.284009457,-0.035082996,1.466493726
949,1490561499,115.5246353,-65.72901154,25.41871643,8.884853363,3.932144165,-1.688745141,3.397716999,0.013971728,1.339915633
950,1490578166,115.5249329,-65.72792053,25.45848846,8.879439354,3.902864933,-1.671088576,3.812758446,-0.009355039,1.365656495
951,1490594833,115.5380325,-65.72760773,25.48955917,8.886126518,3.917011976,-1.708232641,4.102821827,-0.184968516,1.504310727
952,1490611500,115.5480728,-65.72602844,25.51478958,8.888254166,3.918325424,-1.724026442,3.60204196,-0.348531276,1.498484015
953,1490628167,115.5335541,-65.72158051,25.54816628,8.860478401,3.932457447,-1.710753083,2.56745553,-0.242187306,1.261873603
954,1490644834,115.5060959,-65.712677,25.58058167,8.830245018,3.926118135,-1.739352226,1.738615632,-0.381648391,1.032627225
955,1490661501,115.4834442,-65.70090485,25.60716438,8.828968048,3.938249111,-1.66075635,1.709801316,-0.583924651,0.941625237
