PacketCounter,SampleTimeFine,Euler_X,Euler_Y,Euler_Z,Acc_X,Acc_Y,Acc_Z,Gyr_X,Gyr_Y,Gyr_Z,Velo_X,Velo_Y,Velo_Z,ANG_X,ANG_Y,ANG_Z
0,3558240490,35.2558,-4.413212,206.09683,-1.8436141,-0.3409093,1.4934597,-2.6858554,-0.23227507,1.9934046,0.0,0.0,0.0,0.0,0.0,0.0
1,3558257157,35.29413,-4.421055,206.05133,-1.5540385,-0.3286161,1.3697042,-2.6428585,-0.22013831,2.0291364,-0.025901,-0.005477,0.022828,-0.044048,-0.003669,0.033819
2,3558273824,35.334488,-4.4292946,206.00357,-1.2394266,-0.31522194,1.2352948,-2.5935075,-0.2101742,2.0673616,-0.046558,-0.010731,0.043416,-0.087273,-0.007172,0.068275
3,3558290491,35.37625,-4.437771,205.95422,-0.9043217,-0.30092257,1.0921733,-2.5384166,-0.20287389,2.1075568,-0.06163,-0.015746,0.061619,-0.12958,-0.010553,0.103401
4,3558307158,35.431686,-4.449085,205.88861,-0.45638084,-0.281768,0.90089035,-2.4652588,-0.18831015,2.1603527,-0.069236,-0.020442,0.076634,-0.170668,-0.013692,0.139407
5,3558323825,35.498108,-4.462696,205.80997,0.08561993,-0.2585563,0.6694722,-2.3761778,-0.16899055,2.223518,-0.067809,-0.024751,0.087792,-0.210271,-0.016509,0.176466
6,3558340492,35.55536,-4.4738274,205.74057,0.4429016,-0.24371985,0.5170188,-2.321901,-0.16200393,2.265172,-0.060427,-0.028813,0.096409,-0.248969,-0.019209,0.214219
7,3558357159,35.603256,-4.482441,205.68045,0.6017771,-0.23789361,0.4493804,-2.3054411,-0.16777527,2.2837217,-0.050397,-0.032778,0.103899,-0.287393,-0.022005,0.252281
8,3558373826,35.64981,-4.4903984,205.62091,0.6832628,-0.23565838,0.4148662,-2.3039153,-0.1798734,2.2929187,-0.039009,-0.036706,0.110813,-0.325792,-0.025003,0.290496
9,3558390493,35.68991,-4.496502,205.5675,0.61287785,-0.24034557,0.4452963,-2.3310256,-0.20279169,2.2842178,-0.028794,-0.040712,0.118235,-0.364642,-0.028383,0.328566
10,3558407160,35.73883,-4.5042458,205.50305,0.57844543,-0.24362901,0.46043038,-2.3537943,-0.22394824,2.279085,-0.019153,-0.044772,0.125909,-0.403872,-0.032115,0.366551
11,3558423827,35.79744,-4.513813,205.42651,0.59016705,-0.2450594,0.45591688,-2.3703573,-0.24282485,2.2786434,-0.009317,-0.048856,0.133508,-0.443378,-0.036162,0.404528
12,3558440494,35.85396,-4.5224648,205.35095,0.48977184,-0.25168437,0.49937534,-2.4091,-0.2696014,2.2647488,-0.001154,-0.053051,0.141831,-0.48353,-0.040655,0.442274
13,3558457161,35.91176,-4.530941,205.27264,0.31608868,-0.2617889,0.57422066,-2.463254,-0.30170476,2.2418077,0.004114,-0.057414,0.151401,-0.524584,-0.045683,0.479637
14,3558473828,35.966904,-4.5401344,205.20181,0.23340416,-0.2667784,0.6108215,-2.4921687,-0.3130256,2.2243567,0.008004,-0.06186,0.161581,-0.56612,-0.0509,0.51671
15,3558490495,36.017624,-4.5498238,205.14099,0.23680878,-0.2667479,0.61133575,-2.495684,-0.30224293,2.211363,0.011951,-0.066306,0.17177,-0.607715,-0.055937,0.553566
16,3558507162,36.0681,-4.5600624,205.0827,0.27347183,-0.26466483,0.5980797,-2.488717,-0.27995872,2.1987185,0.016509,-0.070717,0.181738,-0.649194,-0.060603,0.590211
17,3558523829,36.11682,-4.571026,205.03024,0.38306522,-0.25839707,0.55427,-2.4609897,-0.23906285,2.189695,0.022893,-0.075024,0.190976,-0.69021,-0.064587,0.626706
18,3558540496,36.16304,-4.5814934,204.98102,0.42784595,-0.25481975,0.53843975,-2.4436746,-0.19735783,2.170908,0.030024,-0.079271,0.19995,-0.730938,-0.067876,0.662888
19,3558557163,36.206924,-4.591442,204.9346,0.40121078,-0.25426188,0.5534048,-2.438298,-0.15553671,2.1416457,0.036711,-0.083509,0.209173,-0.771576,-0.070468,0.698582
20,3558573830,36.247314,-4.601589,204.89557,0.40442753,-0.2515137,0.5562086,-2.4206343,-0.09841317,2.111124,0.043451,-0.087701,0.218443,-0.81192,-0.072108,0.733767
21,3558590497,36.28392,-4.6116447,204.86356,0.40730953,-0.24805865,0.55969644,-2.3973384,-0.029490173,2.0762784,0.050239,-0.091835,0.227771,-0.851876,-0.0726,0.768372
22,3558607164,36.32184,-4.62096,204.82382,0.40469646,-0.24702847,0.5639012,-2.3948205,-0.021644294,2.045507,0.056984,-0.095952,0.237169,-0.89179,-0.072961,0.802464
23,3558623831,36.361145,-4.6294823,204.77591,0.40696526,-0.24814436,0.5642233,-2.4128637,-0.080143034,2.0204809,0.063767,-0.100088,0.246573,-0.932004,-0.074297,0.836139
24,3558640498,36.398956,-4.6373253,204.72693,0.39509487,-0.25096372,0.5697863,-2.443596,-0.17291486,1.9949415,0.070352,-0.104271,0.256069,-0.972731,-0.077179,0.869388
25,3558657165,36.4364,-4.6442833,204.67316,0.3702078,-0.25622934,0.57950664,-2.4938045,-0.32028317,1.9714147,0.076522,-0.108541,0.265727,-1.014294,-0.082517,0.902245
26,3558673832,36.47,-4.650898,204.62466,0.36057568,-0.26080567,0.58265233,-2.5420098,-0.47606382,1.9471729,0.082532,-0.112888,0.275438,-1.056661,-0.090451,0.934698
27,3558690499,36.49922,-4.657139,204.5823,0.3648882,-0.2646566,0.5798507,-2.5876517,-0.63833296,1.9216957,0.088613,-0.117299,0.285102,-1.099789,-0.10109,0.966726
28,3558707166,36.526657,-4.6625175,204.53818,0.37047768,-0.26998025,0.57530236,-2.6473618,-0.8483297,1.8985713,0.094788,-0.121799,0.29469,-1.143912,-0.115229,0.998369
29,3558723833,36.55127,-4.6670876,204.4945,0.38328362,-0.27613616,0.56673574,-2.716815,-1.097171,1.8772222,0.101176,-0.126401,0.304136,-1.189192,-0.133515,1.029656
30,3558740500,36.57643,-4.665783,204.45792,0.38858986,-0.28052315,0.56251764,-2.7581718,-1.3012228,1.8429799,0.107652,-0.131076,0.313511,-1.235162,-0.155202,1.060372
31,3558757167,36.602585,-4.657955,204.42819,0.38465595,-0.28312355,0.5634208,-2.7697153,-1.458299,1.7949886,0.114063,-0.135795,0.322901,-1.281324,-0.179507,1.090288
32,3558773834,36.627335,-4.6459923,204.40399,0.38310146,-0.28472492,0.5636511,-2.7664287,-1.6027927,1.7398534,0.120448,-0.14054,0.332295,-1.327431,-0.20622,1.119286
33,3558790501,36.65161,-4.6283607,204.38696,0.38026905,-0.28463855,0.5652983,-2.7380536,-1.7131101,1.6736213,0.126786,-0.145284,0.341717,-1.373065,-0.234772,1.14718
34,3558807168,36.67389,-4.6077995,204.37167,0.38109303,-0.2849786,0.5647037,-2.7110434,-1.8495741,1.6056385,0.133138,-0.150034,0.351129,-1.418249,-0.265598,1.173941
35,3558823835,36.693863,-4.584347,204.3581,0.38718033,-0.28579018,0.5610931,-2.6863976,-2.015633,1.5364277,0.139591,-0.154797,0.360481,-1.463022,-0.299192,1.199548
36,3558840502,36.713043,-4.555195,204.3505,0.39335918,-0.2854071,0.55788755,-2.6418378,-2.1628916,1.4578812,0.146147,-0.159554,0.369779,-1.507053,-0.33524,1.223846
37,3558857169,36.73105,-4.520771,204.3479,0.4012289,-0.28424546,0.55406713,-2.5825958,-2.3042762,1.3719043,0.152834,-0.164291,0.379013,-1.550096,-0.373645,1.246711
38,3558873836,36.747223,-4.4907417,204.34415,0.4052534,-0.2838683,0.55065346,-2.5495336,-2.4226925,1.3010081,0.159588,-0.169022,0.388191,-1.592588,-0.414023,1.268394
39,3558890503,36.76172,-4.465542,204.33923,0.4043951,-0.28420815,0.5480945,-2.5436325,-2.5103261,1.2463444,0.166328,-0.173759,0.397326,-1.634982,-0.455862,1.289166
40,3558907170,36.774506,-4.440792,204.33542,0.40264225,-0.2847833,0.54508495,-2.5488167,-2.5837545,1.1985233,0.173039,-0.178505,0.406411,-1.677462,-0.498925,1.309141
41,3558923837,36.78546,-4.4190025,204.33127,0.39833164,-0.28596365,0.54198575,-2.5757036,-2.6360223,1.1636424,0.179678,-0.183271,0.415444,-1.72039,-0.542859,1.328535
42,3558940504,36.795242,-4.3936806,204.33157,0.39418983,-0.2863579,0.53870916,-2.594361,-2.6642616,1.1265409,0.186248,-0.188044,0.424422,-1.763629,-0.587263,1.347311
43,3558957171,36.803864,-4.364361,204.33667,0.39062023,-0.2858956,0.53510714,-2.603296,-2.6685042,1.0865531,0.192758,-0.192809,0.43334,-1.807017,-0.631738,1.36542
44,3558973838,36.810898,-4.336483,204.3428,0.38482094,-0.28556833,0.53153276,-2.6265302,-2.643029,1.056614,0.199172,-0.197568,0.442199,-1.850793,-0.675788,1.38303
45,3558990505,36.816437,-4.3086205,204.35107,0.3774233,-0.28506443,0.5279293,-2.657769,-2.5861404,1.0336998,0.205462,-0.202319,0.450998,-1.895089,-0.71889,1.400258
46,3559007172,36.82341,-4.281475,204.35986,0.37246227,-0.28370187,0.52363443,-2.6615314,-2.5283704,1.0191995,0.21167,-0.207047,0.459725,-1.939448,-0.76103,1.417245
47,3559023839,36.83203,-4.2558327,204.36853,0.36994553,-0.28150794,0.51864004,-2.637251,-2.4702904,1.0151324,0.217836,-0.211739,0.468369,-1.983402,-0.802202,1.434164
48,3559040506,36.84105,-4.2304115,204.37866,0.36838722,-0.27857193,0.51321316,-2.5974295,-2.3948987,1.019093,0.223976,-0.216382,0.476923,-2.026692,-0.842117,1.451149
49,3559057173,36.85132,-4.2056694,204.38965,0.36880207,-0.27471283,0.50718856,-2.5327804,-2.3092644,1.0322361,0.230123,-0.220961,0.485376,-2.068905,-0.880605,1.468353
50,3559073840,36.86107,-4.1825905,204.40146,0.3682232,-0.27055708,0.50097466,-2.470081,-2.1926036,1.0575234,0.23626,-0.22547,0.493726,-2.110073,-0.917148,1.485978
51,3559090507,36.87024,-4.161213,204.41415,0.36650658,-0.26609212,0.4945941,-2.4102752,-2.0420609,1.0953361,0.242368,-0.229905,0.501969,-2.150244,-0.951182,1.504234
52,3559107174,36.880447,-4.1415443,204.42728,0.36598492,-0.26083645,0.48770213,-2.3319082,-1.8731315,1.145646,0.248468,-0.234252,0.510097,-2.189109,-0.982401,1.523328
53,3559123841,36.891403,-4.12389,204.44064,0.3660345,-0.25490075,0.48038507,-2.2403994,-1.6802721,1.2095523,0.254569,-0.2385,0.518103,-2.226449,-1.010406,1.543487
54,3559140508,36.90393,-4.1087685,204.45065,0.36586952,-0.2515264,0.4743595,-2.1920938,-1.5212977,1.257452,0.260667,-0.242692,0.526009,-2.262984,-1.035761,1.564445
55,3559157175,36.91838,-4.096424,204.45673,0.36570168,-0.2509743,0.46975565,-2.1899025,-1.403216,1.2869346,0.266762,-0.246875,0.533838,-2.299482,-1.059148,1.585894
56,3559173842,36.93422,-4.086979,204.46048,0.36548042,-0.25178605,0.46582294,-2.210833,-1.2943273,1.3131568,0.272853,-0.251071,0.541602,-2.336329,-1.08072,1.60778
57,3559190509,36.951843,-4.0807533,204.46066,0.3650751,-0.25487548,0.46304345,-2.2702475,-1.2113411,1.3280439,0.278938,-0.255319,0.549319,-2.374166,-1.100909,1.629914
58,3559207176,36.9713,-4.0776253,204.45926,0.3655529,-0.2582234,0.4603393,-2.329773,-1.1234157,1.3493036,0.285031,-0.259623,0.556991,-2.412996,-1.119633,1.652402
59,3559223843,36.992645,-4.0778236,204.45612,0.3669424,-0.26174578,0.45766997,-2.3879004,-1.0283294,1.3782974,0.291147,-0.263985,0.564619,-2.452794,-1.136772,1.675374
60,3559240510,37.01631,-4.0817833,204.44916,0.3686266,-0.26727223,0.45600915,-2.477394,-0.9564079,1.3992198,0.297291,-0.26844,0.572219,-2.494084,-1.152712,1.698694
61,3559257177,37.04239,-4.0896873,204.43854,0.37085056,-0.27441832,0.455153,-2.5907009,-0.9016161,1.4158204,0.303472,-0.273014,0.579805,-2.537262,-1.167739,1.722291
62,3559273844,37.064575,-4.097622,204.43237,0.3714552,-0.27834195,0.45376754,-2.657368,-0.7940055,1.4392248,0.309663,-0.277653,0.587368,-2.581551,-1.180972,1.746278
63,3559290511,37.082382,-4.105427,204.431,0.37018967,-0.27883518,0.4518721,-2.674965,-0.6313456,1.4683423,0.315833,-0.2823,0.594899,-2.626134,-1.191494,1.77075
64,3559307178,37.098984,-4.115185,204.43057,0.36825943,-0.2779641,0.44998622,-2.6721263,-0.44329184,1.5002826,0.321971,-0.286933,0.602399,-2.670669,-1.198882,1.795755
65,3559323845,37.11264,-4.125942,204.43323,0.36505222,-0.27444574,0.44779086,-2.630287,-0.2117098,1.5374222,0.328055,-0.291507,0.609862,-2.714507,-1.20241,1.821379
66,3559340512,37.12729,-4.140339,204.43344,0.3616705,-0.2716093,0.4463482,-2.5994334,0.01448369,1.5691851,0.334083,-0.296034,0.617301,-2.757831,-1.202169,1.847532
67,3559357179,37.143173,-4.1586723,204.43079,0.3582039,-0.26963627,0.4457338,-2.5820496,0.2323739,1.5949765,0.340053,-0.300528,0.62473,-2.800865,-1.198296,1.874115
68,3559373846,37.156937,-4.1788597,204.42975,0.35356045,-0.26575902,0.4451623,-2.537171,0.48175293,1.621839,0.345946,-0.304957,0.632149,-2.843151,-1.190267,1.901146
69,3559390513,37.169357,-4.201557,204.42905,0.34795666,-0.2606719,0.44487834,-2.4751768,0.7521555,1.6472988,0.351745,-0.309302,0.639564,-2.884404,-1.177731,1.928601
70,3559407180,37.18631,-4.2253,204.42545,0.3443184,-0.25739944,0.4450283,-2.450105,0.93809634,1.6770495,0.357484,-0.313592,0.646981,-2.925239,-1.162096,1.956552
71,3559423847,37.207916,-4.249737,204.41913,0.34276772,-0.25588045,0.44554925,-2.4620516,1.0337856,1.7122158,0.363197,-0.317857,0.654407,-2.966273,-1.144866,1.985089
72,3559440514,37.231964,-4.276066,204.41077,0.34205437,-0.25513792,0.44655704,-2.492305,1.0816381,1.7481935,0.368898,-0.322109,0.66185,-3.007811,-1.126839,2.014226
73,3559457181,37.25995,-4.303829,204.39957,0.3429489,-0.2559175,0.44808006,-2.5546422,1.0526228,1.7866347,0.374614,-0.326374,0.669318,-3.050388,-1.109295,2.044003
74,3559473848,37.28766,-4.333477,204.38846,0.3434677,-0.2557331,0.44985867,-2.6068852,1.0175178,1.8257723,0.380338,-0.330636,0.676816,-3.093836,-1.092336,2.074433
75,3559490515,37.314896,-4.365101,204.3775,0.34350014,-0.254477,0.45191264,-2.647302,0.9786915,1.8651258,0.386063,-0.334877,0.684348,-3.137958,-1.076024,2.105518
76,3559507182,37.345108,-4.398098,204.36453,0.34470177,-0.25401247,0.45439935,-2.7087038,0.8748366,1.9069685,0.391808,-0.339111,0.691921,-3.183103,-1.061443,2.137301
77,3559523849,37.377396,-4.4325447,204.35016,0.34665966,-0.25380635,0.45727515,-2.7822726,0.7195274,1.9508405,0.397586,-0.343341,0.699542,-3.229474,-1.049451,2.169815
78,3559540516,37.40567,-4.4630165,204.33716,0.3471651,-0.25255355,0.45880747,-2.845521,0.608771,1.9803747,0.403372,-0.34755,0.707189,-3.276899,-1.039305,2.202821
79,3559557183,37.42975,-4.488819,204.32562,0.3462143,-0.25033385,0.45884085,-2.900237,0.5430891,1.9942403,0.409142,-0.351722,0.714836,-3.325236,-1.030254,2.236058
80,3559573850,37.45195,-4.5125694,204.31454,0.34457874,-0.2473906,0.45815706,-2.9511611,0.48492032,1.9997919,0.414885,-0.355845,0.722472,-3.374422,-1.022172,2.269388
81,3559590517,37.470642,-4.532627,204.30469,0.3416977,-0.24340343,0.45626068,-2.993082,0.45827276,1.9924115,0.42058,-0.359902,0.730076,-3.424307,-1.014534,2.302595
82,3559607184,37.49031,-4.5519066,204.29385,0.3392868,-0.23960462,0.4542005,-3.0478036,0.38953835,1.981924,0.426235,-0.363895,0.737646,-3.475104,-1.008042,2.335627
83,3559623851,37.511093,-4.5704994,204.28189,0.3374195,-0.23601031,0.45201468,-3.1160119,0.27431184,1.9687104,0.431859,-0.367829,0.74518,-3.527038,-1.00347,2.368439
84,3559640518,37.52942,-4.5853767,204.27063,0.33476067,-0.23172829,0.44872522,-3.1825736,0.16919464,1.9436975,0.437438,-0.371691,0.752659,-3.580081,-1.00065,2.400834
85,3559657185,37.546127,-4.597042,204.25961,0.3316698,-0.22700709,0.44452548,-3.2522035,0.057940662,1.9087139,0.442966,-0.375474,0.760068,-3.634284,-0.999684,2.432646
86,3559673852,37.5627,-4.608143,204.24747,0.33016872,-0.2238726,0.4427595,-3.3201113,-0.058751583,1.8877717,0.448469,-0.379205,0.767447,-3.689619,-1.000663,2.464109
87,3559690519,37.578827,-4.6183968,204.23422,0.33030033,-0.22242534,0.44361162,-3.384276,-0.17438835,1.8818557,0.453974,-0.382912,0.774841,-3.746024,-1.003569,2.495473
88,3559707186,37.59433,-4.6266823,204.2203,0.33135605,-0.22187948,0.44560528,-3.4503155,-0.3006953,1.8806257,0.459497,-0.38661,0.782268,-3.803529,-1.008581,2.526817
89,3559723853,37.609512,-4.63348,204.20535,0.33386993,-0.22279179,0.44964123,-3.5165274,-0.4357273,1.8904042,0.465061,-0.390323,0.789762,-3.862138,-1.015843,2.558324
90,3559740520,37.62245,-4.636242,204.1907,0.33632565,-0.22374454,0.4534948,-3.5817738,-0.5658827,1.8946202,0.470666,-0.394052,0.79732,-3.921834,-1.025274,2.589901
91,3559757187,37.633026,-4.6346397,204.17639,0.33867645,-0.22469339,0.45704556,-3.646451,-0.691645,1.8923166,0.476311,-0.397797,0.804937,-3.982608,-1.036801,2.62144
92,3559773854,37.64235,-4.63023,204.1615,0.34214878,-0.22684398,0.4621849,-3.7095609,-0.8175868,1.8971792,0.482013,-0.401578,0.81264,-4.044434,-1.050427,2.65306
93,3559790521,37.649933,-4.622303,204.1463,0.34644127,-0.22992265,0.46845722,-3.7708287,-0.94054633,1.9057097,0.487787,-0.40541,0.820448,-4.107281,-1.066103,2.684822
94,3559807188,37.655563,-4.616108,204.13669,0.34937286,-0.23188081,0.47250533,-3.8120599,-1.0359869,1.8945116,0.49361,-0.409275,0.828323,-4.170815,-1.083369,2.716397
95,3559823855,37.65927,-4.6122017,204.13312,0.3508892,-0.23268795,0.4742489,-3.8309631,-1.1008855,1.8629793,0.499458,-0.413153,0.836227,-4.234664,-1.101717,2.747447
96,3559840522,37.660706,-4.607464,204.13309,0.35182858,-0.23315066,0.4749782,-3.8356638,-1.1438386,1.8198024,0.505322,-0.417039,0.844143,-4.298592,-1.120781,2.777777
97,3559857189,37.659805,-4.603321,204.13828,0.35161972,-0.23274681,0.47381663,-3.8205705,-1.1569731,1.7588009,0.511182,-0.420918,0.85204,-4.362268,-1.140064,2.80709
98,3559873856,37.656876,-4.5969124,204.14517,0.35186958,-0.2330141,0.473212,-3.7957761,-1.1550925,1.6970255,0.517046,-0.424802,0.859927,-4.425531,-1.159316,2.835374
99,3559890523,37.65175,-4.587887,204.15366,0.3526535,-0.23403808,0.473274,-3.7613065,-1.1375042,1.6351184,0.522924,-0.428703,0.867815,-4.488219,-1.178274,2.862626
100,3559907190,37.64415,-4.5789146,204.16705,0.35267162,-0.23461238,0.47202587,-3.706782,-1.088955,1.5591706,0.528802,-0.432613,0.875682,-4.549999,-1.196423,2.888612
101,3559923857,37.634064,-4.5693245,204.18475,0.3522606,-0.23506925,0.46997428,-3.633726,-1.0112739,1.4726192,0.534673,-0.436531,0.883515,-4.610561,-1.213278,2.913156
102,3559940524,37.62593,-4.5621223,204.19998,0.3520565,-0.23510948,0.46847773,-3.5680945,-0.9465026,1.4147129,0.540541,-0.440449,0.891323,-4.670029,-1.229053,2.936735
103,3559957191,37.62007,-4.557949,204.21262,0.35195446,-0.23455727,0.46741438,-3.5105157,-0.89569783,1.3875767,0.546407,-0.444358,0.899113,-4.728538,-1.243981,2.959861
104,3559973858,37.614395,-4.554989,204.22556,0.35186672,-0.23377776,0.46646976,-3.4491405,-0.83902305,1.3749515,0.552271,-0.448254,0.906887,-4.786024,-1.257965,2.982777
105,3559990525,37.610077,-4.554226,204.23709,0.35192204,-0.23263949,0.46594644,-3.3904643,-0.7869259,1.3875523,0.558136,-0.452131,0.914653,-4.842532,-1.27108,3.005903
106,3560007192,37.6044,-4.554592,204.2522,0.3513975,-0.23100287,0.46452188,-3.3158522,-0.7091213,1.3989284,0.563993,-0.455981,0.922395,-4.897796,-1.282899,3.029218
107,3560023859,37.597153,-4.556057,204.27121,0.3502617,-0.22887301,0.4621377,-3.2237926,-0.6029304,1.4080017,0.569831,-0.459796,0.930097,-4.951526,-1.292948,3.052685
108,3560040526,37.59079,-4.560131,204.29025,0.34896278,-0.22618362,0.459692,-3.1288552,-0.4918325,1.4374659,0.575647,-0.463566,0.937759,-5.003674,-1.301145,3.076643
109,3560057193,37.584747,-4.5666695,204.31046,0.34732914,-0.22288561,0.4568863,-3.026745,-0.36869496,1.4821093,0.581436,-0.467281,0.945374,-5.05412,-1.30729,3.101345
110,3560073860,37.581085,-4.5720863,204.32983,0.34601688,-0.22053638,0.45516515,-2.9344125,-0.27281338,1.5087738,0.587203,-0.470957,0.95296,-5.103027,-1.311837,3.126491
111,3560090527,37.58026,-4.576336,204.34775,0.34511852,-0.21924984,0.45475626,-2.855174,-0.21063292,1.5173951,0.592955,-0.474611,0.960539,-5.150613,-1.315348,3.151781
112,3560107194,37.581116,-4.5812035,204.36597,0.34419346,-0.21823367,0.45476007,-2.7779727,-0.15845054,1.5205144,0.598692,-0.478248,0.968118,-5.196913,-1.317989,3.177123
113,3560123861,37.58432,-4.5858345,204.3837,0.34342384,-0.21790624,0.45560694,-2.7081225,-0.12820572,1.5098372,0.604416,-0.48188,0.975711,-5.242048,-1.320126,3.202287
114,3560140528,37.58943,-4.592884,204.40125,0.34253597,-0.2173267,0.45667887,-2.6392317,-0.10248399,1.5110283,0.610125,-0.485502,0.983322,-5.286035,-1.321834,3.227471
115,3560157195,37.596466,-4.6026344,204.41858,0.34148693,-0.21641955,0.45791626,-2.5707219,-0.07994443,1.5255165,0.615816,-0.489109,0.990954,-5.32888,-1.323166,3.252896
116,3560173862,37.60643,-4.613125,204.43506,0.34056854,-0.21601173,0.46001363,-2.5107067,-0.08021605,1.5335987,0.621492,-0.492709,0.998621,-5.370725,-1.324503,3.278456
117,3560190529,37.619293,-4.625004,204.45059,0.33972168,-0.21590039,0.46285272,-2.4581413,-0.1002149,1.540885,0.627154,-0.496307,1.006335,-5.411694,-1.326173,3.304137
118,3560207196,37.628647,-4.6346016,204.46887,0.3391838,-0.21562925,0.4641738,-2.4272597,-0.10843855,1.5524693,0.632807,-0.499901,1.014071,-5.452148,-1.32798,3.330011
119,3560223863,37.634018,-4.6413918,204.49017,0.33902454,-0.21526456,0.4638691,-2.4211829,-0.10533458,1.5666101,0.638457,-0.503489,1.021802,-5.492501,-1.329736,3.356121
120,3560240530,37.638687,-4.6476097,204.5126,0.33909225,-0.2148901,0.46294928,-2.4330971,-0.104616344,1.5848235,0.644109,-0.507071,1.029518,-5.533053,-1.33148,3.382535
121,3560257197,37.6409,-4.6521873,204.53708,0.3394766,-0.21441486,0.4608159,-2.4680295,-0.09896505,1.6079606,0.649767,-0.510645,1.037198,-5.574187,-1.333129,3.409334
122,3560273864,37.64485,-4.656887,204.56122,0.3401127,-0.21431413,0.45897102,-2.5205066,-0.11262852,1.6281439,0.655436,-0.514217,1.044848,-5.616195,-1.335006,3.43647
123,3560290531,37.65088,-4.661854,204.58481,0.34100533,-0.21461153,0.45750737,-2.5910618,-0.14779884,1.6453935,0.661119,-0.517794,1.052473,-5.659379,-1.337469,3.463893
124,3560307198,37.655502,-4.665287,204.6098,0.34227467,-0.2150051,0.45516372,-2.6876116,-0.18680698,1.6642487,0.666824,-0.521377,1.060059,-5.704173,-1.340582,3.49163
125,3560323865,37.659576,-4.667515,204.63568,0.3439207,-0.21560648,0.45225763,-2.80997,-0.23555511,1.6830161,0.672556,-0.52497,1.067597,-5.751006,-1.344508,3.51968
126,3560340532,37.667023,-4.671589,204.65732,0.34487724,-0.2162739,0.450361,-2.8593504,-0.26696527,1.7038627,0.678304,-0.528575,1.075103,-5.798662,-1.348957,3.548078
127,3560357199,37.677765,-4.677494,204.67444,0.3450632,-0.21697271,0.4494686,-2.8277256,-0.27675688,1.7273209,0.684055,-0.532191,1.082594,-5.845791,-1.35357,3.576867
128,3560373866,37.690643,-4.684025,204.68903,0.34500217,-0.21785855,0.44904542,-2.762268,-0.2822442,1.7510879,0.689805,-0.535822,1.090078,-5.891829,-1.358274,3.606052
129,3560390533,37.70659,-4.691883,204.69965,0.34439945,-0.21889293,0.44948912,-2.6355133,-0.27543807,1.775761,0.695545,-0.53947,1.097569,-5.935754,-1.362865,3.635648
130,3560407200,37.72258,-4.6988564,204.70972,0.3439312,-0.22009465,0.44956183,-2.5076985,-0.2683922,1.8012719,0.701277,-0.543138,1.105062,-5.977549,-1.367338,3.665669
131,3560423867,37.738464,-4.7047615,204.7193,0.34364033,-0.22148588,0.44921422,-2.3822331,-0.2624545,1.8273323,0.707004,-0.546829,1.112549,-6.017253,-1.371712,3.696125
132,3560440534,37.756683,-4.711338,204.7254,0.3429432,-0.2230294,0.44939995,-2.2047734,-0.24451333,1.8544309,0.71272,-0.550546,1.120039,-6.053999,-1.375787,3.727032
133,3560457201,37.77655,-4.71809,204.72867,0.34198093,-0.2247375,0.4498589,-1.9873176,-0.21700406,1.882462,0.71842,-0.554292,1.127537,-6.087121,-1.379404,3.758406
134,3560473868,37.798843,-4.723873,204.73544,0.34195614,-0.22611457,0.45062256,-1.8527725,-0.19771075,1.9158182,0.724119,-0.558061,1.135047,-6.118001,-1.382699,3.790336
135,3560490535,37.824005,-4.7287636,204.74588,0.34291363,-0.2271074,0.45181274,-1.8055327,-0.18623418,1.9550153,0.729834,-0.561846,1.142577,-6.148093,-1.385803,3.82292
136,3560507202,37.851196,-4.732914,204.75735,0.3443756,-0.22796032,0.45324206,-1.7948389,-0.17544985,1.997894,0.735574,-0.565645,1.150131,-6.178007,-1.388727,3.856218
137,3560523869,37.880783,-4.7360573,204.77151,0.34666157,-0.22852966,0.45495796,-1.8530295,-0.16950125,2.045755,0.741352,-0.569454,1.157714,-6.208891,-1.391552,3.890314
138,3560540536,37.91301,-4.7392464,204.78372,0.34892654,-0.22910276,0.4572003,-1.8940527,-0.154531,2.096061,0.747167,-0.573272,1.165334,-6.240459,-1.394128,3.925248
139,3560557203,37.94786,-4.742466,204.7938,0.3511305,-0.22969341,0.45997405,-1.9134467,-0.12945747,2.1487107,0.753019,-0.5771,1.173,-6.27235,-1.396286,3.96106
140,3560573870,37.985596,-4.744938,204.80533,0.35398006,-0.23002762,0.46321583,-1.981996,-0.10440701,2.206165,0.758919,-0.580934,1.18072,-6.305383,-1.398026,3.997829
141,3560590537,38.02629,-4.746876,204.81735,0.3572979,-0.23015913,0.46699142,-2.081773,-0.076105654,2.2679672,0.764874,-0.58477,1.188503,-6.340079,-1.399294,4.035628
142,3560607204,38.06392,-4.7524834,204.8255,0.3595791,-0.23124546,0.46948147,-2.1635015,-0.029589117,2.320669,0.770867,-0.588624,1.196328,-6.376137,-1.399787,4.074306
143,3560623871,38.097992,-4.7620735,204.82971,0.3607607,-0.2333602,0.47051907,-2.2315516,0.035756886,2.3633118,0.77688,-0.592513,1.20417,-6.41333,-1.399191,4.113695
144,3560640538,38.13147,-4.773815,204.83142,0.36144733,-0.2359876,0.47102118,-2.2976172,0.11545187,2.4019864,0.782904,-0.596446,1.21202,-6.451624,-1.397267,4.153728
145,3560657205,38.16269,-4.788891,204.8295,0.3612337,-0.23944405,0.47047973,-2.3507366,0.21373636,2.432977,0.788925,-0.600437,1.219861,-6.490803,-1.393705,4.194278
146,3560673872,38.19536,-4.804638,204.8274,0.36118698,-0.24298221,0.46994305,-2.438453,0.3199138,2.464766,0.794945,-0.604487,1.227693,-6.531444,-1.388373,4.235357
147,3560690539,38.2296,-4.8209724,204.82526,0.361351,-0.2465643,0.46947837,-2.5628924,0.43407243,2.4977727,0.800968,-0.608596,1.235518,-6.574159,-1.381138,4.276987
148,3560707206,38.262207,-4.840275,204.82025,0.3608408,-0.25084147,0.46811342,-2.6917925,0.5655326,2.5244713,0.806982,-0.612777,1.24332,-6.619022,-1.371712,4.319062
149,3560723873,38.293915,-4.862049,204.81314,0.35987568,-0.25566387,0.46605825,-2.8358874,0.7124962,2.5465374,0.81298,-0.617038,1.251088,-6.666287,-1.359837,4.361504
150,3560740540,38.324203,-4.881962,204.8088,0.3590889,-0.25905496,0.46544266,-2.9565482,0.80669254,2.56401,0.818965,-0.621356,1.258845,-6.715563,-1.346392,4.404237
151,3560757207,38.352448,-4.8999214,204.80746,0.35842323,-0.26090708,0.4663341,-3.0469608,0.8426892,2.575755,0.824939,-0.625704,1.266617,-6.766346,-1.332347,4.447166
152,3560773874,38.37941,-4.9177437,204.80713,0.35770988,-0.26205742,0.46785402,-3.1332874,0.8516714,2.5826855,0.830901,-0.630072,1.274415,-6.818567,-1.318152,4.490211
153,3560790541,38.404648,-4.934292,204.80914,0.35709,-0.26196906,0.4705577,-3.203984,0.8145012,2.5843368,0.836852,-0.634438,1.282258,-6.871967,-1.304577,4.533283
154,3560807208,38.427658,-4.9528008,204.81,0.3559456,-0.26196012,0.47294593,-3.273645,0.7734967,2.5784807,0.842784,-0.638804,1.29014,-6.926528,-1.291685,4.576258
155,3560823875,38.448273,-4.9734917,204.80945,0.35424423,-0.2620902,0.47493863,-3.34422,0.7306034,2.5648265,0.848688,-0.643172,1.298056,-6.982265,-1.279508,4.619005
156,3560840542,38.466415,-4.9938316,204.81046,0.35239792,-0.26122814,0.47775912,-3.3981256,0.64758676,2.5438023,0.854561,-0.647526,1.306019,-7.0389,-1.268715,4.661402
157,3560857209,38.48181,-5.014538,204.81226,0.35026073,-0.25963688,0.48109198,-3.4382303,0.53262097,2.5146399,0.860399,-0.651853,1.314037,-7.096204,-1.259838,4.703313
158,3560873876,38.495956,-5.031872,204.81439,0.34907246,-0.25913942,0.484267,-3.5011947,0.44223744,2.4941492,0.866217,-0.656172,1.322108,-7.154557,-1.252467,4.744882
159,3560890543,38.50882,-5.04517,204.81711,0.3489895,-0.25975838,0.48737526,-3.5875819,0.3762732,2.4837286,0.872033,-0.660501,1.330231,-7.21435,-1.246196,4.786277
160,3560907210,38.51941,-5.056652,204.82025,0.34932613,-0.26079386,0.4905281,-3.6814218,0.31261963,2.474651,0.877855,-0.664848,1.338406,-7.275707,-1.240986,4.827521
161,3560923877,38.52797,-5.065159,204.82382,0.35043907,-0.26271066,0.49358463,-3.7918158,0.26515454,2.4715,0.883696,-0.669227,1.346632,-7.338904,-1.236567,4.868713
162,3560940544,38.5334,-5.0722084,204.82892,0.35170746,-0.2641374,0.49725842,-3.892747,0.1900428,2.4642823,0.889558,-0.673629,1.35492,-7.403783,-1.2334,4.909784
163,3560957211,38.535477,-5.077862,204.83566,0.35309124,-0.2650026,0.5015788,-3.9822712,0.08447307,2.4521976,0.895443,-0.678046,1.36328,-7.470154,-1.231992,4.950654
164,3560973878,38.53488,-5.0802803,204.84354,0.35521984,-0.26638308,0.50608563,-4.0807877,-0.0183779,2.4441783,0.901363,-0.682486,1.371715,-7.538167,-1.232298,4.99139
165,3560990545,38.53122,-5.079693,204.85281,0.3579769,-0.2679854,0.51094127,-4.182402,-0.12836659,2.4380927,0.907329,-0.686952,1.380231,-7.607874,-1.234437,5.032025
166,3561007212,38.52925,-5.0813103,204.86072,0.36042786,-0.26925802,0.5148189,-4.2551107,-0.21284103,2.4284146,0.913336,-0.69144,1.388811,-7.678793,-1.237984,5.072499
167,3561023879,38.52939,-5.0852776,204.86697,0.3625803,-0.27027586,0.5175469,-4.2978945,-0.2648769,2.4158304,0.919379,-0.695945,1.397437,-7.750425,-1.242399,5.112763
168,3561040546,38.529083,-5.0891685,204.87323,0.36482143,-0.27109978,0.51987195,-4.3214927,-0.30684042,2.401597,0.925459,-0.700463,1.406102,-7.82245,-1.247513,5.15279
169,3561057213,38.529648,-5.094303,204.87872,0.36693,-0.27161035,0.52140737,-4.3171744,-0.32837182,2.384586,0.931575,-0.70499,1.414792,-7.894403,-1.252986,5.192533
170,3561073880,38.528366,-5.097042,204.88501,0.36963177,-0.272405,0.5228114,-4.3080454,-0.3402558,2.370313,0.937736,-0.70953,1.423506,-7.966204,-1.258657,5.232038
171,3561090547,38.524994,-5.0971107,204.8923,0.37298298,-0.2734976,0.52413297,-4.2944736,-0.34365445,2.3590858,0.943952,-0.714088,1.432242,-8.037779,-1.264385,5.271356
172,3561107214,38.522034,-5.097378,204.89911,0.37644958,-0.2744955,0.52469754,-4.2570205,-0.32356125,2.3473449,0.950226,-0.718663,1.440987,-8.108729,-1.269778,5.310478
173,3561123881,38.518906,-5.0969963,204.90585,0.38019848,-0.27552846,0.5246308,-4.19998,-0.2816456,2.336396,0.956563,-0.723255,1.449731,-8.178729,-1.274472,5.349418
174,3561140548,38.513382,-5.095524,204.9166,0.382576,-0.27672702,0.5256436,-4.1569242,-0.28057808,2.3156576,0.962939,-0.727867,1.458492,-8.248011,-1.279148,5.388012
175,3561157215,38.505554,-5.093235,204.93158,0.38336182,-0.27806896,0.52779627,-4.128319,-0.32360214,2.2838004,0.969328,-0.732501,1.467289,-8.316816,-1.284541,5.426075
176,3561173882,38.49617,-5.089756,204.94913,0.383461,-0.27958864,0.5303471,-4.100705,-0.3814388,2.2468166,0.975719,-0.737161,1.476128,-8.385161,-1.290898,5.463522
177,3561190549,38.48468,-5.0850105,204.97037,0.3823805,-0.28131968,0.53374124,-4.0825863,-0.4705948,2.2016542,0.982092,-0.74185,1.485024,-8.453204,-1.298741,5.500216
178,3561207216,38.473007,-5.0799294,204.99265,0.3809557,-0.28308773,0.5367949,-4.048579,-0.5502072,2.1536462,0.988441,-0.746568,1.493971,-8.52068,-1.307911,5.53611
179,3561223883,38.461273,-5.0744667,205.01587,0.3792343,-0.28490254,0.5394354,-3.9971633,-0.61741394,2.103222,0.994762,-0.751316,1.502962,-8.587299,-1.318201,5.571164
180,3561240550,38.448105,-5.068157,205.04239,0.37635612,-0.28688458,0.54262877,-3.9480941,-0.7066294,2.045002,1.001035,-0.756097,1.512006,-8.653101,-1.329978,5.605247
181,3561257217,38.43393,-5.0611763,205.07169,0.3724699,-0.2890044,0.54612136,-3.8958035,-0.8090514,1.9800341,1.007243,-0.760914,1.521108,-8.718031,-1.343462,5.638248
182,3561273884,38.419724,-5.0529823,205.10095,0.37021923,-0.29005304,0.54840183,-3.8332415,-0.8854129,1.9254336,1.013413,-0.765748,1.530248,-8.781918,-1.358219,5.670339
183,3561290551,38.405426,-5.0435295,205.13022,0.36972237,-0.28992358,0.54943824,-3.761983,-0.9361816,1.8820696,1.019575,-0.77058,1.539405,-8.844618,-1.373822,5.701707
184,3561307218,38.390976,-5.0331535,205.16061,0.36980247,-0.2891663,0.5497687,-3.6814637,-0.973972,1.8424618,1.025738,-0.775399,1.548568,-8.905976,-1.390055,5.732415
185,3561323885,38.376556,-5.021717,205.19138,0.3711567,-0.28743613,0.54899454,-3.5902886,-0.98892075,1.8111893,1.031924,-0.78019,1.557718,-8.965814,-1.406537,5.762601
186,3561340552,38.361343,-5.009411,205.22491,0.3720026,-0.2854691,0.5482309,-3.4974384,-1.0124141,1.7768931,1.038124,-0.784948,1.566855,-9.024105,-1.423411,5.792216
187,3561357219,38.345367,-4.9962425,205.26141,0.37222576,-0.28329393,0.5475147,-3.402956,-1.0456201,1.738956,1.044328,-0.78967,1.57598,-9.080821,-1.440838,5.821199
188,3561373886,38.329315,-4.9820137,205.2991,0.373312,-0.28023025,0.5459399,-3.3012679,-1.0644816,1.7070192,1.05055,-0.794341,1.585079,-9.135842,-1.458579,5.849649
189,3561390553,38.31299,-4.966755,205.3386,0.37488174,-0.2764152,0.54372835,-3.1942818,-1.0755463,1.6787447,1.056798,-0.798948,1.594141,-9.18908,-1.476505,5.877628
190,3561407220,38.29599,-4.9518166,205.37943,0.37560272,-0.27340677,0.5408709,-3.115087,-1.093549,1.645686,1.063058,-0.803505,1.603156,-9.240998,-1.494731,5.905056
191,3561423887,38.278397,-4.937298,205.42139,0.37553406,-0.27125388,0.53724027,-3.0666146,-1.117041,1.6083187,1.069317,-0.808026,1.61211,-9.292108,-1.513348,5.931861
192,3561440554,38.260345,-4.922596,205.46515,0.37505054,-0.26929435,0.53297424,-3.0347996,-1.1434405,1.5691631,1.075568,-0.812514,1.620993,-9.342688,-1.532405,5.958014
193,3561457221,38.24173,-4.908062,205.51053,0.37383366,-0.26793155,0.52802324,-3.0292425,-1.1760933,1.5262711,1.081799,-0.81698,1.629793,-9.393175,-1.552007,5.983452
194,3561473888,38.223083,-4.8929024,205.55743,0.37303734,-0.26606157,0.52212715,-3.0295339,-1.1999898,1.4871558,1.088016,-0.821414,1.638495,-9.443667,-1.572007,6.008238
195,3561490555,38.204376,-4.8770638,205.60587,0.37270927,-0.26361728,0.5152633,-3.035235,-1.214702,1.452209,1.094228,-0.825808,1.647083,-9.494254,-1.592252,6.032441
196,3561507222,38.18538,-4.8613167,205.65585,0.37200546,-0.2614907,0.50749135,-3.065405,-1.2304265,1.4161404,1.100428,-0.830166,1.655541,-9.545344,-1.612759,6.056043
197,3561523889,38.166214,-4.845478,205.70728,0.37117767,-0.2594441,0.49872875,-3.1164665,-1.2439092,1.3806489,1.106614,-0.83449,1.663853,-9.597285,-1.633491,6.079054
198,3561540556,38.144547,-4.8281746,205.75757,0.36988354,-0.2577149,0.49166036,-3.151723,-1.262334,1.3595798,1.112779,-0.838785,1.672047,-9.649814,-1.65453,6.101714
199,3561557223,38.120102,-4.809391,205.80637,0.36799717,-0.25643942,0.4865315,-3.1706874,-1.2874272,1.35386,1.118912,-0.843059,1.680156,-9.702659,-1.675987,6.124278
200,3561573890,38.094147,-4.7896843,205.85495,0.3658514,-0.25534803,0.48199797,-3.189028,-1.3134723,1.358285,1.12501,-0.847315,1.688189,-9.755809,-1.697878,6.146916
201,3561590557,38.065964,-4.768688,205.90253,0.36332226,-0.25454643,0.4788108,-3.1976135,-1.3427322,1.3768125,1.131065,-0.851557,1.696169,-9.809103,-1.720257,6.169863
202,3561607224,38.03691,-4.7474327,205.95065,0.36038876,-0.25412974,0.47540593,-3.2237537,-1.373694,1.4002883,1.137071,-0.855792,1.704092,-9.862832,-1.743152,6.193201
203,3561623891,38.00699,-4.7259865,205.99933,0.35706806,-0.25409856,0.47168374,-3.269428,-1.4059672,1.428609,1.143022,-0.860027,1.711953,-9.917322,-1.766585,6.217011
204,3561640558,37.97502,-4.7035484,206.04709,0.3532524,-0.2545166,0.46908998,-3.3135693,-1.4423597,1.4700084,1.14891,-0.864269,1.719771,-9.972548,-1.790624,6.241511
205,3561657225,37.94127,-4.6803246,206.09415,0.34892845,-0.25542232,0.4673121,-3.3623848,-1.4826169,1.522887,1.154725,-0.868526,1.72756,-10.028588,-1.815334,6.266892
206,3561673892,37.912537,-4.661167,206.14175,0.34584904,-0.25559363,0.4646361,-3.3675134,-1.4680161,1.5508786,1.160489,-0.872786,1.735304,-10.084713,-1.839801,6.29274
207,3561690559,37.889297,-4.646496,206.18982,0.34415722,-0.25494474,0.46110868,-3.321694,-1.3931384,1.5516344,1.166225,-0.877035,1.742989,-10.140075,-1.86302,6.318601
208,3561707226,37.86853,-4.6341896,206.23785,0.34300518,-0.25409967,0.45735884,-3.2520204,-1.2854619,1.5414655,1.171942,-0.88127,1.750612,-10.194275,-1.884444,6.344292
209,3561723893,37.85211,-4.6256294,206.28601,0.3428793,-0.25273234,0.45298266,-3.1438484,-1.128227,1.5104284,1.177657,-0.885482,1.758162,-10.246672,-1.903248,6.369466
210,3561740560,37.83583,-4.617832,206.33316,0.3427353,-0.25158906,0.4493785,-3.0199318,-0.9558833,1.4820856,1.183369,-0.889675,1.765652,-10.297004,-1.919179,6.394167
211,3561757227,37.819397,-4.610714,206.37918,0.34251022,-0.25073197,0.4466381,-2.8815336,-0.76988316,1.4576623,1.189078,-0.893854,1.773096,-10.34503,-1.93201,6.418461
212,3561773894,37.806732,-4.6070213,206.42474,0.3431549,-0.2495119,0.4437449,-2.7037702,-0.5378618,1.4166598,1.194797,-0.898013,1.780492,-10.390093,-1.940974,6.442072
213,3561790561,37.796936,-4.6062202,206.46957,0.3444605,-0.24809217,0.44101906,-2.4905136,-0.26621664,1.3638244,1.200538,-0.902148,1.787842,-10.431602,-1.945411,6.464802
214,3561807228,37.78334,-4.601925,206.514,0.34380817,-0.24671596,0.43656707,-2.4082046,-0.12751484,1.34929,1.206268,-0.90626,1.795118,-10.471739,-1.947536,6.48729
215,3561823895,37.765793,-4.593952,206.55807,0.341074,-0.24532214,0.43009686,-2.4692557,-0.13414872,1.3752259,1.211953,-0.910349,1.802286,-10.512893,-1.949772,6.51021
216,3561840562,37.747055,-4.5850334,206.60135,0.3373642,-0.24390334,0.42273378,-2.5970309,-0.2084809,1.4209615,1.217576,-0.914414,1.809332,-10.556177,-1.953247,6.533893
217,3561857229,37.725403,-4.5735054,206.64395,0.33197784,-0.24249983,0.4139111,-2.837625,-0.39832783,1.499899,1.223109,-0.918456,1.816231,-10.603471,-1.959886,6.558891
218,3561873896,37.705826,-4.5639153,206.68564,0.32668877,-0.24080777,0.40448284,-3.087625,-0.59485245,1.5774897,1.228554,-0.922469,1.822972,-10.654931,-1.9698,6.585182
219,3561890563,37.6886,-4.55653,206.72632,0.3215847,-0.23881403,0.39451694,-3.3417325,-0.7928978,1.652118,1.233914,-0.926449,1.829547,-10.710627,-1.983015,6.612717
220,3561907230,37.669846,-4.547718,206.76611,0.31516838,-0.23669386,0.38306952,-3.6923969,-1.0892669,1.7527155,1.239167,-0.930394,1.835931,-10.772167,-2.001169,6.641929
221,3561923897,37.650604,-4.538456,206.80496,0.3078022,-0.2343744,0.3702941,-4.1192017,-1.4626276,1.872256,1.244297,-0.9343,1.842103,-10.84082,-2.025546,6.673133
222,3561940564,37.619614,-4.5192146,206.84814,0.29730988,-0.23656213,0.34842157,-4.42126,-1.7789013,1.8888484,1.249252,-0.938243,1.84791,-10.914508,-2.055194,6.704614
223,3561957231,37.57524,-4.4885597,206.89621,0.28325367,-0.24374852,0.31647778,-4.591959,-2.0390596,1.7939867,1.253973,-0.942305,1.853185,-10.991041,-2.089178,6.734514
224,3561973898,37.523468,-4.4515877,206.94656,0.2668724,-0.2536728,0.2781515,-4.7139063,-2.2940772,1.6403927,1.258421,-0.946533,1.857821,-11.069606,-2.127413,6.761854
225,3561990565,37.460907,-4.4053993,207.00073,0.24745369,-0.26770043,0.2310934,-4.734498,-2.5111332,1.3940995,1.262545,-0.950995,1.861673,-11.148514,-2.169265,6.785089
226,3562007232,37.39302,-4.3545265,207.0556,0.22581673,-0.28317127,0.17945433,-4.79575,-2.7955732,1.1330342,1.266309,-0.955715,1.864664,-11.228443,-2.215858,6.803973
227,3562023899,37.3201,-4.2991295,207.11096,0.20196533,-0.29997817,0.123312,-4.905165,-3.1538765,0.86025554,1.269675,-0.960715,1.866719,-11.310196,-2.268423,6.818311
228,3562040566,37.23613,-4.234211,207.16977,0.17479515,-0.32069582,0.05838251,-4.946753,-3.506723,0.50642586,1.272588,-0.96606,1.867692,-11.392642,-2.326868,6.826751
229,3562057233,37.14203,-4.1605034,207.23145,0.1443901,-0.3448443,-0.014672279,-4.950302,-3.8777077,0.08646691,1.274995,-0.971807,1.867447,-11.475147,-2.391496,6.828192
230,3562073900,37.043198,-4.0941734,207.31201,0.12026119,-0.35717157,-0.06567478,-5.004212,-4.1176357,-0.2353394,1.276999,-0.97776,1.866352,-11.558551,-2.460123,6.82427
231,3562090567,36.939026,-4.0359154,207.41357,0.10312462,-0.35655198,-0.09234047,-5.1023545,-4.202637,-0.4528979,1.278718,-0.983703,1.864813,-11.64359,-2.530167,6.816722
232,3562107234,36.82727,-3.978321,207.52838,0.088479996,-0.3499083,-0.10860777,-5.2224913,-4.219423,-0.63514435,1.280193,-0.989535,1.863003,-11.730632,-2.600491,6.806136
233,3562123901,36.708862,-3.9255867,207.66122,0.07894802,-0.3330072,-0.10610676,-5.3850255,-4.122503,-0.7388927,1.281509,-0.995085,1.861235,-11.820382,-2.669199,6.793821
234,3562140568,36.57875,-3.866726,207.80396,0.06864643,-0.31539828,-0.10360575,-5.5079927,-3.978218,-0.8792263,1.282653,-1.000342,1.859508,-11.912182,-2.735503,6.779167
235,3562157235,36.436295,-3.8009605,207.95627,0.05723381,-0.29754174,-0.1020689,-5.5880685,-3.790698,-1.0624326,1.283607,-1.005301,1.857807,-12.005316,-2.798681,6.76146
236,3562173902,36.28456,-3.7372932,208.12701,0.049948692,-0.27090916,-0.084712505,-5.682557,-3.4847875,-1.1940228,1.284439,-1.009816,1.856395,-12.100025,-2.856761,6.74156
237,3562190569,36.12207,-3.6733055,208.31488,0.045601845,-0.23737136,-0.055243015,-5.7733884,-3.071637,-1.2981776,1.285199,-1.013772,1.855474,-12.196248,-2.907955,6.719924
238,3562207236,35.96898,-3.5996742,208.445,0.034900665,-0.19618168,-0.03815651,-6.386854,-3.0026176,-1.1237208,1.285781,-1.017042,1.854838,-12.302696,-2.957999,6.701195
239,3562223903,35.827408,-3.516529,208.51141,0.017663002,-0.14595717,-0.03342104,-7.582755,-3.309641,-0.63235223,1.286075,-1.019475,1.854281,-12.429075,-3.01316,6.690656
240,3562240570,35.68657,-3.4266396,208.54877,-0.0024442673,-0.088068485,-0.03163767,-9.101924,-3.7846684,0.04304874,1.286034,-1.020943,1.853754,-12.580774,-3.076238,6.691373
241,3562257237,35.552124,-3.3276176,208.5362,-0.027812004,-0.02174443,-0.038866043,-11.098709,-4.551715,0.98005015,1.28557,-1.021305,1.853106,-12.765752,-3.1521,6.707707
242,3562273904,35.412888,-3.227085,208.51959,-0.05163002,0.055111468,-0.03617859,-13.286125,-5.327745,2.0604525,1.284709,-1.020386,1.852503,-12.987187,-3.240896,6.742048
243,3562290571,35.267975,-3.1252556,208.50125,-0.07353878,0.14283335,-0.02244091,-15.652655,-6.0974197,3.280787,1.283483,-1.018005,1.852129,-13.248065,-3.34252,6.796728
244,3562307238,35.12799,-3.016285,208.43958,-0.09896374,0.24138683,-0.012088299,-18.483202,-7.1111774,4.773238,1.281834,-1.013982,1.851928,-13.556118,-3.46104,6.876282
245,3562323905,34.990616,-2.9017296,208.3435,-0.12645721,0.35158318,-0.0009250641,-21.72705,-8.312295,6.5198197,1.279726,-1.008122,1.851913,-13.918236,-3.599578,6.984946
246,3562340572,34.830734,-2.7686043,208.13681,-0.14459896,0.45639938,0.010396481,-25.594748,-9.431454,8.23109,1.277316,-1.000515,1.852086,-14.344815,-3.756769,7.122131
247,3562357239,34.647293,-2.6148262,207.80515,-0.15289497,0.55455154,0.020201683,-30.158491,-10.478183,9.903945,1.274768,-0.991272,1.852423,-14.847457,-3.931405,7.287197
248,3562373906,34.450882,-2.4474602,207.38892,-0.15572357,0.6549788,0.031764507,-35.299915,-11.545983,11.671077,1.272173,-0.980356,1.852952,-15.435789,-4.123838,7.481715
249,3562390573,34.234787,-2.2624626,206.86313,-0.14998531,0.75312716,0.04447508,-41.104782,-12.571699,13.462287,1.269673,-0.967804,1.853693,-16.120869,-4.333366,7.706086
250,3562407240,34.01645,-2.0655785,206.2591,-0.14364815,0.85933346,0.055169582,-47.545193,-13.781459,15.490037,1.267279,-0.953482,1.854612,-16.913289,-4.563057,7.964253
251,3562423907,33.796738,-1.8569984,205.57645,-0.13697052,0.974515,0.06401682,-54.63729,-15.189207,17.773266,1.264996,-0.93724,1.855679,-17.823911,-4.81621,8.260474
252,3562440574,33.561295,-1.630024,204.77505,-0.12320995,1.0896635,0.07194805,-62.48876,-16.63215,20.150686,1.262943,-0.919079,1.856878,-18.86539,-5.093413,8.596319
253,3562457241,33.31366,-1.3855209,203.85818,-0.10391426,1.2070675,0.07824087,-71.11601,-18.16206,22.672915,1.261211,-0.898961,1.858182,-20.050657,-5.396114,8.974201
254,3562473908,33.029755,-1.1454468,202.95871,-0.062766075,1.2653279,0.10864639,-77.2595,-19.22216,24.842594,1.260165,-0.877872,1.859993,-21.338315,-5.716483,9.388244
255,3562490575,32.705124,-0.91067886,202.08081,0.002916336,1.2569437,0.16567278,-80.62402,-19.739603,26.592995,1.260214,-0.856923,1.862754,-22.682049,-6.045476,9.831461
256,3562507242,32.35338,-0.6709938,201.16055,0.08463764,1.2121277,0.23662138,-82.76994,-20.013409,28.195179,1.261625,-0.836721,1.866698,-24.061548,-6.379033,10.301381
257,3562523909,31.966705,-0.43205643,200.23117,0.18756199,1.1125801,0.32881021,-82.77521,-19.878885,29.501698,1.264751,-0.818178,1.872178,-25.441135,-6.710348,10.793076
258,3562540576,31.554993,-0.17888641,199.20053,0.30437946,0.991193,0.42766857,-82.57027,-19.61759,30.763432,1.269824,-0.801658,1.879306,-26.817306,-7.037308,11.3058
259,3562557243,31.118362,0.08968353,198.0603,0.4350214,0.84905237,0.53242135,-82.252365,-19.24517,31.995134,1.277074,-0.787507,1.88818,-28.188179,-7.358061,11.839052
260,3562573910,30.644562,0.36144638,196.88342,0.5881014,0.6527596,0.6569092,-80.03189,-18.470629,32.937016,1.286876,-0.776628,1.899128,-29.522044,-7.665905,12.388002
261,3562590577,30.13475,0.6397667,195.64825,0.76264954,0.4078887,0.7983608,-76.279625,-17.344395,33.634384,1.299587,-0.76983,1.912434,-30.793371,-7.954978,12.948575
262,3562607244,29.850967,0.8658905,194.42195,0.8347893,0.26002598,0.8831401,-73.10906,-16.503143,34.174126,1.3135,-0.765496,1.927153,-32.011855,-8.23003,13.518144
263,3562623911,29.817383,1.0323257,193.21924,0.7936325,0.21800977,0.90593743,-70.45126,-15.960201,34.518757,1.326727,-0.761863,1.942252,-33.186043,-8.496033,14.093457
264,3562640578,29.911285,1.1688347,191.9928,0.6971741,0.21566111,0.89980865,-67.50809,-15.437558,34.645653,1.338347,-0.758269,1.957249,-34.311178,-8.753326,14.670885
265,3562657245,30.207443,1.2578697,190.764,0.51035213,0.29233605,0.8443279,-64.768425,-15.095248,34.557568,1.346853,-0.753397,1.971321,-35.390652,-9.004913,15.246844
266,3562673912,30.551361,1.3300705,189.5104,0.30729008,0.35354143,0.78583026,-60.483433,-14.476332,34.1227,1.351975,-0.747505,1.984418,-36.398709,-9.246185,15.815556
267,3562690579,30.936386,1.3866196,188.2293,0.09140015,0.39382476,0.72647023,-54.5247,-13.547614,33.320984,1.353498,-0.740941,1.996526,-37.307454,-9.471979,16.370906
268,3562707246,31.507355,1.3959274,186.95164,-0.20582676,0.49458414,0.62495184,-48.142143,-12.668595,32.207,1.350068,-0.732698,2.006942,-38.109823,-9.683122,16.907689
269,3562723913,32.235397,1.3632164,185.67372,-0.57030296,0.6363713,0.49032307,-40.92269,-11.736431,30.738054,1.340563,-0.722092,2.015114,-38.791868,-9.878729,17.41999
270,3562740580,32.662537,1.4172058,184.61154,-0.78078604,0.7248711,0.32933044,-35.684948,-11.198984,29.307009,1.32755,-0.710011,2.020603,-39.386617,-10.065379,17.90844
271,3562757247,32.765564,1.5653152,183.79376,-0.8255434,0.76188403,0.1363349,-32.828434,-11.143096,27.944344,1.313791,-0.697313,2.022875,-39.933758,-10.251097,18.374179
272,3562773914,32.744797,1.7490845,183.11908,-0.8009,0.77972883,-0.08689737,-30.716295,-11.28645,26.421663,1.300443,-0.684318,2.021427,-40.445696,-10.439205,18.81454
273,3562790581,32.47769,2.0031242,182.65393,-0.6473217,0.75538677,-0.34109306,-30.180191,-11.770514,24.84117,1.289654,-0.671728,2.015742,-40.948699,-10.63538,19.228559
274,3562807248,32.271378,2.2432518,182.28473,-0.5122957,0.7654372,-0.64238167,-29.870115,-12.424798,22.968184,1.281116,-0.658971,2.005036,-41.446534,-10.84246,19.611362
275,3562823915,32.142685,2.4644814,182.01054,-0.40355206,0.81379014,-0.9926028,-29.680273,-13.237175,20.774113,1.27439,-0.645408,1.988493,-41.941205,-11.06308,19.957597
276,3562840582,31.832245,2.7387505,181.95128,-0.19560623,0.8432819,-1.3858476,-31.034714,-14.425219,18.458813,1.27113,-0.631353,1.965396,-42.45845,-11.3035,20.265244
277,3562857249,31.40355,3.0485764,182.08994,0.081380844,0.8706979,-1.827115,-33.678936,-15.963049,15.965365,1.272486,-0.616841,1.934944,-43.019766,-11.569551,20.531333
278,3562873916,31.305313,3.3249168,181.71155,0.1753521,0.8520728,-2.109675,-35.465694,-17.557226,15.617837,1.275409,-0.60264,1.899783,-43.610861,-11.862171,20.79163
279,3562890583,31.547958,3.5706558,180.76645,0.07802963,0.77658623,-2.2135253,-36.42374,-19.223309,17.677776,1.276709,-0.589697,1.862891,-44.217923,-12.182559,21.08626
280,3562907250,31.960861,3.8073044,179.58604,-0.11098194,0.6766308,-2.24051,-37.446712,-21.097233,21.01674,1.274859,-0.57842,1.825549,-44.842035,-12.53418,21.436539
281,3562923917,32.661224,4.0185432,177.97464,-0.45829868,0.5377993,-2.1318994,-38.028473,-23.118286,26.317575,1.267221,-0.569457,1.790017,-45.475843,-12.919485,21.875165
282,3562940584,33.320694,4.263603,176.38486,-0.78449106,0.3709423,-2.007011,-39.828568,-25.529194,32.291927,1.254146,-0.563275,1.756567,-46.139652,-13.344972,22.413364
283,3562957251,33.92485,4.5454483,174.84244,-1.0815039,0.17755604,-1.8723016,-42.981346,-28.359194,38.891876,1.236121,-0.560316,1.725362,-46.856008,-13.817625,23.061562
284,3562973918,34.73889,4.821331,172.94989,-1.4967136,-0.06133175,-1.6156006,-46.264915,-31.447618,47.38857,1.211176,-0.561338,1.698435,-47.62709,-14.341752,23.851371
285,3562990585,35.69513,5.1044273,170.7991,-1.9933906,-0.34443703,-1.2598395,-50.07273,-34.859955,57.555237,1.177953,-0.567079,1.677438,-48.461636,-14.922751,24.810625
286,3563007252,36.30902,5.548477,169.0603,-2.3593593,-0.5438554,-1.0119214,-53.518116,-38.464527,62.784298,1.13863,-0.576143,1.660573,-49.353605,-15.563826,25.85703
287,3563023919,36.565887,6.1649284,167.74448,-2.592835,-0.65094656,-0.87502766,-56.39734,-42.24137,62.62092,1.095416,-0.586992,1.645989,-50.293561,-16.267849,26.900712
288,3563040586,36.64952,6.8914986,166.59203,-2.7702942,-0.72641367,-0.7640543,-59.427006,-46.3096,60.06449,1.049244,-0.599099,1.633255,-51.284011,-17.039676,27.901787
289,3563057253,36.431366,7.7720795,165.77487,-2.8373356,-0.7356108,-0.7311964,-62.33387,-50.636127,53.298916,1.001955,-0.611359,1.621068,-52.322909,-17.883611,28.790102
290,3563073920,36.26236,8.708355,164.79703,-2.9567275,-0.75843287,-0.62433577,-65.36918,-55.27683,46.519405,0.952676,-0.624,1.610662,-53.412395,-18.804891,29.565425
291,3563090587,36.156204,9.698292,163.63309,-3.1355839,-0.7999879,-0.43383694,-68.594765,-60.251087,39.94311,0.900416,-0.637333,1.603431,-54.555641,-19.809076,30.231144
292,3563107254,35.825302,10.831272,162.67651,-3.2462072,-0.79034007,-0.27895594,-71.64417,-65.5081,29.874743,0.846313,-0.650505,1.598782,-55.749711,-20.900878,30.729056
293,3563123921,35.340454,12.089752,161.82205,-3.3227024,-0.7460396,-0.12616873,-74.57293,-71.06783,17.15199,0.790935,-0.662939,1.596679,-56.992593,-22.085342,31.014923
294,3563140588,34.758682,13.2880745,161.11005,-3.3658113,-0.68468183,-0.026552677,-76.6537,-74.78788,7.970554,0.734838,-0.67435,1.596236,-58.270155,-23.331807,31.147766
295,3563157255,34.046143,14.422115,160.59387,-3.359538,-0.5981183,0.00071811676,-77.74325,-76.44574,2.4185166,0.678846,-0.684319,1.596248,-59.565876,-24.605903,31.188075
296,3563173922,33.21913,15.570835,160.18512,-3.3258233,-0.4881302,0.002796173,-78.204926,-77.06205,-1.9231673,0.623416,-0.692455,1.596295,-60.869291,-25.89027,31.156022
297,3563190589,32.27925,16.687077,159.91165,-3.2595792,-0.35595447,-0.03919792,-77.79278,-76.01446,-3.475369,0.56909,-0.698388,1.595642,-62.165837,-27.157178,31.098099
298,3563207256,31.11148,17.906303,159.85474,-3.125729,-0.17228338,-0.12565994,-76.82943,-74.52868,-6.851372,0.516995,-0.701259,1.593548,-63.446327,-28.399323,30.983909
299,3563223923,29.70787,19.237545,160.0163,-2.9231858,0.06506902,-0.25504112,-75.3032,-72.65221,-12.300459,0.468275,-0.700175,1.589297,-64.70138,-29.610193,30.778901
300,3563240590,28.12004,20.574024,160.38759,-2.6626344,0.3422665,-0.4456463,-72.8072,-69.2043,-16.18913,0.423898,-0.694471,1.58187,-65.914833,-30.763598,30.509082
301,3563257257,26.316605,21.945786,160.99294,-2.3344731,0.6673022,-0.69945335,-69.37214,-64.40596,-19.508032,0.38499,-0.683349,1.570212,-67.071035,-31.837031,30.183948
302,3563273924,24.943497,23.217377,161.24155,-2.1436777,0.92648536,-0.93291855,-66.0805,-61.768627,-21.055218,0.349262,-0.667908,1.554663,-68.172377,-32.866508,29.833028
303,3563290591,24.0634,24.36243,161.0841,-2.108821,1.1088891,-1.1436391,-62.946465,-61.45051,-20.263378,0.314115,-0.649427,1.535602,-69.221485,-33.890683,29.495305
304,3563307258,23.344376,25.465172,160.82358,-2.1244445,1.2752316,-1.3752027,-59.439793,-61.905453,-18.360212,0.278708,-0.628173,1.512682,-70.212148,-34.922441,29.189301
305,3563323925,22.967896,26.482586,160.29828,-2.2473893,1.393981,-1.6073623,-55.81928,-64.060486,-14.856669,0.241252,-0.60494,1.485893,-71.142469,-35.990116,28.94169
306,3563340592,22.566559,27.4659,159.85547,-2.359663,1.5294437,-1.8959088,-51.29494,-65.52827,-9.494433,0.201924,-0.579449,1.454295,-71.997385,-37.082254,28.783449
307,3563357259,22.115646,28.41829,159.52145,-2.452787,1.6867983,-2.2471647,-45.784836,-66.16499,-2.2865553,0.161044,-0.551336,1.416842,-72.760466,-38.185004,28.74534
308,3563373926,21.958984,29.273666,158.98294,-2.6353807,1.8065209,-2.6176386,-39.881527,-67.95594,7.1374397,0.117121,-0.521227,1.373215,-73.425158,-39.317603,28.864297
309,3563390593,22.023102,30.039448,158.31267,-2.8832788,1.9020407,-3.0211906,-33.38939,-70.39585,18.90326,0.069066,-0.489526,1.322862,-73.981648,-40.490867,29.179351
310,3563407260,21.901703,30.908232,157.67883,-3.0662642,2.0394506,-3.359851,-29.389221,-71.683044,26.515182,0.017962,-0.455535,1.266864,-74.471468,-41.685584,29.621271
311,3563423927,21.606445,31.88566,157.05351,-3.1872544,2.2167404,-3.6195197,-28.249153,-71.89462,29.479696,-0.035159,-0.418589,1.206539,-74.942287,-42.883828,30.112599
312,3563440594,21.287079,32.881477,156.40202,-3.2932277,2.4109395,-3.8568683,-28.374086,-71.54855,31.02581,-0.090046,-0.378407,1.142258,-75.415188,-44.076304,30.629696
313,3563457261,20.848312,33.944016,155.75543,-3.3530154,2.6377099,-4.0428185,-30.665676,-70.21307,29.38662,-0.14593,-0.334445,1.074878,-75.926283,-45.246522,31.119473
314,3563473928,20.621277,34.93981,154.93292,-3.4714022,2.8430758,-4.2252336,-33.472385,-69.44858,28.493885,-0.203787,-0.28706,1.004457,-76.484156,-46.403998,31.594371
315,3563490595,20.62828,35.857613,153.92255,-3.6547203,3.023873,-4.4077153,-36.707603,-69.31837,28.628372,-0.264699,-0.236662,0.930995,-77.095949,-47.559304,32.071511
316,3563507262,20.629028,36.8033,152.8342,-3.8255978,3.2195847,-4.540071,-42.016098,-68.68803,26.299013,-0.328459,-0.183002,0.855327,-77.796217,-48.704104,32.509828
317,3563523929,20.699997,37.746117,151.62305,-4.0076632,3.418038,-4.631287,-49.09562,-67.895065,22.329105,-0.395253,-0.126035,0.778139,-78.614477,-49.835688,32.88198
318,3563540596,20.552963,38.66337,150.59633,-4.166603,3.5992785,-4.740806,-53.62639,-66.9317,20.20092,-0.464696,-0.066047,0.699126,-79.50825,-50.951216,33.218662
319,3563557263,20.135422,39.564384,149.79042,-4.2909336,3.7652493,-4.8659463,-55.44915,-65.67403,19.775293,-0.536212,-0.003293,0.618027,-80.432403,-52.045783,33.54825
320,3563573930,19.639862,40.437466,149.02379,-4.4139533,3.9163494,-4.982798,-56.45308,-64.36313,19.925594,-0.609778,0.061979,0.53498,-81.373288,-53.118502,33.880343
321,3563590597,18.97873,41.27893,148.38266,-4.523993,4.047565,-5.10447,-55.515175,-62.966476,21.47195,-0.685178,0.129438,0.449906,-82.298541,-54.167943,34.238209
322,3563607264,18.26358,42.125835,147.70978,-4.6224446,4.1796093,-5.1816916,-55.62353,-61.197727,21.476854,-0.762219,0.199098,0.363544,-83.2256,-55.187905,34.596157
323,3563623931,17.507599,42.977043,146.98886,-4.7116146,4.311957,-5.210031,-56.96827,-59.070835,19.783,-0.840746,0.270964,0.27671,-84.175071,-56.172419,34.925874
324,3563640598,16.576065,43.811157,146.37302,-4.78008,4.429631,-5.2236075,-57.107872,-56.693295,18.514267,-0.920414,0.344791,0.18965,-85.126869,-57.117307,35.234445
325,3563657265,15.489929,44.635548,145.82857,-4.827834,4.5363727,-5.210178,-56.686653,-54.002247,17.012611,-1.000878,0.420397,0.102814,-86.071647,-58.017344,35.517989
326,3563673932,14.663086,45.292286,145.29951,-4.8924303,4.64005,-5.175614,-55.46976,-50.253162,15.744004,-1.082419,0.497731,0.016554,-86.996143,-58.854897,35.780389
327,3563690599,14.1128845,45.763264,144.8031,-4.9746294,4.739377,-5.122914,-53.123814,-45.36437,14.970115,-1.165329,0.576721,-0.068828,-87.88154,-59.61097,36.029891
328,3563707266,13.653275,46.127502,144.34555,-5.0557003,4.832743,-5.039332,-50.185947,-39.62989,13.991698,-1.249591,0.657267,-0.152817,-88.717972,-60.271468,36.263086
329,3563723933,13.392105,46.3388,143.92004,-5.1446905,4.921631,-4.926353,-46.48501,-32.821514,12.986562,-1.335336,0.739294,-0.234923,-89.492722,-60.818493,36.479529
330,3563740600,13.052475,46.481026,143.59872,-5.216593,4.9964743,-4.786712,-41.523853,-25.390469,12.194909,-1.422279,0.822569,-0.314702,-90.184786,-61.241667,36.682777
331,3563757267,12.615814,46.557823,143.38763,-5.26877,5.056622,-4.618097,-35.289146,-17.331833,11.55861,-1.510092,0.906846,-0.39167,-90.772938,-61.530531,36.87542
332,3563773934,12.311844,46.485027,143.24945,-5.3207397,5.1077685,-4.4196887,-27.831259,-8.200512,11.118838,-1.598771,0.991975,-0.465331,-91.236792,-61.667206,37.060734
333,3563790601,12.080841,46.27748,143.20375,-5.366402,5.1475115,-4.190923,-19.000336,1.9359417,10.922291,-1.688211,1.077767,-0.53518,-91.553464,-61.63494,37.242772
334,3563807268,11.863846,46.145546,143.15247,-5.3966627,5.1933613,-4.040117,-12.233683,9.214356,10.066223,-1.778155,1.164323,-0.602515,-91.757359,-61.481367,37.410542
335,3563823935,11.684372,46.095886,143.08646,-5.412464,5.2473183,-3.977758,-7.813162,13.32374,8.493234,-1.868363,1.251778,-0.668811,-91.887578,-61.259305,37.552096
336,3563840602,11.530746,46.035942,143.0698,-5.413351,5.299138,-3.952026,-3.9658985,16.056137,6.673424,-1.958586,1.340097,-0.734678,-91.953676,-60.991703,37.66332
337,3563857269,11.395889,46.019722,143.07715,-5.3969812,5.3537126,-3.9939532,-1.6282439,16.330997,4.3711586,-2.048536,1.429326,-0.801244,-91.980813,-60.71952,37.736173
338,3563873936,11.373016,45.89962,143.16177,-5.3724203,5.4019217,-4.0394454,1.2262568,16.523544,2.1063988,-2.138076,1.519358,-0.868568,-91.960375,-60.444128,37.77128
339,3563890603,11.4655,45.665558,143.33232,-5.339181,5.442833,-4.0855384,4.7568994,16.750774,-0.07239306,-2.227062,1.610072,-0.93666,-91.881093,-60.164948,37.770073
340,3563907270,11.624405,45.436363,143.54237,-5.2904663,5.485223,-4.1922526,7.1451936,14.864031,-2.621625,-2.315236,1.701492,-1.006531,-91.762006,-59.917214,37.726379
341,3563923937,11.872498,45.179573,143.80588,-5.2277365,5.5271277,-4.3475127,8.820633,11.3259735,-5.4255033,-2.402365,1.793611,-1.07899,-91.614995,-59.728448,37.635954
342,3563940604,12.149841,44.92946,144.10089,-5.1724377,5.5624337,-4.47949,11.88817,10.3918295,-7.673455,-2.488572,1.886318,-1.153648,-91.416859,-59.555251,37.508063
343,3563957271,12.449646,44.703938,144.42047,-5.125681,5.591813,-4.5906186,16.30624,12.165646,-9.341905,-2.574,1.979515,-1.230158,-91.145088,-59.35249,37.352365
344,3563973938,12.819611,44.464767,144.78586,-5.078061,5.6169424,-4.70857,21.355116,14.906211,-10.732722,-2.658634,2.073131,-1.308634,-90.789169,-59.104053,37.173486
345,3563990605,13.244949,44.226357,145.18976,-5.03533,5.636569,-4.8168626,27.547697,19.709518,-11.630649,-2.742556,2.167074,-1.388915,-90.330041,-58.775561,36.979642
346,3564007272,13.751892,43.998756,145.63678,-4.982641,5.6564727,-4.975056,33.196045,23.501797,-12.611435,-2.8256,2.261349,-1.471833,-89.776774,-58.383864,36.769451
347,3564023939,14.347733,43.7813,146.12885,-4.919159,5.6770377,-5.18776,38.214985,26.107714,-13.695235,-2.907586,2.355966,-1.558296,-89.139858,-57.948735,36.541197
348,3564040606,15.008865,43.583702,146.65724,-4.8572683,5.694495,-5.412683,43.869423,29.988493,-14.405499,-2.98854,2.450874,-1.648507,-88.408701,-57.448927,36.301105
349,3564057273,15.743774,43.410072,147.22311,-4.793864,5.71024,-5.664059,49.79069,34.484978,-14.856402,-3.068438,2.546045,-1.742908,-87.578856,-56.874177,36.053498
350,3564073940,16.42183,43.082947,147.8183,-4.6983294,5.669826,-5.802068,53.638607,38.328033,-15.5972395,-3.146743,2.640542,-1.839609,-86.684879,-56.235376,35.793544
351,3564090607,17.028091,42.589104,148.44028,-4.569182,5.567404,-5.8087735,55.3132,41.693974,-16.616806,-3.222896,2.733332,-1.936422,-85.762992,-55.540476,35.516597
352,3564107274,17.631317,42.01741,149.09334,-4.4187727,5.4295554,-5.7606864,55.649677,44.73725,-17.725397,-3.296542,2.823825,-2.032433,-84.835497,-54.794855,35.221174
353,3564123941,18.193771,41.31984,149.7742,-4.23879,5.2404604,-5.616855,54.003056,47.1877,-19.056553,-3.367189,2.911166,-2.126047,-83.935446,-54.008393,34.903565
354,3564140608,18.788696,40.603745,150.48553,-4.050113,5.03055,-5.4486947,52.03085,50.413845,-20.156158,-3.434691,2.995009,-2.216859,-83.068265,-53.168162,34.567629
355,3564157275,19.420776,39.877136,151.22684,-3.8535504,4.8011274,-5.260855,49.76569,54.453915,-20.999866,-3.498917,3.075028,-2.30454,-82.238837,-52.260597,34.217631
356,3564173942,20.019562,39.04507,151.99329,-3.6313214,4.52257,-4.980657,45.79608,58.414898,-21.923456,-3.559439,3.150404,-2.387551,-81.475569,-51.287015,33.85224
357,3564190609,20.599304,38.130283,152.78471,-3.387537,4.200387,-4.621433,40.43099,62.598454,-22.826256,-3.615898,3.22041,-2.464575,-80.801719,-50.243707,33.471802
358,3564207276,20.9729,37.152943,153.67102,-3.1741328,3.9106555,-4.3441634,38.453876,67.55848,-23.647253,-3.6688,3.285588,-2.536978,-80.160821,-49.117732,33.077681
359,3564223943,21.109589,36.10181,154.6579,-2.993845,3.6560907,-4.1528325,40.138577,73.27512,-24.415892,-3.718697,3.346523,-2.606192,-79.491845,-47.89648,32.670749
360,3564240610,21.104126,34.981514,155.7117,-2.8247375,3.4035015,-3.9780688,43.40948,79.71516,-25.08851,-3.765776,3.403248,-2.672493,-78.768354,-46.567894,32.252607
361,3564257277,20.89679,33.79284,156.85185,-2.6808834,3.17263,-3.8608088,49.56623,87.033195,-25.655651,-3.810457,3.456125,-2.73684,-77.94225,-45.117341,31.825013
362,3564273944,20.573837,32.49893,158.03586,-2.5273137,2.910515,-3.686647,55.426174,94.69356,-26.234331,-3.852579,3.504634,-2.798284,-77.01848,-43.539115,31.387774
363,3564290611,20.13527,31.097223,159.26122,-2.362422,2.6137717,-3.4478583,60.83281,102.719025,-26.820297,-3.891953,3.548197,-2.855748,-76.0046,-41.827131,30.940769
364,3564307278,19.480362,29.60437,160.56625,-2.2160282,2.3255126,-3.2356014,68.51527,111.52792,-27.347443,-3.928887,3.586956,-2.909675,-74.862679,-39.968332,30.484978
365,3564323945,18.620193,28.010311,161.94249,-2.0811162,2.0342858,-3.0246186,77.83147,121.033035,-27.838947,-3.963572,3.620861,-2.960085,-73.565488,-37.951115,30.020996
366,3564340612,19.49414,26.353928,163.23608,-2.0638885,1.7143741,-2.7348099,85.25415,126.90437,-27.894611,-3.99797,3.649434,-3.005665,-72.144585,-35.836042,29.556086
367,3564357279,22.279816,24.638046,164.437,-2.1795726,1.368547,-2.3687596,90.813,128.76498,-27.467709,-4.034296,3.672243,-3.045144,-70.631035,-33.689959,29.098291
368,3564373946,26.069366,22.834888,165.61234,-2.3744159,1.0011871,-1.9464703,95.778625,128.60226,-26.761656,-4.07387,3.688929,-3.077585,-69.034725,-31.546588,28.652263
369,3564390613,31.415573,20.953651,166.7197,-2.6810608,0.6065784,-1.447825,99.278946,125.186195,-25.659452,-4.118554,3.699039,-3.101715,-67.380076,-29.460151,28.224605
370,3564407280,37.170273,18.972797,167.85812,-3.0473447,0.21052974,-0.9412408,104.112305,121.14923,-24.369724,-4.169343,3.702548,-3.117402,-65.644871,-27.440997,27.818443
371,3564423947,43.283813,16.8877,169.03201,-3.4721246,-0.18620461,-0.42802048,110.427444,116.60136,-22.902168,-4.227212,3.699445,-3.124536,-63.804414,-25.497641,27.43674
372,3564440614,50.82892,14.715542,170.15427,-4.0123014,-0.6010721,0.14345741,116.10611,109.11845,-21.045721,-4.294084,3.689427,-3.122145,-61.869312,-23.679,27.085978
373,3564457281,59.59079,12.449833,171.24431,-4.659936,-1.0284557,0.7594812,121.76055,99.19614,-18.837366,-4.37175,3.672286,-3.109487,-59.839969,-22.025731,26.772022
374,3564473948,61.810196,10.630482,172.4234,-5.006504,-1.3598717,1.1055636,125.627426,90.58813,-18.520065,-4.455192,3.649621,-3.091061,-57.746179,-20.515929,26.463354
375,3564490615,56.86473,9.313992,173.69081,-5.0213494,-1.5858138,1.1559446,127.286545,83.28801,-20.286985,-4.538881,3.623191,-3.071795,-55.624737,-19.127796,26.125238
376,3564507282,48.277634,8.242119,175.00061,-4.894143,-1.7528918,1.0489883,127.99065,75.78663,-23.104113,-4.62045,3.593976,-3.054312,-53.49156,-17.864686,25.740169
377,3564523949,33.868362,7.571785,176.38257,-4.511872,-1.829768,0.69532704,127.162125,69.00156,-27.606564,-4.695648,3.56348,-3.042723,-51.372191,-16.71466,25.28006
378,3564540616,18.408905,6.9954605,177.74149,-4.128561,-1.8829134,0.28993893,125.27757,60.036945,-32.443024,-4.764457,3.532098,-3.037891,-49.284231,-15.714044,24.739343
379,3564557283,2.1072693,6.5010605,179.07169,-3.7577405,-1.9139442,-0.16041756,122.38903,48.694084,-37.555233,-4.827086,3.500199,-3.040565,-47.244414,-14.902476,24.113422
380,3564573950,-19.374588,6.3855515,180.44498,-3.172728,-1.8608308,-0.8341541,117.7126,37.15957,-44.18983,-4.879965,3.469185,-3.054468,-45.282537,-14.28315,23.376925
381,3564590617,-45.1252,6.593502,181.84015,-2.4240227,-1.7353292,-1.6951528,111.30446,24.774405,-52.09175,-4.920365,3.440263,-3.082721,-43.427463,-13.870243,22.508729
382,3564607284,-72.75333,6.4730453,183.3115,-1.9631686,-1.6645048,-2.2511668,107.28514,15.850843,-57.23377,-4.953084,3.412521,-3.12024,-41.639377,-13.606062,21.554833
383,3564623951,-102.7013,6.0082893,184.8724,-1.8024316,-1.6508015,-2.4807043,105.89317,11.061621,-59.40318,-4.983125,3.385008,-3.161585,-39.874491,-13.421702,20.56478
384,3564640618,-135.61775,5.480133,186.48227,-1.7590346,-1.6398262,-2.5964513,105.166336,7.9096713,-60.355656,-5.012442,3.357678,-3.204859,-38.121719,-13.289874,19.558852
385,3564657285,-171.10847,4.7228928,188.15884,-1.9502473,-1.6635861,-2.4681907,106.19805,7.7019362,-59.008278,-5.044946,3.329952,-3.245996,-36.351751,-13.161508,18.575381
386,3564673952,-211.86154,4.2046623,189.88855,-2.0518813,-1.6290121,-2.4336572,106.348526,8.478471,-58.048748,-5.079144,3.302802,-3.286557,-34.579276,-13.0202,17.607902
387,3564690619,-258.13123,3.957241,191.66927,-2.0467005,-1.529621,-2.5120654,105.42976,10.112857,-57.619186,-5.113256,3.277308,-3.328425,-32.822113,-12.851652,16.647582
388,3564707286,-308.38547,3.6094055,193.52441,-2.1965656,-1.4382272,-2.4229379,105.69133,14.786388,-55.43546,-5.149865,3.253338,-3.368807,-31.060591,-12.605212,15.723658
389,3564723953,-363.34802,3.2648735,195.45218,-2.432983,-1.3339725,-2.2371879,106.56677,22.161379,-52.0482,-5.190415,3.231105,-3.406093,-29.284478,-12.235856,14.856188
390,3564740620,-391.37262,2.9589882,197.30249,-2.501988,-1.1559744,-2.1438866,103.52643,25.920834,-49.665417,-5.232115,3.211839,-3.441824,-27.559038,-11.803842,14.028431
391,3564757287,-389.19617,2.6518097,199.0653,-2.4110966,-0.9062137,-2.1250825,96.40387,25.828495,-48.19374,-5.2723,3.196735,-3.477242,-25.952307,-11.373367,13.225202
392,3564773954,-372.26794,2.3988838,200.81174,-2.2344675,-0.59837776,-2.1374664,86.95114,24.734566,-46.93484,-5.309541,3.186762,-3.512866,-24.503121,-10.961124,12.442955
393,3564790621,-331.46625,2.1978455,202.5011,-1.9095736,-0.21695372,-2.222683,73.955956,21.008738,-46.40878,-5.341367,3.183146,-3.549911,-23.270522,-10.610978,11.669475
394,3564807288,-284.7433,1.9370766,204.22733,-1.6517711,0.1857208,-2.1968036,60.596764,18.97381,-44.712944,-5.368897,3.186241,-3.586524,-22.260576,-10.294748,10.924259
395,3564823955,-232.9316,1.6175079,205.99643,-1.4687314,0.6091723,-2.0516605,46.993507,18.934208,-41.747784,-5.393376,3.196394,-3.620718,-21.477351,-9.979178,10.228463
396,3564840622,-158.79953,1.2889175,207.72629,-1.2003231,1.0932589,-1.9112716,30.493334,17.366692,-38.88,-5.413381,3.214615,-3.652573,-20.969129,-9.689733,9.580463
397,3564857289,-65.66845,0.92551804,209.43637,-0.8920202,1.6278329,-1.7340231,11.728121,15.2208,-35.683292,-5.428248,3.241746,-3.681473,-20.77366,-9.436053,8.985741
398,3564873956,-3.951065,0.63051605,210.86862,-0.61164856,1.9707003,-1.5223756,-1.8451958,14.025161,-32.583153,-5.438442,3.274591,-3.706846,-20.804413,-9.2023,8.442688
399,3564890623,24.068512,0.4138565,211.98477,-0.34752178,2.1023114,-1.2872887,-9.837913,13.503573,-29.759338,-5.444234,3.30963,-3.728301,-20.968378,-8.97724,7.946699
400,3564907290,40.430283,0.2050438,212.91724,-0.09873676,2.1298072,-0.99605656,-15.365023,13.586376,-26.700214,-5.44588,3.345127,-3.744902,-21.224462,-8.7508,7.501695
401,3564923957,31.794693,0.030284882,213.58627,0.120331764,1.984607,-0.6503401,-16.402975,14.58169,-23.55547,-5.443874,3.378204,-3.755741,-21.497845,-8.507772,7.109104
402,3564940624,32.38922,-0.15971756,214.11697,0.39142323,1.8174591,-0.27741766,-17.993322,14.732688,-20.407452,-5.43735,3.408495,-3.760365,-21.797734,-8.262227,6.76898
403,3564957291,44.211304,-0.3744316,214.51215,0.7155447,1.6339445,0.12763357,-20.357506,14.00201,-17.214647,-5.425424,3.435727,-3.758238,-22.137026,-8.02886,6.482069
404,3564973958,38.721725,-0.56897736,214.63385,1.040412,1.2968025,0.578213,-19.196692,13.50071,-14.071009,-5.408084,3.45734,-3.748601,-22.456971,-7.803848,6.247552
405,3564990625,23.117401,-0.7567749,214.50095,1.3835001,0.8342537,1.0707731,-15.516949,12.842809,-10.992528,-5.385026,3.471244,-3.730755,-22.715587,-7.589801,6.064343
406,3565007292,18.075256,-0.92048264,214.71942,1.5693178,0.5530279,1.4316525,-13.373877,12.182461,-8.722256,-5.358871,3.480461,-3.706894,-22.938485,-7.38676,5.918972
407,3565023959,21.908081,-1.0538177,215.32385,1.5751381,0.46251518,1.6449409,-12.562071,11.62559,-7.370266,-5.332619,3.48817,-3.679478,-23.147853,-7.193,5.796134
408,3565040626,29.523224,-1.1756477,216.0336,1.495759,0.43329602,1.7905641,-11.770807,10.809096,-6.6129255,-5.30769,3.495392,-3.649635,-23.344033,-7.012848,5.685919
409,3565057293,45.569977,-1.2800598,217.01047,1.2795153,0.5448125,1.8187582,-11.932855,9.781535,-6.689039,-5.286365,3.504472,-3.619322,-23.542914,-6.849822,5.574435
410,3565073960,50.528122,-1.3699684,217.85846,1.013114,0.57886785,1.83618,-9.480138,8.728301,-7.1957655,-5.26948,3.51412,-3.588719,-23.700916,-6.70435,5.454506
411,3565090627,43.53273,-1.4473267,218.55179,0.7015772,0.52241045,1.8471322,-4.1999617,7.5991073,-8.142047,-5.257787,3.522827,-3.557933,-23.770915,-6.577698,5.318805
412,3565107294,37.97821,-1.5055237,219.42722,0.25453758,0.55158466,1.7532754,1.3988795,6.331478,-9.963565,-5.253545,3.53202,-3.528712,-23.7476,-6.472173,5.152746
413,3565123961,29.483856,-1.5455132,220.40094,-0.31248093,0.61947626,1.5745935,8.138237,4.944582,-12.60816,-5.258753,3.542345,-3.502469,-23.611963,-6.389763,4.94261
414,3565140628,24.382736,-1.5738068,221.07233,-0.6429739,0.64270157,1.432899,13.244724,3.7808964,-13.472016,-5.269469,3.553057,-3.478587,-23.391218,-6.326748,4.718076
415,3565157295,24.548721,-1.5898361,221.44571,-0.7165303,0.6347702,1.3247187,16.207079,2.8667557,-12.380094,-5.281411,3.563637,-3.456508,-23.1211,-6.278969,4.511741
416,3565173962,23.746094,-1.5911407,221.6553,-0.69382334,0.60346,1.2028997,18.946114,2.0457704,-10.552789,-5.292975,3.573695,-3.43646,-22.805331,-6.244873,4.335861
417,3565190629,23.978165,-1.5789986,221.60117,-0.4789524,0.53170973,1.0957241,20.627165,1.4138894,-7.282502,-5.300958,3.582557,-3.418198,-22.461545,-6.221308,4.214486
418,3565207296,24.786606,-1.548542,221.60242,-0.30462074,0.51300377,0.9029801,22.27743,0.72481984,-4.229982,-5.306035,3.591107,-3.403148,-22.090255,-6.209228,4.143986
419,3565223963,25.60234,-1.4992638,221.67279,-0.18425655,0.550039,0.6170869,24.042322,-0.03475988,-1.4971589,-5.309106,3.600274,-3.392863,-21.68955,-6.209807,4.119033
420,3565240630,28.398315,-1.4345016,221.56863,0.08150387,0.5832848,0.3098588,24.664259,-0.6573739,2.3603203,-5.307748,3.609995,-3.387699,-21.278479,-6.220763,4.158372
421,3565257297,33.016525,-1.3530083,221.35773,0.44460678,0.63361174,-0.042468548,24.346704,-1.1939936,6.999308,-5.300338,3.620555,-3.388407,-20.872701,-6.240663,4.275027
422,3565273964,35.277496,-1.2847328,221.32089,0.62185097,0.6185823,-0.3021841,25.731922,-1.7783318,9.095168,-5.289974,3.630865,-3.393443,-20.443836,-6.270302,4.426613
423,3565290631,35.188583,-1.2329521,221.45792,0.612031,0.5250258,-0.44885397,28.861559,-2.395589,8.510776,-5.279773,3.639615,-3.400924,-19.96281,-6.310228,4.568459
424,3565307298,34.693893,-1.1826401,221.68317,0.5182104,0.40741426,-0.5652733,32.583218,-3.0147417,6.5925784,-5.271136,3.646405,-3.410345,-19.419756,-6.360474,4.678335
425,3565323965,32.817078,-1.1424408,222.06958,0.2685938,0.24165934,-0.6107416,37.553158,-3.6640377,2.4518328,-5.266659,3.650433,-3.420524,-18.79387,-6.421541,4.719199
426,3565340632,32.369827,-1.0957718,222.39188,0.08035469,0.060806453,-0.6491103,41.902092,-4.2096353,-1.6103944,-5.26532,3.651446,-3.431343,-18.095502,-6.491702,4.692359
427,3565357299,33.630936,-1.04179,222.64435,-0.036221504,-0.13079512,-0.6860404,45.4903,-4.644477,-5.492443,-5.265924,3.649266,-3.442777,-17.33733,-6.56911,4.600818
428,3565373966,34.447342,-0.9966316,223.0036,-0.25025177,-0.3708673,-0.65309477,49.78571,-5.0562086,-11.119704,-5.270095,3.643085,-3.453662,-16.507568,-6.65338,4.41549
429,3565390633,35.50084,-0.9572258,223.42465,-0.5156145,-0.6526433,-0.56251,54.365143,-5.413552,-18.02727,-5.278689,3.632208,-3.463037,-15.601482,-6.743606,4.115036
430,3565407300,36.207565,-0.9045334,223.8713,-0.63679504,-0.80417734,-0.49409676,56.692192,-5.384864,-22.006243,-5.289302,3.618805,-3.471272,-14.656612,-6.833354,3.748265
431,3565423967,36.30464,-0.83932877,224.3635,-0.61436844,-0.8143012,-0.4440961,56.67009,-4.942449,-22.894087,-5.299541,3.605233,-3.478674,-13.712111,-6.915728,3.366697
432,3565440634,36.592087,-0.76911163,224.89069,-0.50895023,-0.76015115,-0.3806076,55.18189,-4.2166452,-22.379332,-5.308024,3.592564,-3.485017,-12.792413,-6.986005,2.993708
433,3565457301,36.869797,-0.6896057,225.45093,-0.27010155,-0.5947147,-0.3211727,51.531746,-3.110529,-19.340101,-5.312526,3.582652,-3.49037,-11.933551,-7.037847,2.671373
434,3565473968,37.042175,-0.61675644,226.11652,-0.05454254,-0.4267733,-0.19979095,47.516582,-1.8323652,-16.734629,-5.313435,3.575539,-3.4937,-11.141608,-7.068386,2.392463
435,3565490635,37.197693,-0.5519028,226.89185,0.13331795,-0.26185244,-0.0105443,43.16794,-0.38362873,-14.694121,-5.311213,3.571175,-3.493876,-10.422142,-7.07478,2.147561
436,3565507302,37.21611,-0.48392868,227.74304,0.41562748,-0.004250109,0.20090008,36.958527,1.4304042,-10.763518,-5.304286,3.571104,-3.490528,-9.806167,-7.05094,1.968169
437,3565523969,37.09944,-0.4167366,228.68933,0.760766,0.3243569,0.4509387,29.221567,3.5749266,-5.5438185,-5.291607,3.57651,-3.483012,-9.319141,-6.991358,1.875772
438,3565540636,37.14604,-0.37051392,229.35684,0.960392,0.49280065,0.6245985,23.484457,4.76693,-2.2079592,-5.2756,3.584723,-3.472602,-8.927733,-6.911909,1.838973
439,3565557303,37.358047,-0.3465004,229.7088,1.0091162,0.49153608,0.7068491,19.873005,4.909101,-0.7421185,-5.258781,3.592915,-3.460821,-8.596516,-6.830091,1.826604
440,3565573970,37.598038,-0.3384056,229.93787,0.98459625,0.4163013,0.7648163,16.909908,4.5884967,-0.02830863,-5.242371,3.599853,-3.448074,-8.314684,-6.753616,1.826132
441,3565590637,37.936966,-0.3521309,229.93875,0.8318062,0.20561314,0.76531434,15.5204525,3.4482553,-0.8619722,-5.228508,3.60328,-3.435319,-8.05601,-6.696145,1.811766
442,3565607304,38.20952,-0.37403107,229.92276,0.70512486,0.019473612,0.7659569,13.201063,2.2897024,-0.7312225,-5.216756,3.603605,-3.422553,-7.835992,-6.657983,1.799579
443,3565623971,38.400635,-0.40436554,229.90396,0.61061096,-0.13427615,0.7719004,9.812811,1.1521204,0.48331988,-5.206579,3.601367,-3.409688,-7.672445,-6.638781,1.807634
444,3565640638,38.649582,-0.45558167,229.6838,0.42327213,-0.38886246,0.72499585,7.3969264,-0.68166333,0.8602315,-5.199524,3.594886,-3.397605,-7.549163,-6.650142,1.821971
445,3565657305,38.918976,-0.5255699,229.30438,0.17450619,-0.71143657,0.6368468,5.424002,-3.05452,0.9384093,-5.196616,3.583029,-3.386991,-7.458763,-6.701051,1.837611
446,3565673972,39.066406,-0.5637665,229.15018,0.029699326,-0.9135895,0.57639456,3.1787581,-4.284592,1.0517428,-5.196121,3.567803,-3.377384,-7.405784,-6.772461,1.85514
447,3565690639,39.094284,-0.5672684,229.22961,-0.011033058,-0.994234,0.5412669,0.8522854,-4.308676,1.0080302,-5.196305,3.551232,-3.368363,-7.391579,-6.844272,1.871941
448,3565707306,39.043304,-0.5590782,229.38577,-0.0056066513,-1.0212204,0.50526786,-1.5640512,-3.827078,1.0181619,-5.196398,3.534212,-3.359942,-7.417647,-6.908057,1.88891
449,3565723973,38.877335,-0.52560425,229.7172,0.08795929,-0.9465084,0.48423648,-4.187315,-2.3964496,1.1127503,-5.194932,3.518437,-3.351871,-7.487436,-6.947998,1.907456
450,3565740640,38.71086,-0.50035477,229.94666,0.13957024,-0.9151119,0.42225933,-6.0628524,-1.190911,0.5998956,-5.192606,3.503185,-3.344833,-7.588484,-6.967847,1.917454
451,3565757307,38.54654,-0.48534012,230.0581,0.14352703,-0.93355626,0.31515217,-7.152798,-0.27215356,-0.52379835,-5.190214,3.487626,-3.33958,-7.707697,-6.972383,1.908724
452,3565773974,38.2959,-0.45210266,230.27307,0.2003851,-0.8886125,0.20298386,-8.002329,1.3275726,-1.9063402,-5.186874,3.472816,-3.336197,-7.841069,-6.950257,1.876952
453,3565790641,37.98178,-0.40766525,230.53186,0.28265476,-0.8108482,0.072525024,-8.383342,3.3634717,-3.7062674,-5.182163,3.459302,-3.334988,-7.980791,-6.894199,1.815181
454,3565807308,37.697144,-0.40372086,230.75815,0.32460976,-0.75504375,-0.020369053,-8.863039,4.6636395,-4.7545857,-5.176753,3.446718,-3.335327,-8.128508,-6.816472,1.735938
455,3565823975,37.439835,-0.44169235,230.97147,0.331769,-0.71278435,-0.066438675,-9.521016,5.2366786,-4.922728,-5.171224,3.434838,-3.336434,-8.287192,-6.729194,1.653893
456,3565840642,37.18065,-0.50180054,231.16763,0.31656742,-0.6786384,-0.102032185,-9.901567,5.475586,-4.8890543,-5.165948,3.423527,-3.338135,-8.452218,-6.637934,1.572409
457,3565857309,36.94252,-0.59762573,231.33316,0.2637148,-0.66403246,-0.110535145,-10.151922,5.085461,-4.3291764,-5.161553,3.41246,-3.339977,-8.621417,-6.553176,1.500256
458,3565873976,36.64644,-0.6918793,231.56937,0.23772812,-0.60719854,-0.11552715,-10.050282,5.0010767,-3.837544,-5.157591,3.40234,-3.341902,-8.788922,-6.469825,1.436297
459,3565890643,36.289078,-0.7829704,231.87863,0.24027252,-0.5063838,-0.1197381,-9.533514,5.261181,-3.4748597,-5.153586,3.3939,-3.343898,-8.947814,-6.382139,1.378383
460,3565907310,35.929016,-0.9013634,232.20145,0.22654247,-0.40115142,-0.09658098,-8.824043,5.149424,-2.6646533,-5.14981,3.387214,-3.345508,-9.094881,-6.296315,1.333972
461,3565923977,35.549164,-1.0394287,232.56082,0.21028423,-0.2777593,-0.050731182,-7.853263,4.863028,-1.5341686,-5.146305,3.382585,-3.346354,-9.225769,-6.215265,1.308403
462,3565940644,35.234375,-1.1498642,232.81375,0.20019531,-0.19671437,-0.02236414,-7.396266,4.751275,-0.69654405,-5.142968,3.379306,-3.346727,-9.34904,-6.136077,1.296794
463,3565957311,34.99991,-1.2319221,232.94208,0.1925106,-0.16743323,-0.010942936,-7.553242,4.7632775,-0.1284188,-5.139759,3.376515,-3.346909,-9.474927,-6.056689,1.294654
464,3565973978,34.794357,-1.3030281,233.03104,0.19285583,-0.1511941,0.00020217896,-7.903126,4.867307,0.38130605,-5.136545,3.373995,-3.346906,-9.606646,-5.975567,1.301009
465,3565990645,34.64415,-1.3509216,233.03995,0.20273781,-0.16573599,0.0015993118,-8.674158,5.1382008,0.68969977,-5.133166,3.371233,-3.346879,-9.751215,-5.88993,1.312504
466,3566007312,34.51602,-1.4112701,233.03745,0.20535755,-0.1859135,0.023831367,-9.446081,5.1838803,1.2986667,-5.129743,3.368134,-3.346482,-9.90865,-5.803532,1.334148
467,3566023979,34.40782,-1.4856033,233.03049,0.20125008,-0.2088182,0.06934929,-10.192212,4.995421,2.238688,-5.126389,3.364654,-3.345326,-10.07852,-5.720275,1.371459
468,3566040646,34.361008,-1.5455742,232.94913,0.20007133,-0.2627512,0.1154995,-11.32881,4.8274465,3.146216,-5.123054,3.360275,-3.343401,-10.267333,-5.639818,1.423896
469,3566057313,34.370483,-1.5985985,232.80765,0.19847202,-0.34272367,0.16949844,-12.776018,4.5944476,4.1355424,-5.119746,3.354563,-3.340576,-10.480267,-5.563244,1.492822
470,3566073980,34.345245,-1.6659355,232.72293,0.1990509,-0.38689786,0.21532583,-13.233974,4.445747,4.8314505,-5.116428,3.348115,-3.336987,-10.700833,-5.489148,1.573346
471,3566090647,34.284576,-1.7460976,232.69586,0.20290184,-0.3938748,0.2492032,-12.638969,4.419016,5.1598434,-5.113046,3.34155,-3.332834,-10.911482,-5.415498,1.659343
472,3566107314,34.23065,-1.8339043,232.67941,0.20644665,-0.39029944,0.28412056,-11.560974,4.381053,5.38106,-5.109605,3.335045,-3.328099,-11.104165,-5.34248,1.749027
473,3566123981,34.161636,-1.9342766,232.70267,0.21051884,-0.36052704,0.31509447,-9.6537285,4.3776193,5.3795595,-5.106096,3.329036,-3.322847,-11.26506,-5.26952,1.838686
474,3566140648,34.143875,-2.0272942,232.6795,0.21656895,-0.34801707,0.34647894,-7.786955,4.387197,5.286358,-5.102487,3.323236,-3.317072,-11.394843,-5.1964,1.926792
475,3566157315,34.183533,-2.1121788,232.60449,0.22426224,-0.3557361,0.37935352,-6.009771,4.3980074,5.118721,-5.098749,3.317307,-3.310749,-11.495006,-5.1231,2.012104
476,3566173982,34.2305,-2.2028618,232.54468,0.233572,-0.3490134,0.40711784,-3.589006,4.460623,4.706386,-5.094856,3.31149,-3.303964,-11.554823,-5.048756,2.090544
477,3566190649,34.300705,-2.294979,232.48102,0.24475479,-0.33745304,0.43070078,-0.7054415,4.5695944,4.07314,-5.090777,3.305866,-3.296786,-11.56658,-4.972596,2.15843
478,3566207316,34.356888,-2.3861961,232.43527,0.25505543,-0.32319742,0.45150352,1.0962687,4.6052995,3.6821194,-5.086526,3.300479,-3.289261,-11.548309,-4.895841,2.219799
479,3566223983,34.390472,-2.477665,232.41739,0.2643156,-0.30234793,0.46839714,1.7575912,4.565972,3.5475576,-5.082121,3.29544,-3.281454,-11.519016,-4.819741,2.278925
480,3566240650,34.431274,-2.567295,232.40387,0.27404308,-0.2805395,0.48106122,1.8881474,4.506214,3.4594264,-5.077554,3.290764,-3.273436,-11.487547,-4.744637,2.336582
481,3566257317,34.467728,-2.6546593,232.4032,0.28353882,-0.25717196,0.48925495,1.0753465,4.396805,3.5353384,-5.072828,3.286478,-3.265282,-11.469625,-4.671357,2.395504
482,3566273984,34.511063,-2.7445946,232.4195,0.29428005,-0.2224459,0.49043536,0.40390205,4.3180857,3.4585075,-5.067923,3.282771,-3.257108,-11.462893,-4.599389,2.453146
483,3566290651,34.563812,-2.836811,232.45187,0.30643463,-0.17641294,0.48406172,-0.0814023,4.2769065,3.2050984,-5.062816,3.279831,-3.24904,-11.46425,-4.528107,2.506564
484,3566307318,34.6102,-2.9285164,232.50668,0.3187008,-0.12303156,0.47079158,-1.2833123,4.2097397,3.0304418,-5.057504,3.27778,-3.241193,-11.485639,-4.457945,2.557071
485,3566323985,34.652634,-3.0205727,232.5856,0.3314228,-0.059959948,0.44965887,-2.9836702,4.1351633,2.8637018,-5.05198,3.276781,-3.233699,-11.535367,-4.389026,2.604799
486,3566340652,34.71501,-3.0669823,232.64987,0.3260231,-0.033862233,0.41733646,-3.337474,3.6131766,2.4891138,-5.046546,3.276217,-3.226743,-11.590992,-4.328806,2.646284
487,3566357319,34.79686,-3.0626564,232.69821,0.30042648,-0.049319804,0.37309027,-2.281766,2.591564,1.9146521,-5.041539,3.275395,-3.220525,-11.629021,-4.285613,2.678195
488,3566373986,34.888077,-3.029705,232.75137,0.26356125,-0.08241725,0.31736517,-0.5485468,1.2895277,1.1917986,-5.037146,3.274021,-3.215236,-11.638163,-4.264121,2.698058
489,3566390653,34.994125,-2.954647,232.79996,0.20995998,-0.14629841,0.24881124,2.3507352,-0.42281985,0.26656914,-5.033647,3.271583,-3.211089,-11.598984,-4.271168,2.702501
490,3566407320,35.097305,-2.8628654,232.86923,0.14996243,-0.21488616,0.16879845,5.1007705,-2.3080666,-0.675789,-5.031148,3.268002,-3.208276,-11.513971,-4.309636,2.691238
491,3566423987,35.195984,-2.7552376,232.96213,0.08392525,-0.2864897,0.07678938,7.6422067,-4.356718,-1.632177,-5.029749,3.263227,-3.206996,-11.386601,-4.382248,2.664035
492,3566440654,35.303314,-2.6066856,233.05887,0.0016517639,-0.38578126,-0.029472351,11.055834,-6.80681,-2.7420115,-5.029721,3.256797,-3.207487,-11.202337,-4.495695,2.618335
493,3566457321,35.414963,-2.4216576,233.1658,-0.095048904,-0.5076201,-0.1502037,15.072262,-9.616752,-3.9683514,-5.031305,3.248337,-3.20999,-10.951133,-4.655974,2.552196
494,3566473988,35.4937,-2.2501411,233.3295,-0.1525116,-0.56862867,-0.22240782,17.35895,-11.619763,-4.877541,-5.033847,3.23886,-3.213697,-10.661817,-4.849637,2.470904
495,3566490655,35.536896,-2.0928001,233.55298,-0.16702366,-0.56414145,-0.24038124,17.822847,-12.738417,-5.4428706,-5.036631,3.229458,-3.217703,-10.36477,-5.061944,2.380189
496,3566507322,35.55858,-1.92799,233.81943,-0.16297626,-0.5304159,-0.23423386,17.387716,-13.502295,-5.8439116,-5.039347,3.220618,-3.221607,-10.074975,-5.286982,2.28279
497,3566523989,35.54802,-1.7680855,234.14221,-0.1256218,-0.44487953,-0.18613625,15.428347,-13.5922785,-5.960472,-5.041441,3.213203,-3.224709,-9.817836,-5.51352,2.183449
498,3566540656,35.52919,-1.5762558,234.49094,-0.08900833,-0.36243472,-0.1335702,13.582504,-13.753686,-6.081639,-5.042924,3.207162,-3.226935,-9.591461,-5.742748,2.082088
499,3566557323,35.502243,-1.3497086,234.86557,-0.054908752,-0.285823,-0.07841587,11.91724,-14.026343,-6.217802,-5.043839,3.202398,-3.228242,-9.39284,-5.97652,1.978458
500,3566573990,35.445236,-1.1168861,235.2937,0.006688118,-0.16786608,0.01401186,9.066557,-13.757931,-6.1170273,-5.043728,3.1996,-3.228008,-9.241731,-6.205819,1.876508
501,3566590657,35.36226,-0.86935043,235.7702,0.08897877,-0.019646108,0.13650846,5.3591084,-13.098576,-5.8349385,-5.042245,3.199273,-3.225733,-9.152413,-6.424129,1.779259
502,3566607324,35.28923,-0.6290474,236.10352,0.14042854,0.09183878,0.20530272,2.285367,-12.718984,-5.3596377,-5.039905,3.200804,-3.222311,-9.114324,-6.636112,1.689932
503,3566623991,35.225937,-0.401268,236.27878,0.16019249,0.16649032,0.21731377,-0.19420719,-12.592515,-4.6513753,-5.037235,3.203579,-3.218689,-9.117561,-6.845987,1.612409
504,3566640658,35.157272,-0.16962051,236.38351,0.16848946,0.22910011,0.20800161,-2.580808,-12.4927025,-3.745698,-5.034427,3.207397,-3.215222,-9.160574,-7.054199,1.549981
505,3566657325,35.09178,0.05878067,236.3642,0.15213966,0.26284552,0.15540981,-4.515029,-12.576239,-2.6228123,-5.031891,3.211778,-3.212632,-9.235824,-7.263803,1.506267
506,3566673992,35.00148,0.28993225,236.34006,0.14930725,0.3195305,0.117918015,-7.24383,-12.272822,-1.2130948,-5.029403,3.217104,-3.210667,-9.356555,-7.46835,1.486049
507,3566690659,34.884155,0.52477264,236.31668,0.1620369,0.40184814,0.098828316,-10.833103,-11.548314,0.49376,-5.026702,3.223801,-3.20902,-9.537107,-7.660822,1.494278
508,3566707326,34.760513,0.7536926,236.18695,0.16014671,0.4698674,0.05022192,-14.368002,-10.811155,2.490213,-5.024033,3.231632,-3.208183,-9.776574,-7.841008,1.535782
509,3566723993,34.623962,0.97759247,235.97394,0.15180397,0.5347834,-0.015571594,-18.12547,-9.931019,4.801822,-5.021503,3.240545,-3.208443,-10.078665,-8.006525,1.615812
510,3566740660,34.484818,1.1461906,235.79208,0.14857674,0.55358833,-0.058395386,-21.196072,-8.906368,6.6300163,-5.019027,3.249771,-3.209416,-10.431933,-8.154964,1.726312
511,3566757327,34.346054,1.2522011,235.63663,0.1479311,0.51715463,-0.080382824,-23.39035,-7.7758083,7.9055305,-5.016561,3.25839,-3.210756,-10.821772,-8.284561,1.858071
512,3566773994,34.197815,1.318943,235.4664,0.14991951,0.45324475,-0.09235811,-25.333002,-6.4424376,9.031626,-5.014062,3.265944,-3.212295,-11.243989,-8.391935,2.008598
513,3566790661,34.04341,1.3305855,235.30768,0.15672779,0.34795147,-0.08481121,-26.737701,-4.9118724,9.7872925,-5.01145,3.271743,-3.213709,-11.689617,-8.4738,2.17172
514,3566807328,33.88141,1.3127098,235.06308,0.15384007,0.21560478,-0.09354496,-27.90207,-3.2780933,10.645258,-5.008886,3.275336,-3.215268,-12.154651,-8.528435,2.349141
515,3566823995,33.71086,1.2651253,234.72577,0.14090538,0.05712235,-0.119959354,-28.860098,-1.5285492,11.638154,-5.006538,3.276288,-3.217267,-12.635653,-8.553911,2.54311
516,3566840662,33.53543,1.1597366,234.36444,0.12673283,-0.1478576,-0.13839388,-29.198536,0.3806731,12.336727,-5.004426,3.273824,-3.219574,-13.122295,-8.547566,2.748722
517,3566857329,33.354645,1.0,233.95618,0.10805893,-0.3975247,-0.15662146,-28.964613,2.43461,12.83795,-5.002625,3.267199,-3.222184,-13.605039,-8.506989,2.962688
518,3566873996,33.22171,0.890522,233.62082,0.097167015,-0.5781023,-0.16842556,-28.136717,3.9189208,13.007241,-5.001006,3.257564,-3.224991,-14.073984,-8.441674,3.179475
519,3566890663,33.142776,0.83616257,233.37656,0.095918655,-0.6825206,-0.17045927,-26.625103,4.764448,12.76705,-4.999407,3.246189,-3.227832,-14.517736,-8.362267,3.392259
520,3566907330,33.09291,0.78796387,233.14966,0.09601402,-0.7645822,-0.17114735,-24.442064,5.296527,12.236671,-4.997807,3.233446,-3.230684,-14.925104,-8.273992,3.596204
521,3566923997,33.087982,0.77318954,232.97546,0.100961685,-0.7937684,-0.16805887,-21.533787,5.307972,11.350833,-4.996124,3.220217,-3.233485,-15.284,-8.185526,3.785385
522,3566940664,33.098434,0.7212486,232.79984,0.10576248,-0.84261453,-0.15821743,-17.776615,5.2274523,10.066995,-4.994361,3.206173,-3.236122,-15.580277,-8.098402,3.953168
523,3566957331,33.123474,0.62688446,232.61752,0.10965824,-0.9159601,-0.14214039,-13.126453,5.0690784,8.373474,-4.992533,3.190907,-3.238491,-15.799051,-8.013917,4.092726
524,3566973998,33.19278,0.54821396,232.48721,0.11816406,-0.9513394,-0.11900902,-7.564702,4.4290257,6.2179904,-4.990564,3.175051,-3.240474,-15.925129,-7.9401,4.196359
525,3566990665,33.301346,0.4696617,232.3984,0.13017273,-0.9640425,-0.08808613,-1.0271058,3.384588,3.5735574,-4.988394,3.158984,-3.241942,-15.942247,-7.88369,4.255918
526,3567007332,33.386246,0.39410782,232.34494,0.1366539,-0.9664408,-0.06709862,3.773193,2.8091965,1.6750896,-4.986116,3.142877,-3.24306,-15.87936,-7.83687,4.283836
527,3567023999,33.446426,0.32902908,232.3364,0.1375637,-0.9512143,-0.057245255,6.600825,2.7241209,0.61909235,-4.983823,3.127023,-3.244014,-15.769346,-7.791468,4.294154
528,3567040666,33.509735,0.2625122,232.37088,0.13649082,-0.92214704,-0.049382687,8.808025,2.7551813,-0.21193063,-4.981548,3.111654,-3.244837,-15.622546,-7.745548,4.290622
529,3567057333,33.56053,0.19768524,232.45148,0.1311922,-0.87963015,-0.048195362,9.641022,3.1247513,-0.48105514,-4.979361,3.096993,-3.24564,-15.461862,-7.693469,4.282604
530,3567074000,33.644928,0.14736938,232.59888,0.12821865,-0.7998268,-0.043156147,10.720055,3.2031715,-0.9384378,-4.977224,3.083663,-3.246359,-15.283194,-7.640083,4.266963
531,3567090667,33.76654,0.111629486,232.81686,0.12796974,-0.6812321,-0.033340454,12.150791,2.9483888,-1.6380478,-4.975091,3.072309,-3.246915,-15.080681,-7.590943,4.239662
532,3567107334,33.88968,0.08781433,233.10077,0.12532616,-0.53459674,-0.027953148,12.462395,2.859684,-1.913787,-4.973002,3.063399,-3.247381,-14.872974,-7.543282,4.207766
533,3567124001,34.02498,0.079422,233.45825,0.12171745,-0.35349533,-0.024672508,11.983929,2.7979264,-1.9229704,-4.970973,3.057507,-3.247792,-14.673242,-7.49665,4.175716
534,3567140668,34.156982,0.038463593,233.72864,0.11950588,-0.22783688,-0.020922184,11.962374,2.918594,-2.029642,-4.968981,3.05371,-3.248141,-14.473869,-7.448007,4.141889
535,3567157335,34.28038,-0.03873825,233.89856,0.11832905,-0.1661601,-0.017653942,12.3056965,3.29657,-2.1764803,-4.967009,3.050941,-3.248435,-14.268774,-7.393064,4.105614
536,3567174002,34.410095,-0.12610245,234.05194,0.11808109,-0.12034351,-0.014549732,12.619469,3.762798,-2.2892551,-4.965041,3.048935,-3.248677,-14.05845,-7.330351,4.06746
537,3567190669,34.540726,-0.23633957,234.14502,0.11927605,-0.11524892,-0.011287689,13.175806,4.379835,-2.437069,-4.963053,3.047014,-3.248865,-13.838853,-7.257354,4.026842
538,3567207336,34.673065,-0.34140015,234.27386,0.11928177,-0.10003126,-0.011642456,12.846182,5.182219,-2.2316585,-4.961065,3.045347,-3.249059,-13.62475,-7.170984,3.989648
539,3567224003,34.808014,-0.4384842,234.44641,0.11807442,-0.070519626,-0.015776634,11.5546665,6.1651707,-1.6489934,-4.959097,3.044172,-3.249322,-13.432172,-7.068231,3.962165
540,3567240670,34.940247,-0.5522461,234.57715,0.117383,-0.07366431,-0.02169323,10.066423,7.374123,-0.9282054,-4.957141,3.042944,-3.249684,-13.264398,-6.945329,3.946695
541,3567257337,35.069687,-0.67633057,234.68674,0.11666107,-0.09878874,-0.030322075,8.112602,8.8236,0.025618315,-4.955197,3.041298,-3.250189,-13.129188,-6.798269,3.947122
542,3567274004,35.15805,-0.7975426,234.81006,0.112493515,-0.10264313,-0.033046246,6.3646474,9.627296,0.6810007,-4.953322,3.039587,-3.25074,-13.023111,-6.637814,3.958472
543,3567290671,35.199905,-0.9176979,234.93881,0.10470104,-0.08767527,-0.028955936,4.9496512,9.714801,0.9713405,-4.951577,3.038126,-3.251223,-12.940617,-6.475901,3.974661
544,3567307338,35.21254,-1.0386696,235.0698,0.0944891,-0.0677402,-0.022889614,3.3405042,9.522419,1.224178,-4.950002,3.036997,-3.251604,-12.884942,-6.317194,3.995064
545,3567324005,35.18387,-1.1576729,235.20865,0.08089638,-0.03302729,-0.012450695,1.731565,8.806751,1.2904041,-4.948654,3.036447,-3.251812,-12.856083,-6.170415,4.016571
546,3567340672,35.134033,-1.2881851,235.31317,0.06634426,-0.020932615,-0.0022563934,-0.10669899,8.098806,1.4312928,-4.947548,3.036098,-3.25185,-12.857861,-6.035435,4.040426
547,3567357339,35.062897,-1.4306107,235.38101,0.05086708,-0.033712327,0.00727129,-2.2291975,7.4336667,1.6775839,-4.9467,3.035536,-3.251729,-12.895014,-5.911541,4.068386
548,3567374006,34.94861,-1.576107,235.43637,0.032367706,-0.045104444,0.020511627,-4.3573055,6.3337374,1.770695,-4.946161,3.034784,-3.251387,-12.967636,-5.805979,4.097898
549,3567390673,34.7939,-1.7276497,235.46875,0.011284828,-0.06373978,0.03648758,-6.5491595,4.9077444,1.7680315,-4.945973,3.033722,-3.250779,-13.076789,-5.724183,4.127365
550,3567407340,34.670074,-1.837307,235.50839,-0.005003929,-0.07985884,0.044822693,-8.348609,3.7534125,1.8119775,-4.946056,3.032391,-3.250032,-13.215932,-5.661626,4.157565
551,3567424007,34.579865,-1.8993568,235.55908,-0.016076088,-0.09011048,0.045104027,-9.666164,2.861811,1.87875,-4.946324,3.030889,-3.24928,-13.377035,-5.613929,4.188877
552,3567440674,34.489975,-1.9384499,235.59778,-0.025168419,-0.105630875,0.041602135,-10.752453,2.0170283,1.936687,-4.946743,3.029128,-3.248587,-13.556243,-5.580312,4.221155
553,3567457341,34.4187,-1.940548,235.63226,-0.030282974,-0.123312294,0.031563282,-11.45685,1.3645513,2.011578,-4.947248,3.027073,-3.248061,-13.747191,-5.557569,4.254681
554,3567474008,34.31703,-1.9309196,235.64917,-0.036319733,-0.14291412,0.022089005,-11.982094,0.42904192,1.9565978,-4.947853,3.024691,-3.247693,-13.946893,-5.550418,4.287291
555,3567490675,34.18106,-1.9108391,235.64532,-0.04353428,-0.16561121,0.013520241,-12.329392,-0.81647575,1.7613591,-4.948579,3.021931,-3.247468,-14.152383,-5.564026,4.316647
556,3567507342,34.05043,-1.854847,235.63327,-0.0477314,-0.18891013,-8.106232e-05,-12.250717,-2.0159366,1.5150026,-4.949375,3.018782,-3.247469,-14.356562,-5.597625,4.341897
557,3567524009,33.91411,-1.7675209,235.60919,-0.049910545,-0.21301386,-0.017264366,-11.771212,-3.2748272,1.180747,-4.950207,3.015232,-3.247757,-14.552749,-5.652205,4.361576
558,3567540676,33.764603,-1.6877937,235.62927,-0.042271614,-0.22947532,-0.021864414,-11.351704,-4.3471904,0.84192336,-4.950912,3.011407,-3.248121,-14.741944,-5.724658,4.375608
559,3567557343,33.605835,-1.6152306,235.70053,-0.023418427,-0.236895,-0.013039112,-10.984394,-5.1691523,0.51067865,-4.951302,3.007459,-3.248338,-14.925017,-5.810811,4.384119
560,3567574010,33.433487,-1.5334396,235.79324,0.002409935,-0.23932171,0.0025372505,-10.44796,-5.9309926,0.116702676,-4.951262,3.00347,-3.248296,-15.09915,-5.909661,4.386064
561,3567590677,33.24678,-1.4516182,235.92407,0.037721634,-0.23401207,0.029262543,-9.845697,-6.5516706,-0.31861222,-4.950633,2.99957,-3.247808,-15.263245,-6.018856,4.380754
562,3567607344,33.059433,-1.3393707,236.06223,0.07923794,-0.225562,0.056213856,-8.818401,-7.084962,-0.82859814,-4.949312,2.995811,-3.246871,-15.410218,-6.136939,4.366944
563,3567624011,32.8714,-1.194191,236.20605,0.12692642,-0.21395233,0.08294153,-7.3255157,-7.540661,-1.4236649,-4.947197,2.992245,-3.245489,-15.53231,-6.262617,4.343216
564,3567640678,32.6754,-1.038372,236.38586,0.1848383,-0.19421357,0.11878395,-5.620179,-7.816017,-2.071444,-4.944116,2.989008,-3.243509,-15.62598,-6.392884,4.308692
565,3567657345,32.474487,-0.8646927,236.59592,0.2525692,-0.16698736,0.16158104,-3.6092288,-7.917407,-2.782915,-4.939907,2.986225,-3.240816,-15.686134,-6.524841,4.26231
566,3567674012,32.322403,-0.7160492,236.75833,0.2960415,-0.14460534,0.18651247,-2.1765084,-7.9172816,-3.146718,-4.934973,2.983815,-3.237707,-15.722409,-6.656796,4.209865
567,3567690679,32.224304,-0.59887314,236.87021,0.31265068,-0.12730682,0.19239235,-1.4290588,-7.798341,-3.1181636,-4.929762,2.981693,-3.2345,-15.746227,-6.786768,4.157896
568,3567707346,32.157547,-0.48752975,236.96545,0.31842518,-0.10935795,0.18958712,-0.87551355,-7.521398,-2.8994422,-4.924455,2.97987,-3.23134,-15.760819,-6.912125,4.109572
569,3567724013,32.13797,-0.39474487,237.02374,0.30394554,-0.09379667,0.17142057,-0.770185,-7.0931845,-2.3708978,-4.919389,2.978307,-3.228483,-15.773655,-7.030345,4.070057
570,3567740680,32.133133,-0.3005829,237.09906,0.2902584,-0.071692586,0.15483427,-0.6465621,-6.4366674,-1.7657748,-4.914551,2.977112,-3.225902,-15.784431,-7.137623,4.040627
571,3567757347,32.14261,-0.2033577,237.19476,0.2785387,-0.04226023,0.14061928,-0.46864653,-5.5359607,-1.094545,-4.909909,2.976408,-3.223558,-15.792242,-7.229889,4.022385
572,3567774014,32.19745,-0.12450409,237.2667,0.24996948,-0.012376964,0.114479065,-0.69545364,-4.426011,-0.13180482,-4.905743,2.976202,-3.22165,-15.803833,-7.303656,4.020188
573,3567790681,32.29225,-0.060253143,237.32648,0.20876026,0.020064771,0.07984257,-1.2344313,-3.08004,1.0796993,-4.902264,2.976536,-3.220319,-15.824407,-7.35499,4.038183
574,3567807348,32.34575,-0.007820129,237.37729,0.18447876,0.0394755,0.058103085,-1.5432,-1.9905145,1.9324893,-4.899189,2.977194,-3.219351,-15.850127,-7.388165,4.070391
575,3567824015,32.355164,0.029266357,237.41382,0.17733955,0.043558,0.04944229,-1.6403532,-1.2019322,2.402454,-4.896233,2.97792,-3.218527,-15.877466,-7.408197,4.110432
576,3567840682,32.356613,0.05133438,237.4422,0.1758995,0.0411824,0.04591036,-1.7315989,-0.45551825,2.7544823,-4.893301,2.978606,-3.217762,-15.906326,-7.415789,4.15634
577,3567857349,32.329117,0.057380676,237.46149,0.18759727,0.027672172,0.052955627,-1.6921926,0.112963855,2.8295815,-4.890174,2.979067,-3.216879,-15.934529,-7.413906,4.2035
578,3567874016,32.329865,0.03931427,237.45844,0.19009209,0.010471404,0.054264545,-1.9650064,0.7933008,3.046359,-4.887006,2.979242,-3.215975,-15.967279,-7.400684,4.254273
579,3567890683,32.362793,-0.0043411255,237.43256,0.18212128,-0.009936571,0.049040794,-2.5830848,1.608491,3.4304786,-4.883971,2.979076,-3.215158,-16.01033,-7.373876,4.311448
580,3567907350,32.38188,-0.07157135,237.38889,0.18104553,-0.04154694,0.050038815,-3.229559,2.296316,3.6376936,-4.880954,2.978384,-3.214324,-16.064156,-7.335604,4.372076
581,3567924017,32.399765,-0.16533661,237.32385,0.18200493,-0.08303231,0.05379057,-4.009251,2.9180095,3.7574124,-4.877921,2.977,-3.213427,-16.130977,-7.286971,4.4347
582,3567940684,32.440536,-0.23815536,237.26617,0.1773119,-0.11380708,0.049849033,-4.434519,3.4236162,3.9525285,-4.874966,2.975103,-3.212596,-16.204886,-7.229911,4.500575
583,3567957351,32.501175,-0.2863083,237.21808,0.16821861,-0.13321751,0.03870344,-4.4275146,3.7703612,4.1953406,-4.872162,2.972883,-3.211951,-16.278678,-7.167072,4.570497
584,3567974018,32.579025,-0.33537292,237.1629,0.15497875,-0.15040421,0.022922993,-4.2973614,4.01889,4.4681096,-4.869579,2.970376,-3.211569,-16.350301,-7.100091,4.644965
585,3567990685,32.679398,-0.37266922,237.10806,0.13594627,-0.16009486,-4.2438507e-05,-3.8994021,4.139843,4.8030543,-4.867313,2.967708,-3.21157,-16.415291,-7.031094,4.725016
586,3568007352,32.777054,-0.4268837,237.03738,0.119932175,-0.1766079,-0.02083826,-3.446437,4.091733,5.0164948,-4.865314,2.964765,-3.211917,-16.472732,-6.962898,4.808624
587,3568024019,32.871582,-0.5007477,236.94888,0.10703087,-0.20094621,-0.039212227,-2.9610672,3.8686006,5.1016455,-4.86353,2.961416,-3.212571,-16.522083,-6.898421,4.893651
588,3568040686,32.979904,-0.5693016,236.85672,0.091526985,-0.22156769,-0.06199026,-2.2077568,3.456885,5.1734242,-4.862005,2.957723,-3.213604,-16.558879,-6.840806,4.979875
589,3568057353,33.096634,-0.6389961,236.75696,0.075284004,-0.24163342,-0.08722067,-1.2282381,2.8387942,5.1897063,-4.86075,2.953696,-3.215058,-16.57935,-6.793493,5.06637
590,3568074020,33.19876,-0.7008934,236.70105,0.06355095,-0.26107875,-0.11098623,-0.48429537,2.3071334,4.9636545,-4.859691,2.949345,-3.216908,-16.587422,-6.755041,5.149098
591,3568090687,33.285553,-0.75086594,236.69589,0.056331635,-0.2785058,-0.13367558,0.017821789,1.8778131,4.4839616,-4.858752,2.944703,-3.219136,-16.587125,-6.723744,5.223831
592,3568107354,33.364,-0.79746246,236.71466,0.052513123,-0.29611573,-0.15580797,0.4752164,1.3906736,3.8047943,-4.857877,2.939768,-3.221733,-16.579205,-6.700566,5.287244
593,3568124021,33.427704,-0.8370056,236.7728,0.053544044,-0.31346512,-0.17646885,0.7730541,0.91968554,2.8708897,-4.856985,2.934544,-3.224674,-16.566321,-6.685238,5.335092
594,3568140688,33.494415,-0.8685913,236.844,0.054890633,-0.32772866,-0.1997714,1.2437153,0.27883667,1.8144749,-4.85607,2.929082,-3.228004,-16.545592,-6.680591,5.365333
595,3568157355,33.56418,-0.8922272,236.9271,0.056596756,-0.3389164,-0.22578144,1.910964,-0.5530621,0.632329,-4.855127,2.923433,-3.231767,-16.513743,-6.689809,5.375872
596,3568174022,33.6223,-0.904583,237.04956,0.06227684,-0.34789103,-0.2516799,2.5150237,-1.424245,-0.79486716,-4.854089,2.917635,-3.235962,-16.471826,-6.713546,5.362624
597,3568190689,33.672012,-0.9049034,237.20691,0.07112408,-0.35393348,-0.2783246,3.1307387,-2.3799932,-2.4466534,-4.852904,2.911736,-3.240601,-16.419647,-6.753213,5.321846
598,3568207356,33.741226,-0.98711395,237.17505,0.09540558,-0.34988326,-0.28497887,4.225763,-1.4865391,-3.0815535,-4.851314,2.905905,-3.245351,-16.349218,-6.777989,5.270487
599,3568224023,33.830536,-1.1595268,236.93604,0.13694286,-0.33483586,-0.26920938,5.8190856,1.4709687,-2.5937562,-4.849032,2.900324,-3.249838,-16.252233,-6.753473,5.227258
600,3568240690,33.928543,-1.3769035,236.59308,0.18959618,-0.31144127,-0.24130583,7.745423,5.5544066,-1.557558,-4.845872,2.895133,-3.25386,-16.123143,-6.6609,5.201299
601,3568257357,34.042297,-1.6656532,236.0835,0.25717735,-0.27741313,-0.1951561,10.13332,11.330544,0.37774432,-4.841586,2.890509,-3.257113,-15.954254,-6.472058,5.207595
602,3568274024,34.151123,-1.9701881,235.54459,0.33388138,-0.23687997,-0.14185572,12.653389,17.723722,2.4575672,-4.836021,2.886561,-3.259477,-15.743364,-6.176663,5.248554
603,3568290691,34.253677,-2.287548,234.98282,0.41964722,-0.18966514,-0.08183622,15.299511,24.69298,4.6479,-4.829027,2.8834,-3.260841,-15.488372,-5.765113,5.326019
604,3568307358,34.36638,-2.6690254,234.27371,0.52101135,-0.13143522,-0.0039367676,18.352547,33.295715,7.6404233,-4.820343,2.881209,-3.260907,-15.182496,-5.210184,5.453359
605,3568324025,34.484695,-3.1038094,233.44373,0.63715744,-0.06269711,0.08991337,21.75136,43.341496,11.291229,-4.809724,2.880164,-3.259408,-14.819973,-4.487826,5.641546
606,3568340692,34.69362,-3.5446053,234.0202,0.7169075,-0.04121989,0.20518827,22.689213,48.547237,13.096802,-4.797776,2.879477,-3.255988,-14.441819,-3.678705,5.859826
607,3568357359,35.00386,-3.994625,236.14078,0.75635815,-0.072014034,0.3444662,20.92091,48.452564,12.909989,-4.78517,2.878277,-3.250247,-14.093137,-2.871162,6.074992
608,3568374026,35.372528,-4.470318,239.10568,0.7794075,-0.12801522,0.50447035,17.7269,45.917896,11.827622,-4.77218,2.876143,-3.241839,-13.797689,-2.105864,6.272119
609,3568390693,35.824997,-4.9614525,243.35138,0.77188396,-0.22553638,0.6877823,12.308371,39.202454,9.169228,-4.759315,2.872384,-3.230376,-13.592549,-1.45249,6.424939
610,3568407360,36.31685,-5.5103416,247.96664,0.7654896,-0.32976365,0.89493203,6.360232,32.244434,6.577709,-4.746557,2.866888,-3.21546,-13.486545,-0.915083,6.534567
611,3568424027,36.84636,-6.1202736,252.91656,0.76193523,-0.43904996,1.1266456,-0.050459385,25.23822,4.1352296,-4.733858,2.859571,-3.196683,-13.487386,-0.494446,6.603487
612,3568440694,37.45923,-6.7626915,259.05206,0.73287106,-0.58540297,1.3856382,-8.492697,14.673942,0.4245597,-4.721643,2.849814,-3.173589,-13.628931,-0.24988,6.610563
613,3568457361,38.14789,-7.447933,266.20508,0.68460464,-0.76215476,1.6728721,-18.650661,1.3267019,-4.2233987,-4.710233,2.837111,-3.145708,-13.939775,-0.227768,6.540173
614,3568474028,38.077484,-7.8828697,266.78622,0.68085384,-0.83763504,1.8483744,-26.465647,-6.809366,-8.0964,-4.698885,2.82315,-3.114902,-14.380869,-0.341257,6.405233
615,3568490695,37.170456,-8.035389,260.15576,0.7238951,-0.8033978,1.8990839,-31.777147,-9.44575,-11.223564,-4.68682,2.80976,-3.083251,-14.910488,-0.498686,6.218174
616,3568507362,35.814575,-8.050869,249.78226,0.78747463,-0.7175698,1.8920336,-36.329895,-9.891668,-14.21155,-4.673695,2.797801,-3.051717,-15.515986,-0.663547,5.981315
617,3568524029,33.770752,-7.8441277,233.51944,0.8883629,-0.54404587,1.7874243,-39.057976,-6.043303,-16.643503,-4.658889,2.788734,-3.021927,-16.166952,-0.764269,5.703923
618,3568540696,31.531906,-7.5775566,215.97736,0.98187923,-0.36785075,1.6674607,-42.772877,-3.506924,-19.904877,-4.642524,2.782603,-2.994136,-16.879833,-0.822718,5.372175
619,3568557363,29.117767,-7.258625,197.35077,1.0657282,-0.19307393,1.536123,-47.638493,-2.5754611,-24.072186,-4.624762,2.779385,-2.968534,-17.673808,-0.865642,4.970972
620,3568574030,26.065308,-6.7287254,173.40544,1.176652,0.05460739,1.3165805,-51.340424,1.359396,-28.113205,-4.605151,2.780295,-2.946591,-18.529482,-0.842985,4.502419
621,3568590697,22.46556,-6.01746,145.01208,1.3053532,0.35830218,1.0244422,-54.474167,7.1278176,-32.335094,-4.583395,2.786267,-2.929517,-19.437385,-0.724188,3.963501
622,3568607364,19.671295,-5.5596046,118.18721,1.3422918,0.5621223,0.8622091,-55.93288,9.963129,-34.845108,-4.561023,2.795636,-2.915147,-20.3696,-0.558136,3.382749
623,3568624031,17.744598,-5.372593,92.86695,1.2811003,0.6610655,0.8382411,-55.300064,9.987739,-35.337357,-4.539671,2.806654,-2.901176,-21.291268,-0.391674,2.793793
624,3568640698,16.095505,-5.266094,66.67382,1.1671009,0.71840733,0.8656416,-53.4777,8.688108,-34.916065,-4.520219,2.818627,-2.886749,-22.182563,-0.246872,2.211859
625,3568657365,15.082703,-5.353901,41.055786,0.9701462,0.69326717,0.9978018,-50.03774,4.8950696,-33.0032,-4.50405,2.830181,-2.870119,-23.016525,-0.165288,1.661806
626,3568674032,13.786621,-5.3371162,11.26778,0.76297283,0.6964827,1.0954182,-44.99678,2.5928152,-30.429174,-4.491334,2.841789,-2.851862,-23.766471,-0.122074,1.154653
627,3568690699,12.154404,-5.1972466,-23.023178,0.5483017,0.73368007,1.1505928,-38.346466,1.9475596,-27.245708,-4.482196,2.854017,-2.832685,-24.405579,-0.089615,0.700558
628,3568707366,10.953522,-5.1802406,-58.294106,0.2629385,0.7143945,1.2786701,-29.639828,-0.0043504834,-22.503517,-4.477814,2.865924,-2.811374,-24.899576,-0.089688,0.325499
629,3568724033,9.99118,-5.2222023,-95.63775,-0.07903767,0.6617585,1.4503675,-18.811073,-2.4084487,-16.340912,-4.479131,2.876953,-2.787201,-25.213094,-0.129829,0.05315
630,3568740700,8.9518585,-5.2015953,-122.18496,-0.29534245,0.6751719,1.5520046,-11.4024315,-3.2780454,-12.153292,-4.484053,2.888206,-2.761334,-25.403135,-0.184463,-0.149405
631,3568757367,7.9060974,-5.1376762,-136.26062,-0.37679958,0.7529215,1.5871975,-7.82098,-2.7456737,-10.104916,-4.490333,2.900755,-2.734881,-25.533485,-0.230224,-0.31782
632,3568774034,6.8794403,-5.0454445,-144.69327,-0.4009199,0.86327225,1.5904121,-5.3369293,-1.1507497,-8.642866,-4.497015,2.915143,-2.708374,-25.622434,-0.249403,-0.461868
633,3568790701,5.8173523,-4.900364,-143.66791,-0.31862354,1.0309496,1.5339966,-5.454342,1.9932415,-8.660551,-4.502325,2.932325,-2.682807,-25.71334,-0.216182,-0.606211
634,3568807368,5.1080627,-4.836483,-139.75348,-0.25322723,1.1744101,1.5140879,-4.7690067,4.7769914,-7.9006357,-4.506545,2.951899,-2.657572,-25.792823,-0.136565,-0.737888
635,3568824035,4.770813,-4.858715,-133.29025,-0.2107687,1.2903743,1.5346532,-3.040718,7.1800656,-6.2119007,-4.510058,2.973405,-2.631994,-25.843502,-0.016897,-0.84142
636,3568840702,4.5787354,-4.882122,-117.5039,-0.08682728,1.4403706,1.5247464,-3.2682457,10.57715,-5.480702,-4.511505,2.997411,-2.606582,-25.897973,0.159389,-0.932765
637,3568857369,4.625885,-4.9372826,-93.55985,0.0935421,1.607106,1.5050452,-4.736764,14.584459,-5.2223444,-4.509946,3.024196,-2.581498,-25.976919,0.402463,-1.019804
638,3568874036,4.480301,-4.9952507,-80.32246,0.20525455,1.7166557,1.497869,-4.9397736,16.829203,-4.4253206,-4.506525,3.052807,-2.556534,-26.059249,0.68295,-1.093559
639,3568890703,4.088379,-5.046856,-78.51194,0.25018215,1.7686701,1.4975736,-4.042399,17.233238,-3.231686,-4.502355,3.082285,-2.531574,-26.126622,0.970171,-1.14742
640,3568907370,3.7310944,-5.12949,-79.75233,0.2717514,1.7860126,1.5080824,-2.777332,16.657234,-1.7981955,-4.497826,3.112052,-2.506439,-26.172911,1.247792,-1.17739
641,3568924037,3.2898254,-5.2350197,-88.9417,0.23923206,1.7492886,1.5337968,-0.5776205,14.4614315,0.08425963,-4.493839,3.141207,-2.480876,-26.182538,1.488816,-1.175986
642,3568940704,2.9708252,-5.360935,-93.10993,0.25376892,1.717164,1.5435507,0.31387377,12.404392,1.3454125,-4.48961,3.169826,-2.45515,-26.177307,1.695556,-1.153562
643,3568957371,2.8040466,-5.5124016,-91.39716,0.32052612,1.6910169,1.537488,-0.22364855,10.540272,1.943819,-4.484268,3.19801,-2.429525,-26.181034,1.871227,-1.121165
644,3568974038,2.5873566,-5.684925,-94.4089,0.36363506,1.6244605,1.5346911,-0.6291928,7.4239516,2.5695815,-4.478207,3.225084,-2.403947,-26.191521,1.99496,-1.078339
645,3568990705,2.3694763,-5.8798866,-99.33044,0.4052143,1.529083,1.5286586,-1.4145491,3.4018338,2.9792535,-4.471453,3.250569,-2.378469,-26.215097,2.051657,-1.028685
646,3569007372,2.2293243,-6.023777,-101.29432,0.44151878,1.4755728,1.5230412,-1.8781235,0.96583647,3.3590016,-4.464094,3.275162,-2.353085,-26.246399,2.067754,-0.972702
647,3569024039,2.1474152,-6.108776,-101.13201,0.4637165,1.4648561,1.51987,-1.8069208,0.16681689,3.780973,-4.456365,3.299576,-2.327754,-26.276514,2.070534,-0.909686
648,3569040706,2.1196747,-6.171192,-99.23792,0.48908615,1.4708514,1.5127339,-1.9157851,0.042215765,3.9697375,-4.448214,3.32409,-2.302542,-26.308444,2.071238,-0.843524
649,3569057373,2.1589508,-6.189762,-94.63091,0.51433563,1.5117803,1.5028574,-1.9833975,1.2374651,3.979158,-4.439642,3.349286,-2.277494,-26.341501,2.091862,-0.777205
650,3569074040,2.174759,-6.208576,-92.80935,0.5225296,1.5334456,1.4934201,-2.0558124,1.898396,3.859096,-4.430933,3.374843,-2.252604,-26.375765,2.123502,-0.712887
651,3569090707,2.1630402,-6.2299232,-93.928535,0.5144901,1.5333807,1.4837403,-2.202429,1.9343822,3.5713992,-4.422358,3.400399,-2.227875,-26.412472,2.155742,-0.653364
652,3569107374,2.1765747,-6.212513,-94.510704,0.49515724,1.5542045,1.473208,-2.209954,2.8223035,3.1289833,-4.414105,3.426302,-2.203322,-26.449305,2.20278,-0.601214
653,3569124041,2.193695,-6.1647835,-95.78489,0.46059895,1.5845206,1.462321,-2.0987623,4.1716485,2.5278933,-4.406428,3.452711,-2.17895,-26.484284,2.272307,-0.559082
654,3569140708,2.2078857,-6.148838,-96.30831,0.44232464,1.5945613,1.4592209,-2.2306309,4.5896974,2.1598892,-4.399056,3.479287,-2.15463,-26.521461,2.348802,-0.523084
655,3569157375,2.2207336,-6.164364,-95.66419,0.4427595,1.5866141,1.4648266,-2.5977323,4.1208167,2.0649114,-4.391677,3.505731,-2.130216,-26.564757,2.417482,-0.488669
656,3569174042,2.2172546,-6.186619,-95.46899,0.44354343,1.5671222,1.475688,-3.037222,3.1611545,2.0500255,-4.384285,3.53185,-2.105621,-26.615377,2.470168,-0.454502
657,3569190709,2.1939545,-6.230709,-95.302864,0.45283794,1.5291712,1.4942815,-3.6303742,1.3678398,2.2279508,-4.376738,3.557336,-2.080716,-26.675883,2.492965,-0.417369
658,3569207376,2.1644592,-6.248623,-95.16987,0.4533882,1.5012915,1.5154879,-4.1314383,-0.06499964,2.3537116,-4.369182,3.582358,-2.055458,-26.74474,2.491882,-0.37814
659,3569224043,2.124054,-6.237034,-95.26557,0.44302654,1.48439,1.5392668,-4.515395,-1.0967467,2.4140537,-4.361798,3.607098,-2.029804,-26.819997,2.473603,-0.337906
660,3569240710,2.0606384,-6.232113,-95.25861,0.43699837,1.4585822,1.570523,-4.965448,-2.612546,2.632369,-4.354515,3.631408,-2.003629,-26.902754,2.430061,-0.294033
661,3569257377,1.973938,-6.222912,-95.20815,0.43116856,1.4300303,1.6084154,-5.4209323,-4.36088,2.960504,-4.347329,3.655242,-1.976822,-26.993103,2.35738,-0.244691
662,3569274044,2.0255432,-6.224865,-95.28831,0.430789,1.4104886,1.6293058,-5.473506,-5.355134,3.5423613,-4.340149,3.67875,-1.949667,-27.084328,2.268128,-0.185652
663,3569290711,2.2283173,-6.243305,-95.46671,0.43822002,1.3991404,1.6316566,-5.0968194,-5.5969276,4.427394,-4.332845,3.702069,-1.922473,-27.169275,2.174846,-0.111862
664,3569307378,2.5038147,-6.2629967,-95.7196,0.44803333,1.3948951,1.6262381,-4.4336147,-5.3773284,5.5223274,-4.325378,3.725317,-1.895369,-27.243169,2.085224,-0.019823
665,3569324045,2.8966827,-6.2892876,-96.07766,0.46229553,1.4007583,1.6066067,-3.3661292,-4.438673,6.883949,-4.317673,3.748663,-1.868592,-27.299271,2.011246,0.094909
666,3569340712,3.3059845,-6.321636,-96.45112,0.4812641,1.404897,1.5879962,-2.1624076,-3.5838106,8.495674,-4.309652,3.772078,-1.842125,-27.335311,1.951516,0.236504
667,3569357379,3.7253418,-6.3590508,-96.840065,0.5047264,1.4074645,1.5712535,-0.82173586,-2.8302128,10.364273,-4.30124,3.795536,-1.815937,-27.349007,1.904346,0.409242
668,3569374046,4.2441864,-6.4066124,-97.312126,0.5346079,1.4171112,1.5431361,0.90031624,-1.5500245,12.558388,-4.29233,3.819155,-1.790218,-27.334002,1.878512,0.618548
669,3569390713,4.841812,-6.464405,-97.8505,0.57115173,1.4316313,1.5067439,2.9594827,0.09788054,15.0869,-4.282811,3.843016,-1.765106,-27.284677,1.880143,0.869996
670,3569407380,5.3780365,-6.540699,-98.31199,0.5842514,1.4106152,1.4959962,4.2998843,1.147999,16.462412,-4.273073,3.866526,-1.740173,-27.213012,1.899276,1.14437
671,3569424047,5.8513947,-6.6377373,-98.691246,0.5714779,1.3510797,1.5124748,4.8562427,1.5857961,16.556469,-4.263548,3.889044,-1.714965,-27.132075,1.925706,1.420311
672,3569440714,6.3152313,-6.7522545,-99.04563,0.5474129,1.2706411,1.5421581,5.1060596,1.7662992,16.085318,-4.254424,3.910221,-1.689262,-27.046974,1.955144,1.6884
673,3569457381,6.733841,-6.8874855,-99.337,0.5037317,1.1579659,1.5941703,4.7627997,1.4394019,14.632261,-4.246028,3.92952,-1.662692,-26.967594,1.979134,1.932271
674,3569474048,7.2124023,-7.0403404,-99.66874,0.4584875,1.038981,1.6453679,4.516398,1.3434529,13.087038,-4.238387,3.946836,-1.635269,-26.892321,2.001525,2.150388
675,3569490715,7.7562866,-7.2114983,-100.0456,0.41277027,0.91469866,1.6947081,4.405497,1.5108073,11.498741,-4.231507,3.962081,-1.607024,-26.818896,2.026705,2.342034
676,3569507382,8.282944,-7.4061394,-100.382835,0.35024738,0.76199573,1.7617373,3.8357701,1.3583364,9.052979,-4.22567,3.974781,-1.577662,-26.754966,2.049344,2.492917
677,3569524049,8.814835,-7.6244774,-100.701744,0.27454472,0.58582634,1.8417957,2.9485903,1.0402482,5.924536,-4.221094,3.984545,-1.546965,-26.705823,2.066681,2.591659
678,3569540716,9.138641,-7.677204,-100.89367,0.23091602,0.49001735,1.8845689,1.9068279,-0.20377803,3.0075512,-4.217245,3.992712,-1.515556,-26.674043,2.063285,2.641785
679,3569557383,9.22229,-7.546398,-100.93603,0.22155666,0.48163682,1.8876603,0.64280653,-2.5262702,0.2673756,-4.213552,4.000739,-1.484095,-26.66333,2.02118,2.646241
680,3569574050,9.180481,-7.3216896,-100.892784,0.22735596,0.5147472,1.8718226,-0.8346391,-5.4718637,-2.619802,-4.209763,4.009318,-1.452898,-26.677241,1.929982,2.602578
681,3569590717,8.947861,-6.9489403,-100.72808,0.2604704,0.61802715,1.8234859,-2.5109713,-9.287034,-5.448016,-4.205422,4.019618,-1.422507,-26.719091,1.775198,2.511778
682,3569607384,8.624802,-6.5393257,-100.48049,0.29032707,0.7250256,1.777044,-4.6455975,-13.695879,-8.968355,-4.200583,4.031702,-1.39289,-26.796518,1.546933,2.362305
683,3569624051,8.215073,-6.097721,-100.15043,0.31545448,0.8326877,1.7340133,-7.2575607,-18.68975,-13.23316,-4.195325,4.04558,-1.36399,-26.917477,1.235437,2.141752
684,3569640718,7.6074066,-5.519741,-99.683815,0.36171818,0.9996411,1.665312,-10.220444,-24.643198,-17.708483,-4.189296,4.062241,-1.336235,-27.087818,0.824717,1.846611
685,3569657385,6.8176117,-4.82613,-99.084465,0.42292118,1.2128425,1.5778432,-13.604252,-31.52371,-22.570593,-4.182247,4.082455,-1.309938,-27.314556,0.299322,1.470434
686,3569674052,6.3920746,-4.18227,-98.77662,0.4660282,1.3575232,1.4936876,-15.294888,-36.3189,-25.476458,-4.17448,4.10508,-1.285043,-27.569471,-0.305993,1.045826
687,3569690719,6.3650055,-3.5879555,-98.7909,0.49129963,1.4307489,1.4109602,-15.080059,-38.804913,-26.137945,-4.166292,4.128926,-1.261527,-27.820805,-0.952742,0.610194
688,3569707386,6.484207,-2.9758034,-98.92603,0.510458,1.4789517,1.3234112,-14.013519,-40.403656,-25.785986,-4.157784,4.153575,-1.23947,-28.054364,-1.626136,0.180428
689,3569724053,6.8973236,-2.386135,-99.29795,0.51529884,1.4724188,1.2358387,-11.492371,-40.28664,-23.733292,-4.149196,4.178115,-1.218873,-28.245904,-2.29758,-0.215127
690,3569740720,7.253296,-1.6919365,-99.64254,0.53206444,1.4941366,1.1272271,-8.717287,-40.319893,-21.206469,-4.140328,4.203017,-1.200086,-28.391192,-2.969578,-0.568568
691,3569757387,7.5309906,-0.8841934,-99.943596,0.5620785,1.5486007,0.99630857,-5.754062,-40.611847,-18.272106,-4.13096,4.228827,-1.183481,-28.487093,-3.646442,-0.873103
692,3569774054,8.033859,-0.058750153,-100.434364,0.58541775,1.5691164,0.857147,-1.4623973,-39.50354,-13.692255,-4.121203,4.254979,-1.169195,-28.511466,-4.304834,-1.101307
693,3569790721,8.689209,0.8134575,-101.06089,0.6077738,1.5733128,0.70478725,3.9282155,-37.371788,-7.6902075,-4.111073,4.281201,-1.157449,-28.445996,-4.927697,-1.229477
694,3569807388,9.194809,1.5559425,-101.53315,0.6083107,1.6123431,0.57653904,7.0743756,-35.70743,-3.6958423,-4.100934,4.308073,-1.14784,-28.32809,-5.522821,-1.291074
695,3569824055,9.562302,2.1406288,-101.85517,0.58259773,1.6830099,0.47730708,7.818146,-34.4181,-1.8450762,-4.091224,4.336123,-1.139885,-28.197788,-6.096456,-1.321825
696,3569840722,9.888824,2.6713905,-102.1307,0.54431915,1.7729809,0.38574123,7.608396,-33.023952,-0.6279956,-4.082152,4.365673,-1.133456,-28.070981,-6.646855,-1.332292
697,3569857389,10.102921,3.0946846,-102.288795,0.4867649,1.8943348,0.31268787,5.555018,-31.85879,-0.93986094,-4.074039,4.397245,-1.128245,-27.978397,-7.177835,-1.347956
698,3569874056,10.461288,3.4895363,-102.56066,0.4167719,2.0001187,0.239717,3.915565,-29.597351,-0.42833054,-4.067093,4.43058,-1.12425,-27.913138,-7.671124,-1.355095
699,3569890723,10.977386,3.8614044,-102.95902,0.33485603,2.0887794,0.16535234,2.814238,-26.154648,1.0557634,-4.061512,4.465393,-1.121494,-27.866234,-8.107035,-1.337499
700,3569907390,11.465469,4.12167,-103.310234,0.23126888,2.1937058,0.10848951,0.35491705,-22.446041,1.5788093,-4.057658,4.501955,-1.119686,-27.860319,-8.481136,-1.311186
701,3569924057,11.982864,4.284046,-103.66534,0.10691357,2.304822,0.06555605,-2.993903,-18.160574,1.6460565,-4.055876,4.540369,-1.118593,-27.910217,-8.783812,-1.283752
702,3569940724,12.362518,4.462887,-103.978935,0.007936478,2.3538382,0.0044589043,-5.247104,-14.634457,2.195403,-4.055744,4.5796,-1.118519,-27.997669,-9.02772,-1.247162
703,3569957391,12.56842,4.6531677,-104.22726,-0.06310749,2.33728,-0.0749073,-6.459752,-12.080936,3.0755773,-4.056796,4.618555,-1.119767,-28.105332,-9.229069,-1.195902
704,3569974058,12.720428,4.805641,-104.467705,-0.12803459,2.2799792,-0.15923595,-7.2685566,-9.633591,4.180648,-4.05893,4.656555,-1.122421,-28.226475,-9.389629,-1.126225
705,3569990725,12.766098,4.945122,-104.68221,-0.1746397,2.1628745,-0.2563944,-7.191617,-7.6856804,5.6999784,-4.061841,4.692603,-1.126694,-28.346335,-9.517724,-1.031225
706,3570007392,12.756363,4.977581,-104.85389,-0.2328186,2.0337253,-0.342443,-7.8858185,-5.6667027,6.593467,-4.065721,4.726498,-1.132401,-28.477765,-9.612169,-0.921334
707,3570024059,12.698532,4.893421,-104.985664,-0.30469608,1.8933887,-0.4156747,-9.4281435,-3.508797,6.8253574,-4.070799,4.758054,-1.139329,-28.634901,-9.670649,-0.807578
708,3570040726,12.519119,4.7570267,-105.068504,-0.3649645,1.7006476,-0.4943943,-10.594414,-1.8451895,7.054556,-4.076882,4.786398,-1.147569,-28.811475,-9.701402,-0.690002
709,3570057393,12.226593,4.544285,-105.09763,-0.42006207,1.464278,-0.573153,-11.745506,-0.560285,7.04521,-4.083883,4.810803,-1.157122,-29.007233,-9.71074,-0.572582
710,3570074060,12.100937,4.437557,-105.16659,-0.4552374,1.315031,-0.6074643,-12.121241,0.4294415,6.9102125,-4.09147,4.83272,-1.167246,-29.209254,-9.703583,-0.457412
711,3570090727,12.155441,4.459503,-105.27987,-0.4656353,1.259839,-0.59470177,-11.509062,1.0238676,6.7100043,-4.099231,4.853717,-1.177158,-29.401072,-9.686519,-0.345579
712,3570107394,12.26004,4.5046463,-105.387566,-0.46233368,1.2419689,-0.5516982,-10.518238,1.2395208,6.208742,-4.106937,4.874416,-1.186353,-29.576376,-9.66586,-0.2421
713,3570124061,12.48793,4.6251373,-105.513115,-0.4398594,1.2966444,-0.46594667,-8.893444,1.0497656,5.437464,-4.114268,4.896027,-1.194119,-29.7246,-9.648364,-0.151476
714,3570140728,12.655609,4.7268753,-105.598595,-0.40008926,1.3358569,-0.36715174,-6.759653,0.22972506,4.4816704,-4.120936,4.918291,-1.200238,-29.837261,-9.644535,-0.076781
715,3570157395,12.750015,4.8013496,-105.63764,-0.34298134,1.3550284,-0.25583935,-4.1453724,-1.258904,3.3044329,-4.126652,4.940875,-1.204502,-29.906351,-9.665517,-0.021707
716,3570174062,12.924622,4.941433,-105.677895,-0.26206398,1.4287848,-0.105745316,-0.7469106,-3.3577719,1.87936,-4.13102,4.964688,-1.206264,-29.9188,-9.72148,0.009616
717,3570190729,13.139618,5.1278,-105.70544,-0.1569252,1.5391095,0.07777166,3.4273915,-6.1470747,0.20810437,-4.133635,4.99034,-1.204968,-29.861677,-9.823931,0.013084
718,3570207396,13.281723,5.235096,-105.72733,-0.09095955,1.6035681,0.19599915,5.775039,-7.555417,-0.7822827,-4.135151,5.017066,-1.201701,-29.765426,-9.949855,4.6e-05
