PacketCounter,SampleTimeFine,Euler_X,Euler_Y,Euler_Z,Acc_X,Acc_Y,Acc_Z,Gyr_X,Gyr_Y,Gyr_Z,Velo_X,Velo_Y,Velo_Z,ANG_X,ANG_Y,ANG_Z
0,2095564428,-5.996567,3.2533722,51.726852,1.7498946,0.916679,1.5940266,3.2134695,2.1771166,1.0080762,0.0,0.0,0.0,0.0,0.0,0.0
1,2095581095,-6.0393677,3.242199,51.674377,1.4658575,0.86083496,1.4575145,3.1525085,2.115284,1.0683212,0.024431,0.014347,0.024292,0.052542,0.035255,0.017805
2,2095597762,-6.084656,3.2304382,51.619034,1.1572161,0.8001249,1.3093793,3.086172,2.0526235,1.1336603,0.043718,0.027682,0.046115,0.103978,0.069465,0.036699
3,2095614429,-6.1317596,3.2182503,51.561646,0.82841825,0.7354363,1.1517727,3.0151448,1.9903373,1.2031116,0.057525,0.039939,0.065311,0.15423,0.102637,0.056751
4,2095631096,-6.194153,3.2021828,51.485474,0.3890438,0.6487683,0.9409964,2.924799,1.9042144,1.2964525,0.064009,0.050752,0.080994,0.202977,0.134374,0.078359
5,2095647763,-6.268936,3.1829758,51.39409,-0.14253235,0.54377735,0.68595934,2.8180501,1.7998176,1.4096425,0.061633,0.059815,0.092427,0.249945,0.164371,0.101853
6,2095664430,-6.3342743,3.1720047,51.318604,-0.49306583,0.47482657,0.5170131,2.7467406,1.7136192,1.491113,0.053415,0.067729,0.101044,0.295724,0.192931,0.126705
7,2095681097,-6.39003,3.1699066,51.259644,-0.6491318,0.444584,0.44048882,2.7137942,1.6458042,1.538758,0.042596,0.075139,0.108385,0.340954,0.220361,0.152351
8,2095697764,-6.4448395,3.1717682,51.204544,-0.72935677,0.4294486,0.39988136,2.6963782,1.5824933,1.5746691,0.03044,0.082296,0.11505,0.385894,0.246736,0.178595
9,2095714431,-6.4932556,3.180645,51.16124,-0.66074276,0.4439422,0.42999172,2.708498,1.5328584,1.5852551,0.019428,0.089695,0.122217,0.431036,0.272284,0.205016
10,2095731098,-6.551819,3.1890411,51.10701,-0.6273594,0.45143938,0.44284916,2.7159548,1.4689256,1.6060722,0.008972,0.097219,0.129598,0.476302,0.296766,0.231784
11,2095747765,-6.6216125,3.1965675,51.040512,-0.6392031,0.44994998,0.43367624,2.7169406,1.3891591,1.6391335,-0.001681,0.104718,0.136826,0.521584,0.319919,0.259103
12,2095764432,-6.6898193,3.2096977,50.97975,-0.5411577,0.47033477,0.4765129,2.7407486,1.3151767,1.6550341,-0.0107,0.112557,0.144768,0.567263,0.341839,0.286687
13,2095781099,-6.760071,3.226902,50.919815,-0.37127495,0.5050211,0.55316114,2.7804067,1.2408963,1.6612523,-0.016888,0.120974,0.153987,0.613603,0.362521,0.314375
14,2095797766,-6.826248,3.242073,50.85434,-0.28996658,0.5223464,0.58874655,2.7917633,1.1818527,1.671974,-0.021721,0.12968,0.163799,0.660132,0.382219,0.342241
15,2095814433,-6.8862305,3.2555275,50.78488,-0.29235935,0.5233048,0.5857501,2.7744374,1.1421744,1.6847618,-0.026594,0.138402,0.173562,0.706373,0.401255,0.37032
16,2095831100,-6.9454803,3.2692146,50.711075,-0.32694912,0.51802266,0.5679188,2.7448912,1.1104138,1.6977592,-0.032043,0.147036,0.183027,0.752121,0.419762,0.398616
17,2095847767,-7.0018005,3.2817307,50.63173,-0.4324417,0.49887216,0.5172558,2.6918862,1.0918287,1.7137117,-0.03925,0.155351,0.191648,0.796986,0.437959,0.427178
18,2095864434,-7.055588,3.2984238,50.5551,-0.474185,0.49249625,0.49703932,2.6489353,1.083033,1.7165813,-0.047153,0.163559,0.199932,0.841135,0.45601,0.455788
19,2095881101,-7.1071167,3.319584,50.48137,-0.44570923,0.5001755,0.5102987,2.6176825,1.0836529,1.7056499,-0.054581,0.171895,0.208437,0.884763,0.474071,0.484215
20,2095897768,-7.1539917,3.3414688,50.405563,-0.4459381,0.50236785,0.51073456,2.5718904,1.1004297,1.6908281,-0.062013,0.180268,0.216949,0.927628,0.492411,0.512395
21,2095914435,-7.1961517,3.3652954,50.329483,-0.4453411,0.50492036,0.5122466,2.5186877,1.1331354,1.6683493,-0.069435,0.188683,0.225486,0.969606,0.511297,0.540201
22,2095931102,-7.2442017,3.3879623,50.26631,-0.441123,0.5074817,0.5155082,2.4805396,1.1434397,1.6531878,-0.076787,0.197141,0.234078,1.010948,0.530354,0.567754
23,2095947769,-7.2985535,3.4088058,50.217056,-0.44362736,0.50792384,0.5156584,2.4565337,1.129142,1.6474857,-0.084181,0.205606,0.242672,1.05189,0.549173,0.595212
24,2095964436,-7.3538513,3.4301872,50.177002,-0.43317795,0.5105728,0.5222926,2.4409204,1.1087753,1.6412086,-0.091401,0.214116,0.251377,1.092572,0.567653,0.622565
25,2095981103,-7.412735,3.4511757,50.15001,-0.41150188,0.51483095,0.5344572,2.439222,1.0722206,1.6385751,-0.098259,0.222697,0.260285,1.133226,0.585523,0.649875
26,2095997770,-7.4682465,3.472683,50.12738,-0.40490532,0.516027,0.54024124,2.431643,1.0440086,1.633054,-0.105007,0.231297,0.269289,1.173753,0.602923,0.677093
27,2096014437,-7.519684,3.4949036,50.109146,-0.41203594,0.5144563,0.54034424,2.417639,1.0259951,1.6236601,-0.111874,0.239871,0.278295,1.214047,0.620023,0.704154
28,2096031104,-7.572632,3.5165215,50.103363,-0.42173862,0.51182973,0.53968096,2.4117815,0.99736845,1.617249,-0.118903,0.248401,0.28729,1.254243,0.636646,0.731108
29,2096047771,-7.6254272,3.5377312,50.10852,-0.43955898,0.50715256,0.53576946,2.409957,0.96346617,1.6123247,-0.126229,0.256854,0.296219,1.294409,0.652704,0.75798
30,2096064438,-7.6757812,3.556984,50.09207,-0.44696236,0.50589955,0.5344796,2.4167454,0.9811541,1.5880456,-0.133678,0.265286,0.305127,1.334688,0.669057,0.784447
31,2096081105,-7.724045,3.5738564,50.05208,-0.44200706,0.50856113,0.5364151,2.4343376,1.0535724,1.5432925,-0.141045,0.273762,0.314067,1.37526,0.686617,0.810169
32,2096097772,-7.770096,3.5891495,50.003265,-0.4378624,0.5117394,0.53681993,2.4578469,1.1576518,1.4868805,-0.148343,0.282291,0.323014,1.416224,0.705911,0.83495
33,2096114439,-7.813385,3.6022835,49.93686,-0.42982578,0.5168561,0.5370817,2.4891162,1.3090186,1.4131587,-0.155507,0.290905,0.331965,1.457709,0.727728,0.858503
34,2096131106,-7.856415,3.6137886,49.874344,-0.42546463,0.52123046,0.5352278,2.5295432,1.4698321,1.3356879,-0.162598,0.299592,0.340885,1.499868,0.752225,0.880764
35,2096147773,-7.899109,3.6235924,49.817,-0.4264803,0.5244658,0.53053856,2.579052,1.6387775,1.2550645,-0.169706,0.308333,0.349727,1.542852,0.779538,0.901682
36,2096164440,-7.9397736,3.6308327,49.746445,-0.4254675,0.52905,0.5249634,2.6388135,1.8487052,1.1595356,-0.176797,0.31715,0.358476,1.586832,0.81035,0.921008
37,2096181107,-7.978821,3.6354866,49.66713,-0.4245453,0.5343255,0.51780367,2.7093828,2.0923426,1.0517788,-0.183873,0.326055,0.367106,1.631988,0.845222,0.938538
38,2096197774,-8.016174,3.6396446,49.614502,-0.42428017,0.5383383,0.5133195,2.7520714,2.2431912,0.95933396,-0.190944,0.335027,0.375661,1.677856,0.882609,0.954527
39,2096214441,-8.05159,3.6432533,49.589706,-0.42393875,0.541193,0.512064,2.7635386,2.2932436,0.8832906,-0.19801,0.344047,0.384195,1.723915,0.92083,0.969249
40,2096231108,-8.085403,3.6452065,49.578827,-0.42494774,0.54332817,0.51138926,2.7626498,2.2977004,0.8122911,-0.205092,0.353102,0.392718,1.769959,0.959125,0.982787
41,2096247775,-8.117447,3.645958,49.591278,-0.42728996,0.5442698,0.5125022,2.7386055,2.2218297,0.75364166,-0.212213,0.362173,0.40126,1.815602,0.996155,0.995348
42,2096264442,-8.147278,3.6438751,49.601685,-0.429533,0.54564834,0.51301146,2.7142754,2.147984,0.688134,-0.219372,0.371267,0.40981,1.86084,1.031955,1.006817
43,2096281109,-8.174805,3.6387215,49.608963,-0.43188667,0.5474887,0.51264143,2.6909971,2.07996,0.6148196,-0.22657,0.380392,0.418354,1.90569,1.066621,1.017064
44,2096297776,-8.20018,3.6316185,49.63385,-0.43506813,0.54857004,0.513618,2.6477928,1.9459208,0.54961675,-0.233821,0.389535,0.426914,1.94982,1.099053,1.026224
45,2096314443,-8.223175,3.622097,49.67119,-0.43886566,0.5492164,0.5153961,2.58919,1.7621586,0.48856682,-0.241135,0.398689,0.435504,1.992973,1.128422,1.034367
46,2096331110,-8.243881,3.6208115,49.69586,-0.44121456,0.5496608,0.51570654,2.5463052,1.6109912,0.43778497,-0.248489,0.40785,0.444099,2.035411,1.155272,1.041663
47,2096347777,-8.262222,3.628891,49.7081,-0.4419918,0.54977083,0.5146165,2.5190954,1.4901912,0.40006846,-0.255856,0.417013,0.452676,2.077396,1.180109,1.048331
48,2096364444,-8.278,3.6409798,49.71649,-0.4420681,0.54964066,0.5128288,2.4954827,1.3704826,0.37010258,-0.263224,0.426174,0.461223,2.118987,1.20295,1.054499
49,2096381111,-8.291153,3.6601105,49.71469,-0.44086742,0.5492848,0.5097909,2.4831436,1.2714403,0.3504703,-0.270572,0.435329,0.46972,2.160373,1.224141,1.06034
50,2096397778,-8.3016205,3.6803322,49.72296,-0.43992138,0.5482104,0.50733376,2.4581647,1.1249245,0.34209645,-0.277904,0.444466,0.478176,2.201342,1.24289,1.066042
51,2096414445,-8.309326,3.7013168,49.742233,-0.43929863,0.54639554,0.50553036,2.4190702,0.9267647,0.34518594,-0.285226,0.453573,0.486602,2.24166,1.258336,1.071795
52,2096431112,-8.314194,3.7287903,49.757095,-0.43773746,0.544075,0.50300884,2.3840852,0.7266011,0.362028,-0.292522,0.462641,0.494985,2.281395,1.270446,1.077829
53,2096447779,-8.316177,3.7616234,49.771927,-0.43554878,0.5411235,0.5001588,2.3478837,0.5089356,0.39335328,-0.299781,0.47166,0.503321,2.320526,1.278928,1.084385
54,2096464446,-8.322861,3.7868843,49.786438,-0.43396187,0.53844285,0.4988079,2.3060348,0.38882732,0.40980786,-0.307014,0.480634,0.511634,2.35896,1.285408,1.091215
55,2096481113,-8.335037,3.8041992,49.79875,-0.43292618,0.5361198,0.49898624,2.260094,0.3830241,0.40943897,-0.314229,0.489569,0.51995,2.396628,1.291792,1.098039
56,2096497780,-8.348953,3.8190613,49.81201,-0.43206406,0.533617,0.5001025,2.208342,0.42626786,0.40715992,-0.32143,0.498463,0.528285,2.433434,1.298896,1.104825
57,2096514447,-8.366791,3.828144,49.825592,-0.43166542,0.5311769,0.50264454,2.1500006,0.5529815,0.39518523,-0.328624,0.507316,0.536662,2.469267,1.308112,1.111411
58,2096531114,-8.384048,3.840599,49.835617,-0.4306736,0.528309,0.5052023,2.0920284,0.70880806,0.39180154,-0.335802,0.516121,0.545082,2.504134,1.319925,1.117941
59,2096547781,-8.400528,3.856968,49.842117,-0.42903614,0.5249542,0.5077443,2.034287,0.8902353,0.39854777,-0.342953,0.52487,0.553544,2.538039,1.334762,1.124583
60,2096564448,-8.420395,3.869915,49.846344,-0.4275179,0.52155733,0.51140785,1.9726847,1.155884,0.3997286,-0.350078,0.533563,0.562067,2.570917,1.354027,1.131245
61,2096581115,-8.44281,3.8813934,49.847275,-0.4258852,0.5180042,0.5159173,1.9086391,1.4961084,0.39938194,-0.357176,0.542196,0.570666,2.602728,1.378962,1.137901
62,2096597782,-8.464325,3.894127,49.843246,-0.42539215,0.5156505,0.51750803,1.891363,1.6747768,0.41980964,-0.364266,0.55079,0.579291,2.634251,1.406875,1.144898
63,2096614449,-8.485275,3.907463,49.833862,-0.4262457,0.5146936,0.515955,1.9255756,1.6783779,0.46127445,-0.37137,0.559368,0.58789,2.666344,1.434848,1.152586
64,2096631116,-8.506821,3.9214783,49.818985,-0.4276924,0.5144198,0.5128565,1.9892902,1.6138567,0.51604027,-0.378498,0.567942,0.596438,2.699499,1.461746,1.161187
65,2096647783,-8.528259,3.9366531,49.79785,-0.43010998,0.51524353,0.50717974,2.0968165,1.4177809,0.5899071,-0.385666,0.576529,0.604891,2.734446,1.485376,1.171019
66,2096664450,-8.552811,3.9495506,49.7715,-0.43297386,0.5164894,0.5014219,2.2188118,1.2439382,0.66620904,-0.392882,0.585137,0.613248,2.771426,1.506108,1.182122
67,2096681117,-8.580811,3.9600906,49.73958,-0.43624306,0.5181329,0.4956894,2.3544614,1.1013823,0.744379,-0.400153,0.593773,0.621509,2.810667,1.524464,1.194528
68,2096697784,-8.610107,3.9703178,49.70067,-0.44053555,0.5208986,0.4878173,2.53159,0.8584018,0.8377827,-0.407495,0.602455,0.629639,2.85286,1.538771,1.208491
69,2096714451,-8.641556,3.979473,49.654602,-0.44576073,0.5246762,0.4782982,2.7450175,0.546859,0.9430607,-0.414924,0.6112,0.637611,2.89861,1.547885,1.224209
70,2096731118,-8.668106,3.9967537,49.6205,-0.44783783,0.526152,0.47267723,2.8839242,0.3275671,1.0340965,-0.422388,0.619969,0.645489,2.946675,1.553344,1.241444
71,2096747785,-8.68898,4.0232315,49.59984,-0.44646645,0.52512443,0.47120523,2.9417229,0.1986916,1.1100116,-0.429829,0.628721,0.653342,2.995704,1.556656,1.259944
72,2096764452,-8.708099,4.0540047,49.58333,-0.443532,0.52311456,0.47156477,2.9680593,0.10459471,1.1809535,-0.437221,0.63744,0.661201,3.045172,1.558399,1.279627
73,2096781119,-8.7234955,4.091709,49.576157,-0.43790722,0.51922834,0.47524023,2.9329379,0.085114,1.239979,-0.444519,0.646094,0.669122,3.094054,1.559818,1.300293
74,2096797786,-8.738861,4.1315575,49.56653,-0.432127,0.51560926,0.47841644,2.9088867,0.011985302,1.3058748,-0.451721,0.654687,0.677096,3.142535,1.560018,1.322058
75,2096814453,-8.754501,4.1732407,49.553635,-0.42632294,0.51238585,0.48091078,2.899898,-0.1209774,1.379422,-0.458826,0.663227,0.685111,3.190867,1.558002,1.345048
76,2096831120,-8.7668,4.221531,49.548004,-0.41823864,0.50771344,0.48591614,2.843612,-0.21655607,1.4451857,-0.465797,0.671689,0.69321,3.238261,1.554393,1.369134
77,2096847787,-8.776535,4.2755394,49.54709,-0.40837193,0.50203586,0.4926548,2.7548676,-0.30244732,1.5069773,-0.472603,0.680056,0.701421,3.284175,1.549352,1.39425
78,2096864454,-8.791061,4.3225822,49.542236,-0.40231037,0.49830246,0.49669313,2.7344203,-0.3677013,1.5634065,-0.479308,0.688361,0.709699,3.329749,1.543224,1.420307
79,2096881121,-8.810593,4.362175,49.533997,-0.40028572,0.49655843,0.49802065,2.7837815,-0.39997983,1.612206,-0.485979,0.696637,0.717999,3.376145,1.536558,1.447177
80,2096897788,-8.832092,4.3998146,49.525024,-0.399971,0.49569583,0.49823332,2.8647676,-0.4234848,1.6563518,-0.492645,0.704899,0.726303,3.423891,1.5295,1.474783
81,2096914455,-8.857452,4.432186,49.513336,-0.40284634,0.49647498,0.49620962,3.0032783,-0.43187046,1.6946416,-0.499359,0.713174,0.734573,3.473946,1.522302,1.503027
82,2096931122,-8.881454,4.467991,49.506836,-0.40506268,0.49670017,0.49538183,3.1241915,-0.40636277,1.7234802,-0.50611,0.721452,0.742829,3.526016,1.515529,1.531752
83,2096947789,-8.903824,4.5077477,49.506012,-0.40642357,0.4962703,0.49591208,3.2238967,-0.34763718,1.742543,-0.512884,0.729723,0.751094,3.579748,1.509735,1.560794
84,2096964456,-8.928772,4.5443,49.5054,-0.410141,0.49693108,0.4951372,3.3619566,-0.25832558,1.7521348,-0.51972,0.738005,0.759346,3.635781,1.50543,1.589996
85,2096981123,-8.95517,4.5794945,49.50688,-0.41542053,0.4982233,0.49378777,3.5225449,-0.1335218,1.7510371,-0.526644,0.746309,0.767576,3.69449,1.503205,1.61918
86,2096997790,-8.977478,4.614727,49.50139,-0.41837597,0.49752676,0.4934621,3.628879,-0.03952861,1.7443726,-0.533617,0.754601,0.7758,3.754971,1.502546,1.648253
87,2097014457,-8.995636,4.649227,49.487564,-0.4190464,0.49479604,0.49400234,3.680585,0.018858433,1.7320435,-0.540601,0.762848,0.784033,3.816314,1.50286,1.67712
88,2097031124,-9.011551,4.683529,49.471024,-0.41875935,0.49095714,0.49514866,3.7031941,0.0777266,1.7102497,-0.54758,0.771031,0.792285,3.878034,1.504155,1.705624
89,2097047791,-9.023727,4.7177086,49.44908,-0.41654682,0.48532295,0.49726725,3.6768377,0.119668245,1.6799266,-0.554522,0.77912,0.800573,3.939315,1.506149,1.733623
90,2097064458,-9.036514,4.7491035,49.42578,-0.41552544,0.47986603,0.49873638,3.661459,0.18343055,1.63747,-0.561447,0.787118,0.808885,4.000339,1.509206,1.760914
91,2097081125,-9.050049,4.7775764,49.40146,-0.4158373,0.47465563,0.49951792,3.6590462,0.27298486,1.5819721,-0.568378,0.795029,0.81721,4.061323,1.513756,1.78728
92,2097097792,-9.060928,4.8044395,49.37181,-0.41511345,0.46810687,0.500721,3.6224432,0.35454166,1.5156314,-0.575297,0.802831,0.825555,4.121697,1.519665,1.812541
93,2097114459,-9.070007,4.8289986,49.337585,-0.41402626,0.46061838,0.5019975,3.5638447,0.43696487,1.4371877,-0.582197,0.810508,0.833922,4.181094,1.526948,1.836494
94,2097131126,-9.079803,4.852459,49.304688,-0.4142065,0.45603693,0.50376606,3.5448613,0.5103065,1.3793993,-0.5891,0.818109,0.842318,4.240175,1.535453,1.859484
95,2097147793,-9.090103,4.87492,49.272964,-0.41554737,0.45454395,0.50618124,3.5656433,0.5692949,1.3454952,-0.596026,0.825685,0.850754,4.299602,1.544941,1.881909
96,2097164460,-9.100281,4.895214,49.240005,-0.41773987,0.4545859,0.50880146,3.6050472,0.6246835,1.3188658,-0.602988,0.833261,0.859234,4.359686,1.555352,1.90389
97,2097181127,-9.110931,4.913563,49.207123,-0.42118168,0.4572053,0.5117712,3.67884,0.67218745,1.3087807,-0.610008,0.840881,0.867764,4.421,1.566555,1.925703
98,2097197794,-9.119644,4.9294243,49.16977,-0.4243183,0.45974636,0.5151434,3.7383687,0.70959425,1.2962592,-0.61708,0.848543,0.87635,4.483306,1.578382,1.947307
99,2097214461,-9.126312,4.9425545,49.127487,-0.42712402,0.46210253,0.51888657,3.7816892,0.7370089,1.2801192,-0.624199,0.856245,0.884998,4.546334,1.590665,1.968642
100,2097231128,-9.132599,4.95335,49.08365,-0.4307146,0.46651864,0.5231099,3.8465772,0.75110483,1.278074,-0.631378,0.86402,0.893716,4.610444,1.603183,1.989943
101,2097247795,-9.137909,4.9615517,49.037155,-0.43476868,0.47246766,0.52782726,3.9228785,0.7507813,1.2863703,-0.638624,0.871894,0.902513,4.675825,1.615696,2.011383
102,2097264462,-9.139313,4.974964,48.999786,-0.43771076,0.47642088,0.53181267,3.958527,0.7239312,1.2781,-0.645919,0.879834,0.911377,4.7418,1.627762,2.032685
103,2097281129,-9.136642,4.994335,48.97307,-0.43950462,0.4783405,0.5349765,3.9528887,0.6677513,1.2532716,-0.653244,0.887806,0.920293,4.807681,1.638891,2.053573
104,2097297796,-9.130875,5.015774,48.950592,-0.44067764,0.47956944,0.53792095,3.9236624,0.58619845,1.2224495,-0.660589,0.895799,0.929258,4.873075,1.648661,2.073947
105,2097314463,-9.121109,5.0414467,48.935837,-0.4408102,0.4792093,0.5403118,3.857224,0.4746312,1.1789982,-0.667936,0.903786,0.938263,4.937362,1.656572,2.093597
106,2097331130,-9.109543,5.0668297,48.9227,-0.44112206,0.47993422,0.5428877,3.7936835,0.3380468,1.1434739,-0.675288,0.911785,0.947311,5.00059,1.662206,2.112655
107,2097347797,-9.09613,5.091625,48.910797,-0.4416418,0.48188245,0.5456996,3.734339,0.175295,1.1171739,-0.682649,0.919816,0.956406,5.062829,1.665128,2.131275
108,2097364464,-9.07901,5.1200905,48.906296,-0.44138908,0.48296106,0.54809093,3.647276,-0.021219969,1.0844116,-0.690005,0.927865,0.965541,5.123617,1.664774,2.149349
109,2097381131,-9.0585785,5.1513023,48.908066,-0.44060326,0.4837427,0.5502162,3.5405834,-0.2517469,1.0497777,-0.697348,0.935927,0.974711,5.182627,1.660578,2.166845
110,2097397798,-9.042908,5.17976,48.905838,-0.4404974,0.48456252,0.55281544,3.4462557,-0.39869404,1.0283225,-0.70469,0.944003,0.983925,5.240065,1.653933,2.183984
111,2097414465,-9.032593,5.2055473,48.899582,-0.44105625,0.48520076,0.5558715,3.3633003,-0.45228434,1.0198684,-0.712041,0.95209,0.99319,5.29612,1.646395,2.200982
112,2097431132,-9.023941,5.23077,48.893646,-0.44185734,0.4858855,0.55912924,3.2817466,-0.46904564,1.0206563,-0.719405,0.960188,1.002509,5.350816,1.638578,2.217993
113,2097447799,-9.01915,5.2540855,48.885483,-0.4432001,0.4866351,0.56276894,3.209356,-0.416219,1.0346344,-0.726792,0.968299,1.011888,5.404305,1.631641,2.235237
114,2097464466,-9.013031,5.279934,48.88298,-0.44409657,0.4867109,0.56618404,3.1186411,-0.36527038,1.0494049,-0.734194,0.976411,1.021324,5.456282,1.625553,2.252727
115,2097481133,-9.005203,5.3085823,48.88672,-0.4444952,0.48610127,0.569345,3.0083547,-0.3202927,1.0648794,-0.741602,0.984513,1.030813,5.506421,1.620215,2.270475
116,2097497800,-9.000336,5.336788,48.890762,-0.44514084,0.48516345,0.5726967,2.8986077,-0.21664333,1.0907946,-0.749021,0.992599,1.040358,5.554731,1.616604,2.288655
117,2097514467,-8.997345,5.3655586,48.896942,-0.44581318,0.48372114,0.576107,2.7833996,-0.068558216,1.1248026,-0.756451,1.000661,1.04996,5.601121,1.615461,2.307402
118,2097531134,-8.995728,5.391369,48.90065,-0.44637775,0.48259592,0.57843924,2.6920173,0.031304836,1.1474836,-0.763891,1.008704,1.059601,5.645988,1.615983,2.326527
119,2097547801,-8.996109,5.413494,48.900787,-0.44690037,0.48187172,0.5796242,2.6296415,0.08324695,1.1582284,-0.771339,1.016735,1.069261,5.689815,1.61737,2.345831
120,2097564468,-8.998138,5.4343834,48.900894,-0.44729328,0.48101127,0.5800967,2.5783322,0.12265754,1.1647892,-0.778794,1.024752,1.078929,5.732787,1.619414,2.365244
121,2097581135,-9.001892,5.452915,48.89946,-0.44754028,0.4802301,0.5795374,2.547143,0.12668395,1.1620572,-0.786253,1.032756,1.088588,5.775239,1.621525,2.384612
122,2097597802,-9.008972,5.4703712,48.897903,-0.4479084,0.4791199,0.5787058,2.5243857,0.16704595,1.1642015,-0.793718,1.040741,1.098233,5.817312,1.624309,2.404015
123,2097614469,-9.019531,5.486912,48.896393,-0.44838905,0.47761476,0.5776162,2.5092232,0.24804187,1.1719148,-0.801191,1.048701,1.10786,5.859132,1.628443,2.423547
124,2097631136,-9.033051,5.5008965,48.892944,-0.44884014,0.4760908,0.57559633,2.5158904,0.31511915,1.1737244,-0.808672,1.056636,1.117453,5.901064,1.633695,2.443109
125,2097647803,-9.049942,5.512554,48.887787,-0.4493189,0.4744444,0.57278585,2.54251,0.3841982,1.1725872,-0.816161,1.064543,1.126999,5.943439,1.640098,2.462652
126,2097664470,-9.062317,5.5251045,48.88472,-0.4494238,0.47306776,0.5711088,2.559579,0.44778502,1.1735375,-0.823651,1.072427,1.136517,5.986099,1.647561,2.482211
127,2097681137,-9.0694275,5.53854,48.883636,-0.44910526,0.4720446,0.57065487,2.566947,0.49907088,1.1755903,-0.831136,1.080294,1.146028,6.028881,1.655879,2.501804
128,2097697804,-9.075516,5.5514336,48.882843,-0.44859314,0.47111404,0.57058954,2.5781064,0.5528525,1.1782835,-0.838613,1.088146,1.155538,6.071849,1.665093,2.521442
129,2097714471,-9.078369,5.564533,48.88324,-0.44777012,0.470402,0.57142353,2.5859914,0.60539746,1.1825576,-0.846076,1.095986,1.165062,6.114949,1.675183,2.541151
130,2097731138,-9.082703,5.5755196,48.882034,-0.4468336,0.46975565,0.5718398,2.612259,0.64766026,1.1824,-0.853523,1.103815,1.174593,6.158487,1.685977,2.560858
131,2097747805,-9.088913,5.5841637,48.878983,-0.44579315,0.469162,0.5717635,2.6588886,0.6804218,1.1775532,-0.860953,1.111634,1.184122,6.202802,1.697317,2.580484
132,2097764472,-9.092834,5.592251,48.87613,-0.44445324,0.4688152,0.57229424,2.7095687,0.70446086,1.1716502,-0.868361,1.119448,1.19366,6.247961,1.709058,2.600012
133,2097781139,-9.095413,5.5992165,48.872757,-0.44285393,0.46869075,0.57315636,2.7695045,0.71759224,1.1632733,-0.875742,1.12726,1.203213,6.294119,1.721018,2.6194
134,2097797806,-9.102066,5.603306,48.861404,-0.4415083,0.468436,0.572834,2.8155503,0.78441167,1.1603167,-0.8831,1.135067,1.21276,6.341045,1.734092,2.638739
135,2097814473,-9.112778,5.6045113,48.841476,-0.44043827,0.4680549,0.571321,2.8438041,0.910576,1.1637917,-0.890441,1.142868,1.222282,6.388442,1.749268,2.658136
136,2097831140,-9.125626,5.603222,48.815872,-0.43941975,0.46770847,0.56915,2.8690982,1.0636568,1.1688545,-0.897765,1.150663,1.231768,6.43626,1.766996,2.677617
137,2097847807,-9.141983,5.5989647,48.78247,-0.43858814,0.46731567,0.5659342,2.884476,1.2615759,1.1777349,-0.905075,1.158452,1.2412,6.484335,1.788022,2.697246
138,2097864474,-9.157654,5.59309,48.74597,-0.4375906,0.46714306,0.56283903,2.899858,1.4671512,1.1866481,-0.912368,1.166238,1.250581,6.532666,1.812475,2.717023
139,2097881141,-9.17244,5.5855904,48.706375,-0.43640423,0.46721685,0.5599127,2.9162824,1.6779333,1.1951623,-0.919641,1.174025,1.259913,6.581271,1.840441,2.736942
140,2097897808,-9.18959,5.575321,48.659348,-0.43532467,0.4673431,0.55624294,2.9225333,1.9282392,1.207098,-0.926896,1.181814,1.269184,6.62998,1.872578,2.75706
141,2097914475,-9.208206,5.562504,48.605637,-0.43427277,0.46758783,0.552073,2.9205136,2.2105904,1.2216423,-0.934134,1.189607,1.278385,6.678655,1.909421,2.777421
142,2097931142,-9.228378,5.545475,48.558914,-0.43351555,0.467759,0.54796314,2.942423,2.435568,1.2363265,-0.941359,1.197403,1.287518,6.727695,1.950014,2.798026
143,2097947809,-9.25058,5.523876,48.519806,-0.43311787,0.46782148,0.5438571,2.9895606,2.599224,1.2514861,-0.948578,1.2052,1.296582,6.777521,1.993334,2.818884
144,2097964476,-9.274109,5.498577,48.482193,-0.4329071,0.46791792,0.53964996,3.0476642,2.7391872,1.2678034,-0.955793,1.212999,1.305576,6.828315,2.038987,2.840014
145,2097981143,-9.299088,5.469013,48.449722,-0.43297386,0.46799195,0.5354676,3.1251335,2.8316314,1.2848098,-0.963009,1.220799,1.3145,6.880401,2.086181,2.861427
146,2097997810,-9.32634,5.435734,48.41307,-0.43324566,0.46811843,0.5307369,3.200234,2.9375072,1.3049147,-0.97023,1.228601,1.323346,6.933738,2.135139,2.883176
147,2098014477,-9.35585,5.3987083,48.37169,-0.43371868,0.46831155,0.52543974,3.2715745,3.0598822,1.3283055,-0.977459,1.236406,1.332103,6.988264,2.186137,2.905314
148,2098031144,-9.387421,5.357052,48.333282,-0.43452168,0.46848536,0.5199609,3.3571317,3.1476488,1.3534799,-0.984701,1.244214,1.340769,7.044216,2.238598,2.927872
149,2098047811,-9.421249,5.3108177,48.295837,-0.43564796,0.46865737,0.514174,3.4522471,3.2133107,1.3810453,-0.991962,1.252025,1.349339,7.101753,2.292153,2.950889
150,2098064478,-9.450714,5.2727013,48.25525,-0.43566704,0.46885026,0.5090809,3.5368676,3.2262053,1.4192445,-0.999223,1.259839,1.357824,7.160701,2.345923,2.974543
151,2098081145,-9.475159,5.243786,48.212067,-0.43446445,0.46905267,0.50482035,3.611255,3.1761007,1.4688599,-1.006464,1.267657,1.366238,7.220889,2.398858,2.999024
152,2098097812,-9.497925,5.218014,48.166946,-0.43272114,0.46926475,0.5008297,3.6817348,3.0849826,1.5265541,-1.013676,1.275478,1.374585,7.282251,2.450274,3.024467
153,2098114479,-9.51712,5.1989555,48.119064,-0.4300394,0.46948755,0.497406,3.7432642,2.9412458,1.5947719,-1.020843,1.283303,1.382875,7.344639,2.499295,3.051047
154,2098131146,-9.53656,5.1789436,48.072784,-0.42729092,0.46968818,0.49406958,3.8120134,2.7481437,1.6685579,-1.027965,1.291131,1.391109,7.408173,2.545097,3.078856
155,2098147813,-9.556442,5.1575584,48.028305,-0.4245243,0.46986365,0.49079084,3.8885581,2.505093,1.7478945,-1.03504,1.298962,1.399289,7.472982,2.586849,3.107988
156,2098164480,-9.573288,5.1418114,47.982788,-0.4209547,0.47002745,0.4880767,3.9605277,2.1985173,1.8375635,-1.042056,1.306796,1.407424,7.538991,2.623491,3.138614
157,2098181147,-9.587769,5.130192,47.93724,-0.41675472,0.47017038,0.48584127,4.0312843,1.8270657,1.936768,-1.049002,1.314632,1.415521,7.606179,2.653942,3.170893
158,2098197814,-9.60257,5.1182213,47.892822,-0.41361237,0.46995473,0.4829936,4.087352,1.5558708,2.0101204,-1.055896,1.322465,1.423571,7.674302,2.679873,3.204395
159,2098214481,-9.617386,5.10651,47.849426,-0.41158676,0.46934414,0.4795127,4.1258144,1.397321,2.0548656,-1.062756,1.330287,1.431563,7.743066,2.703162,3.238643
160,2098231148,-9.631363,5.0963783,47.807312,-0.40997982,0.46848643,0.47587729,4.1551757,1.270679,2.0873036,-1.069589,1.338095,1.439494,7.812319,2.72434,3.273431
161,2098247815,-9.64505,5.0869637,47.76677,-0.40923405,0.46728098,0.47181273,4.1710196,1.2209959,2.09757,-1.07641,1.345883,1.447358,7.881836,2.74469,3.30839
162,2098264482,-9.655869,5.082905,47.726578,-0.4081564,0.46592057,0.46810532,4.177654,1.1468134,2.1076045,-1.083213,1.353648,1.45516,7.951464,2.763804,3.343517
163,2098281149,-9.66362,5.084591,47.68683,-0.40668583,0.46440768,0.46481228,4.1752567,1.0412863,2.1184883,-1.089991,1.361388,1.462907,8.021052,2.781159,3.378825
164,2098297816,-9.669876,5.089222,47.6485,-0.40579224,0.46255088,0.46131897,4.157428,0.9941808,2.110494,-1.096754,1.369097,1.470596,8.090342,2.797729,3.414
165,2098314483,-9.6740265,5.0979652,47.611435,-0.4052286,0.46038198,0.4578042,4.124617,0.9844223,2.0879118,-1.103508,1.37677,1.478226,8.159086,2.814136,3.448799
166,2098331150,-9.6788025,5.1020393,47.57454,-0.40466785,0.45954812,0.45610142,4.098745,0.963302,2.0702982,-1.110252,1.384429,1.485828,8.227398,2.830191,3.483304
167,2098347817,-9.684525,5.1004295,47.537903,-0.40420246,0.46018338,0.45632982,4.0805354,0.93867266,2.0566242,-1.116989,1.392099,1.493433,8.295407,2.845836,3.517581
168,2098364484,-9.689362,5.0982933,47.502,-0.4038248,0.46152663,0.4577608,4.05939,0.9205965,2.0400753,-1.123719,1.399791,1.501062,8.363064,2.861179,3.551582
169,2098381151,-9.694092,5.093174,47.4666,-0.40348434,0.46403968,0.46091032,4.040804,0.89994407,2.0250504,-1.130444,1.407525,1.508744,8.430411,2.876178,3.585333
170,2098397818,-9.697418,5.0897255,47.43274,-0.40363407,0.46671355,0.46458483,4.0097675,0.929176,1.9945185,-1.137171,1.415304,1.516487,8.49724,2.891664,3.618575
171,2098414485,-9.699081,5.0884056,47.40059,-0.40429115,0.4694996,0.46875572,3.9649282,1.0116717,1.9472754,-1.143909,1.423129,1.5243,8.563322,2.908525,3.65103
172,2098431152,-9.700409,5.084797,47.36946,-0.40520668,0.473315,0.47449112,3.9182155,1.115382,1.8951473,-1.150662,1.431018,1.532208,8.628626,2.927115,3.682616
173,2098447819,-9.701019,5.079891,47.339615,-0.40648842,0.47796476,0.48157358,3.8661253,1.253243,1.8340867,-1.157437,1.438984,1.540234,8.693061,2.948002,3.713184
174,2098464486,-9.701782,5.0751,47.31128,-0.40771675,0.48173034,0.48615217,3.8272746,1.333282,1.7885561,-1.164232,1.447013,1.548337,8.756849,2.970223,3.742993
175,2098481153,-9.702911,5.069935,47.284378,-0.4088421,0.48457885,0.48800516,3.8048677,1.3445685,1.7620292,-1.171046,1.455089,1.55647,8.820263,2.992632,3.77236
176,2098497820,-9.703827,5.0643425,47.259155,-0.4101553,0.48721063,0.48882818,3.7876296,1.3409709,1.739892,-1.177882,1.463209,1.564617,8.88339,3.014982,3.801358
177,2098514487,-9.704803,5.058468,47.23564,-0.41154194,0.48918748,0.4875803,3.781293,1.2965748,1.7293022,-1.184741,1.471362,1.572743,8.946412,3.036592,3.83018
178,2098531154,-9.705643,5.0503807,47.21373,-0.41319847,0.49176812,0.4868045,3.7778447,1.2584722,1.7186885,-1.191628,1.479558,1.580856,9.009376,3.057567,3.858825
179,2098547821,-9.706314,5.039898,47.193436,-0.41516304,0.49502695,0.4866376,3.7767122,1.23135,1.7069981,-1.198547,1.487808,1.588967,9.072321,3.078089,3.887275
180,2098564488,-9.707245,5.0280266,47.174957,-0.41724586,0.49796867,0.4848938,3.7871914,1.1691728,1.7063997,-1.205501,1.496107,1.597049,9.135441,3.097575,3.915715
181,2098581155,-9.708405,5.0142326,47.15834,-0.4194975,0.5008664,0.48209286,3.8079267,1.0819035,1.7146256,-1.212493,1.504455,1.605084,9.198906,3.115607,3.944292
182,2098597822,-9.706558,5.0041084,47.143005,-0.4213915,0.5033268,0.4813609,3.7994504,1.0221119,1.7046895,-1.219516,1.512844,1.613107,9.26223,3.132642,3.972703
183,2098614489,-9.701462,4.998188,47.12892,-0.4228487,0.50518894,0.48270893,3.7595108,0.9881836,1.6758881,-1.226563,1.521264,1.621152,9.324889,3.149112,4.000634
184,2098631156,-9.694656,4.9933662,47.116455,-0.4241562,0.5068228,0.48498487,3.7062068,0.96131873,1.6397626,-1.233632,1.529711,1.629235,9.386659,3.165134,4.027963
185,2098647823,-9.685242,4.9911995,47.10544,-0.42515087,0.50807655,0.4889779,3.628975,0.9538778,1.5894194,-1.240718,1.538179,1.637385,9.447142,3.181032,4.054453
186,2098664490,-9.675262,4.988552,47.096405,-0.42610455,0.5089216,0.4922824,3.5534344,0.9235159,1.5438411,-1.24782,1.546661,1.64559,9.506366,3.196424,4.080184
187,2098681157,-9.664902,4.9851418,47.0894,-0.42702675,0.5093653,0.49477816,3.4811747,0.86757255,1.5042579,-1.254937,1.55515,1.653836,9.564386,3.210884,4.105255
188,2098697824,-9.652344,4.9838448,47.084137,-0.4276371,0.5092696,0.49832916,3.3902974,0.81699026,1.4554267,-1.262064,1.563638,1.662141,9.620891,3.224501,4.129512
189,2098714491,-9.63797,4.983967,47.080734,-0.42798042,0.5086098,0.5024195,3.286162,0.7621181,1.4014919,-1.269197,1.572115,1.670515,9.67566,3.237203,4.15287
190,2098731158,-9.625214,4.9815483,47.078827,-0.4283886,0.5084715,0.50556374,3.1992574,0.7230685,1.3537214,-1.276337,1.58059,1.678941,9.728981,3.249254,4.175432
191,2098747825,-9.614105,4.976612,47.07843,-0.4288416,0.50891435,0.5078316,3.1297042,0.70497143,1.3114161,-1.283484,1.589072,1.687405,9.781143,3.261004,4.197289
192,2098764492,-9.603378,4.970562,47.079803,-0.42920303,0.50938356,0.5095682,3.0665839,0.6912694,1.2721243,-1.290637,1.597562,1.695898,9.832253,3.272525,4.218491
193,2098781159,-9.593903,4.962414,47.082886,-0.42953873,0.5101601,0.51041126,3.017647,0.6883863,1.2385492,-1.297796,1.606065,1.704405,9.882547,3.283998,4.239133
194,2098797826,-9.583267,4.955181,47.087814,-0.42956924,0.5105543,0.51169395,2.959506,0.69192886,1.2003882,-1.304955,1.614574,1.712933,9.931872,3.29553,4.259139
195,2098814493,-9.571335,4.948986,47.09465,-0.42926502,0.51050234,0.5134487,2.891114,0.70069706,1.1574023,-1.312109,1.623082,1.72149,9.980057,3.307208,4.278429
196,2098831160,-9.560028,4.9415016,47.103256,-0.42881393,0.5105792,0.51469517,2.8307292,0.7227018,1.1170139,-1.319256,1.631592,1.730068,10.027236,3.319253,4.297046
197,2098847827,-9.548904,4.9333687,47.113663,-0.42814636,0.51062775,0.51570845,2.7734246,0.7571455,1.0770824,-1.326392,1.640102,1.738663,10.07346,3.331872,4.314997
198,2098864494,-9.535507,4.927311,47.126266,-0.42806435,0.5099039,0.5159979,2.7247348,0.75520384,1.041789,-1.333526,1.6486,1.747263,10.118872,3.344459,4.33236
199,2098881161,-9.519867,4.923298,47.141052,-0.42866707,0.50839996,0.51539564,2.687497,0.71359015,1.0124161,-1.34067,1.657073,1.755853,10.163664,3.356352,4.349234
200,2098897828,-9.502777,4.9204903,47.157944,-0.42951202,0.50635207,0.5143113,2.655875,0.6551151,0.98556644,-1.347829,1.665512,1.764425,10.207929,3.367271,4.36566
201,2098914495,-9.483566,4.9195824,47.177017,-0.4308281,0.5035646,0.512568,2.6322134,0.5665096,0.96269697,-1.355009,1.673905,1.772968,10.251799,3.376713,4.381705
202,2098931162,-9.464264,4.9184303,47.198105,-0.43218517,0.50059557,0.51017094,2.6182568,0.4780512,0.9434646,-1.362212,1.682248,1.781471,10.295437,3.384681,4.397429
203,2098947829,-9.444946,4.9169655,47.22119,-0.43354988,0.49745667,0.5071268,2.6140141,0.39154077,0.9277702,-1.369438,1.690539,1.789923,10.339004,3.391207,4.412892
204,2098964496,-9.424103,4.9168663,47.246506,-0.4353447,0.49369478,0.5032549,2.621054,0.2802856,0.9171979,-1.376694,1.698767,1.798311,10.382688,3.395878,4.428179
205,2098981163,-9.40213,4.917698,47.274033,-0.43748474,0.48941803,0.49853373,2.64014,0.15045524,0.9118251,-1.383985,1.706924,1.80662,10.42669,3.398386,4.443376
206,2098997830,-9.379105,4.917568,47.29944,-0.43832588,0.4865054,0.49583197,2.6598663,0.07793069,0.9088802,-1.39129,1.715032,1.814884,10.471021,3.399685,4.458524
207,2099014497,-9.354874,4.9165,47.322372,-0.43776608,0.48508465,0.49538136,2.6799352,0.066630125,0.9085625,-1.398586,1.723117,1.82314,10.515687,3.400796,4.473667
208,2099031164,-9.329681,4.9150963,47.344833,-0.4365301,0.48433948,0.49579334,2.7067711,0.084709406,0.91245884,-1.405862,1.731189,1.831403,10.5608,3.402208,4.488875
209,2099047831,-9.303452,4.9128838,47.365585,-0.43417168,0.48479116,0.49786282,2.7376986,0.1527121,0.920072,-1.413098,1.739269,1.839701,10.606428,3.404753,4.50421
210,2099064498,-9.275757,4.911457,47.38719,-0.43174934,0.48522627,0.4998622,2.7803104,0.21971309,0.9336557,-1.420294,1.747356,1.848032,10.652767,3.408415,4.519771
211,2099081165,-9.246613,4.910885,47.40976,-0.42931843,0.48559391,0.5016885,2.835652,0.28342867,0.9536126,-1.427449,1.755449,1.856393,10.700028,3.413139,4.535665
212,2099097832,-9.216156,4.909954,47.430878,-0.42595196,0.48696566,0.5049014,2.8979712,0.38734353,0.97858256,-1.434548,1.763565,1.864808,10.748328,3.419595,4.551975
213,2099114499,-9.18425,4.9090157,47.45102,-0.4218588,0.48910594,0.50915575,2.96928,0.5212803,1.0092647,-1.441579,1.771717,1.873294,10.797816,3.428283,4.568796
214,2099131166,-9.157059,4.9092827,47.472183,-0.4195814,0.4897728,0.511415,2.9920866,0.5730752,1.0349998,-1.448572,1.77988,1.881818,10.847684,3.437834,4.586046
215,2099147833,-9.135117,4.9107475,47.494125,-0.41923904,0.48889995,0.5116029,2.9600546,0.53748167,1.0547259,-1.455559,1.788028,1.890345,10.897018,3.446792,4.603625
216,2099164500,-9.11554,4.913067,47.516174,-0.4197693,0.4874078,0.51094246,2.901738,0.46099818,1.0741074,-1.462555,1.796151,1.898861,10.94538,3.454475,4.621527
217,2099181167,-9.100021,4.9165382,47.53871,-0.42185497,0.48471296,0.5086489,2.800414,0.31346226,1.0901616,-1.469586,1.80423,1.907338,10.992054,3.459699,4.639696
218,2099197834,-9.085114,4.92017,47.55992,-0.4237795,0.4824183,0.5069032,2.688114,0.17163587,1.1089926,-1.476649,1.81227,1.915786,11.036856,3.46256,4.658179
219,2099214501,-9.070648,4.923931,47.57962,-0.42546082,0.4806118,0.5058212,2.5663214,0.039030552,1.131069,-1.48374,1.82028,1.924216,11.079628,3.463211,4.67703
220,2099231168,-9.059937,4.9286156,47.59897,-0.42835808,0.47799587,0.5036454,2.4038248,-0.14907503,1.1507337,-1.490879,1.828247,1.93261,11.119692,3.460726,4.696209
221,2099247835,-9.052338,4.9340096,47.617508,-0.43212223,0.47491002,0.50083685,2.206481,-0.37717724,1.1692486,-1.498081,1.836162,1.940957,11.156467,3.45444,4.715696
222,2099264502,-9.041092,4.93845,47.635376,-0.4332018,0.47182274,0.49667835,2.1214368,-0.48132396,1.191972,-1.505301,1.844026,1.949235,11.191824,3.446418,4.735562
223,2099281169,-9.026062,4.9418907,47.652664,-0.4314394,0.46861625,0.49087048,2.1584854,-0.45380545,1.2186093,-1.512492,1.851836,1.957416,11.227799,3.438855,4.755872
224,2099297836,-9.010056,4.9449654,47.66887,-0.42828655,0.4652927,0.48405075,2.251422,-0.36200833,1.2473869,-1.51963,1.859591,1.965484,11.265323,3.432822,4.776662
225,2099314503,-8.991394,4.9472466,47.68402,-0.42279148,0.46193266,0.47593403,2.440596,-0.16173124,1.2795155,-1.526677,1.86729,1.973416,11.306,3.430126,4.797987
226,2099331170,-8.974991,4.9498787,47.69818,-0.41740417,0.45792103,0.46645975,2.6319747,0.034729242,1.3103709,-1.533634,1.874922,1.98119,11.349866,3.430705,4.819827
227,2099347837,-8.961166,4.9529305,47.711227,-0.4122305,0.45323575,0.4556265,2.8207555,0.22246122,1.3396564,-1.540505,1.882476,1.988784,11.396879,3.434413,4.842155
228,2099364504,-8.94603,4.9554176,47.723083,-0.40521622,0.4482335,0.44316864,3.0894284,0.49632704,1.37061,-1.547259,1.889947,1.99617,11.448369,3.442685,4.864998
229,2099381171,-8.930649,4.9575844,47.73369,-0.3968506,0.4427694,0.4290285,3.419203,0.83379686,1.4021542,-1.553873,1.897326,2.00332,11.505356,3.456582,4.888367
230,2099397838,-8.913834,4.954853,47.747543,-0.38717175,0.4395094,0.40864182,3.5348225,1.0525061,1.3668504,-1.560326,1.904651,2.010131,11.56427,3.474124,4.911148
231,2099414505,-8.894989,4.9466057,47.765045,-0.37588787,0.43874514,0.38143158,3.4201741,1.1472391,1.2580376,-1.566591,1.911963,2.016488,11.621273,3.493245,4.932115
232,2099431172,-8.875427,4.9351234,47.78401,-0.3632803,0.4391104,0.34942532,3.1931744,1.1899478,1.1064057,-1.572646,1.919282,2.022312,11.674493,3.513077,4.950555
233,2099447839,-8.8546295,4.919018,47.80568,-0.34924316,0.44137323,0.31121922,2.7786324,1.1328313,0.89233345,-1.578467,1.926638,2.027499,11.720804,3.531958,4.965427
234,2099464506,-8.832428,4.900631,47.827347,-0.3331728,0.44407845,0.26927567,2.3578658,1.1075796,0.6551021,-1.58402,1.934039,2.031987,11.760102,3.550418,4.976345
235,2099481173,-8.808777,4.8800163,47.848907,-0.31501102,0.4471438,0.22359228,1.9390162,1.1204449,0.39587337,-1.58927,1.941491,2.035714,11.792419,3.569092,4.982943
236,2099497840,-8.783356,4.8547173,47.87274,-0.29491138,0.4519869,0.17158985,1.3651525,1.0645032,0.0769797,-1.594185,1.949024,2.038574,11.815172,3.586834,4.984226
237,2099514507,-8.7560425,4.8251,47.89839,-0.27267742,0.4583341,0.113630295,0.67220855,0.96708536,-0.29466847,-1.59873,1.956663,2.040468,11.826375,3.602952,4.979315
238,2099531174,-8.732025,4.7977943,47.93863,-0.25410748,0.46037495,0.07125759,0.18660569,0.93319595,-0.5890024,-1.602965,1.964336,2.041656,11.829485,3.618505,4.969498
239,2099547841,-8.711624,4.7730064,47.995132,-0.2397232,0.45774972,0.04617262,-0.08124375,0.9595015,-0.7992139,-1.60696,1.971965,2.042426,11.828131,3.634497,4.956178
240,2099564508,-8.692276,4.7477226,48.06163,-0.22661209,0.453045,0.0283494,-0.26345277,1.0142397,-0.98328984,-1.610737,1.979516,2.042898,11.82374,3.651401,4.93979
241,2099581175,-8.6753845,4.7236137,48.142,-0.21639252,0.44467807,0.02379322,-0.27438998,1.1229757,-1.1064832,-1.614344,1.986927,2.043295,11.819167,3.670117,4.921349
242,2099597842,-8.657806,4.6960564,48.229706,-0.20568562,0.43640673,0.019221306,-0.34670925,1.1962084,-1.2555758,-1.617772,1.9942,2.043615,11.813389,3.690054,4.900423
243,2099614509,-8.639328,4.6646996,48.324554,-0.19426918,0.42842412,0.013953209,-0.49212933,1.2302358,-1.4356484,-1.62101,2.00134,2.043848,11.805187,3.710558,4.876496
244,2099631176,-8.622681,4.633236,48.433502,-0.18526077,0.41746557,0.019951344,-0.52088046,1.290956,-1.5733924,-1.624098,2.008298,2.044181,11.796506,3.732074,4.850273
245,2099647843,-8.607162,4.600628,48.555466,-0.17798042,0.40428782,0.034606457,-0.48148704,1.3590909,-1.6869237,-1.627064,2.015036,2.044758,11.788481,3.754726,4.822158
246,2099664510,-8.585587,4.5433006,48.625793,-0.16272354,0.3784268,0.040087223,0.08152914,1.8157728,-1.6265175,-1.629776,2.021343,2.045426,11.78984,3.784989,4.795049
247,2099681177,-8.557587,4.459255,48.6391,-0.13896751,0.33832896,0.03639698,1.2401125,2.707567,-1.3667482,-1.632092,2.026982,2.046033,11.810509,3.830115,4.77227
248,2099697844,-8.526093,4.358753,48.625412,-0.11087227,0.2893257,0.030448914,2.7504997,3.842912,-0.98890895,-1.63394,2.031804,2.04654,11.856351,3.894164,4.755788
249,2099714511,-8.4891205,4.2350616,48.56659,-0.07581043,0.22817707,0.017828465,4.7542686,5.3347583,-0.4456668,-1.635204,2.035607,2.046837,11.935589,3.983077,4.74836
250,2099731178,-8.451614,4.1025543,48.50212,-0.04022503,0.15993428,0.012265205,7.042655,6.982097,0.19728893,-1.635874,2.038273,2.047041,12.052967,4.099445,4.751648
251,2099747845,-8.413727,3.9616547,48.433884,-0.004422188,0.084694624,0.014594078,9.609792,8.777023,0.93854004,-1.635948,2.039685,2.047284,12.21313,4.245729,4.76729
252,2099764512,-8.371277,3.7990189,48.325928,0.037109375,-0.0031385422,0.0143408775,12.693895,10.924072,1.8560936,-1.63533,2.039633,2.047523,12.424695,4.427797,4.798225
253,2099781179,-8.325256,3.6172447,48.185913,0.08307934,-0.10281658,0.014554501,16.264042,13.388554,2.940906,-1.633945,2.037919,2.047766,12.695762,4.65094,4.84724
254,2099797846,-8.223755,3.4236946,47.95398,0.11158657,-0.1927979,0.01703167,20.610294,15.4164505,4.05634,-1.632085,2.034706,2.04805,13.039267,4.907881,4.914846
255,2099814513,-8.060791,3.216877,47.618347,0.12117672,-0.27200532,0.020793438,25.811474,16.967422,5.2050076,-1.630065,2.030173,2.048397,13.469458,5.190671,5.001596
256,2099831180,-7.861206,2.9945107,47.210953,0.12132168,-0.35042095,0.02716446,31.729109,18.381586,6.4511514,-1.628043,2.024333,2.04885,13.998276,5.497031,5.109115
257,2099847847,-7.6096344,2.7577019,46.711914,0.105960846,-0.42237687,0.036367416,38.473907,19.457666,7.764095,-1.626277,2.017293,2.049456,14.639508,5.821325,5.238517
258,2099864514,-7.3344727,2.4979324,46.144684,0.089199066,-0.5022197,0.04481697,45.965363,20.694567,9.250844,-1.62479,2.008923,2.050203,15.405597,6.166234,5.392698
259,2099881181,-7.036621,2.2142487,45.508728,0.07162762,-0.590945,0.052598953,54.22308,22.122473,10.923074,-1.623596,1.999074,2.05108,16.309315,6.534942,5.574749
260,2099897848,-6.687622,1.911293,44.772736,0.04079628,-0.6765857,0.06164694,63.4062,23.318933,12.705308,-1.622916,1.987798,2.052107,17.366085,6.923591,5.786504
261,2099914515,-6.2923126,1.5866508,43.938843,-0.0005607605,-0.7622435,0.071210384,73.52478,24.388475,14.625063,-1.622925,1.975094,2.053294,18.591498,7.330066,6.030255
262,2099931182,-5.8649445,1.2925644,43.131348,-0.051822662,-0.78548694,0.12104988,80.52261,25.207499,16.35062,-1.623789,1.962003,2.055311,19.933542,7.750191,6.302765
263,2099947849,-5.4018097,1.034317,42.3555,-0.11483383,-0.73834467,0.21537876,84.03349,25.705696,17.842875,-1.625703,1.949697,2.058901,21.3341,8.178619,6.600146
264,2099964516,-4.8979034,0.7851906,41.5511,-0.18840313,-0.6520419,0.33504486,85.99077,26.006348,19.279835,-1.628843,1.93883,2.064485,22.767279,8.612058,6.921477
265,2099981183,-4.354843,0.5600014,40.749954,-0.27315998,-0.50786304,0.49160862,85.246346,26.052147,20.565659,-1.633396,1.930366,2.072678,24.188051,9.04626,7.264238
266,2099997850,-3.754898,0.32910538,39.867935,-0.37319756,-0.33844423,0.6628556,84.20805,25.799383,21.878063,-1.639616,1.924725,2.083726,25.591519,9.47625,7.628872
267,2100014517,-3.095581,0.090652466,38.897835,-0.4890442,-0.14486957,0.8479099,82.99487,25.242252,23.228857,-1.647767,1.922311,2.097858,26.974767,9.896954,8.01602
268,2100031184,-2.38562,-0.127388,37.907753,-0.6196842,0.10655904,1.0684314,79.37537,24.340025,24.443388,-1.658095,1.924087,2.115665,28.29769,10.302621,8.42341
269,2100047851,-1.6195221,-0.33084488,36.878433,-0.7664919,0.41039073,1.3204443,73.81085,23.070282,25.555897,-1.67087,1.930927,2.137672,29.527871,10.687126,8.849342
270,2100064518,-1.1330719,-0.5081711,35.825745,-0.8350029,0.588984,1.475044,69.40929,22.158642,26.408438,-1.684787,1.940743,2.162256,30.684692,11.056437,9.289483
271,2100081185,-0.960022,-0.6537323,34.759117,-0.81601524,0.6303561,1.5227349,66.13271,21.655302,26.955784,-1.698387,1.951249,2.187635,31.786904,11.417359,9.738746
272,2100097852,-0.93803406,-0.77599335,33.65744,-0.755208,0.61585,1.5221128,62.76335,21.18876,27.288485,-1.710974,1.961513,2.213004,32.83296,11.770505,10.193554
273,2100114519,-1.1636353,-0.86961746,32.52746,-0.6255808,0.49688363,1.437423,60.047935,20.952082,27.347305,-1.7214,1.969794,2.236961,33.833759,12.119706,10.649342
274,2100131186,-1.444397,-0.9330025,31.37587,-0.48174572,0.38648176,1.3493898,55.533424,20.49757,27.170477,-1.729429,1.976235,2.259451,34.759316,12.461332,11.102183
275,2100147853,-1.7714844,-0.9650688,30.201721,-0.32632256,0.29085445,1.2619443,49.049576,19.787273,26.751492,-1.734868,1.981083,2.280483,35.576809,12.79112,11.548041
276,2100164520,-2.328537,-0.9606247,29.00843,-0.10769749,0.110964775,1.1030416,42.416275,19.207787,26.009205,-1.736663,1.982932,2.298867,36.283747,13.11125,11.981528
277,2100181187,-3.0798187,-0.91783524,27.797958,0.16386127,-0.13034415,0.8885262,35.069454,18.660452,24.939556,-1.733932,1.98076,2.313676,36.868238,13.422258,12.397187
278,2100197854,-3.5114288,-0.94924545,26.796104,0.33384895,-0.29847383,0.6736798,29.710352,18.239634,23.875101,-1.728368,1.975785,2.324904,37.363411,13.726252,12.795105
279,2100214521,-3.6012573,-1.0638885,26.02816,0.39487648,-0.39405918,0.4531865,26.798365,18.005566,22.824673,-1.721787,1.969217,2.332457,37.81005,14.026345,13.175516
280,2100231188,-3.572937,-1.2061272,25.391129,0.41420174,-0.46671152,0.2098875,24.651525,17.848843,21.615604,-1.714884,1.961438,2.335955,38.220909,14.323826,13.535776
281,2100247855,-3.2909393,-1.4068909,24.952347,0.3506899,-0.48306227,-0.04476595,24.091105,17.814505,20.328337,-1.709039,1.953387,2.335209,38.622427,14.620734,13.874582
282,2100264522,-3.1065521,-1.5979118,24.584503,0.3086233,-0.5483148,-0.36367273,23.983007,17.945168,18.73088,-1.703895,1.944248,2.329148,39.022144,14.91982,14.186763
283,2100281189,-3.0404205,-1.7746124,24.285141,0.29381657,-0.6682229,-0.75080776,24.227848,18.242962,16.79717,-1.698998,1.933111,2.316635,39.425941,15.223869,14.466716
284,2100297856,-2.8011322,-1.9980278,24.180756,0.2186861,-0.7626543,-1.1717958,26.141758,18.735222,14.704753,-1.695353,1.9204,2.297105,39.861637,15.536123,14.711795
285,2100314523,-2.4628296,-2.2540855,24.250336,0.10491657,-0.8546412,-1.639689,29.522917,19.440016,12.395613,-1.693604,1.906156,2.269777,40.353686,15.860123,14.918389
286,2100331190,-2.4514923,-2.521244,23.81166,0.10127735,-0.88101196,-1.9624872,31.823288,21.24091,11.945132,-1.691916,1.891472,2.237069,40.884074,16.214138,15.117475
287,2100347857,-2.772461,-2.8061829,22.817924,0.21112823,-0.8261688,-2.1184044,33.0304,24.246923,13.58249,-1.688397,1.877703,2.201762,41.434581,16.618253,15.34385
288,2100364524,-3.274063,-3.1106262,21.581322,0.37844944,-0.73572326,-2.2079797,34.27133,28.069906,16.291555,-1.68209,1.865441,2.164962,42.00577,17.086085,15.615376
289,2100381191,-4.066696,-3.4318771,19.914795,0.64215374,-0.5888002,-2.1758347,34.930378,32.98097,20.678411,-1.671387,1.855628,2.128698,42.587943,17.635768,15.960016
290,2100397858,-4.8286285,-3.7991753,18.252182,0.89312124,-0.40142465,-2.125712,36.87903,38.49682,25.588285,-1.656502,1.848938,2.093269,43.202593,18.277382,16.386487
291,2100414525,-5.547333,-4.2147636,16.616943,1.1267419,-0.1754272,-2.0639267,40.2746,44.61837,30.973263,-1.637723,1.846014,2.05887,43.873836,19.021022,16.902708
292,2100431192,-6.478821,-4.6634026,14.628159,1.4311457,0.11699414,-1.8888984,43.69627,51.846504,37.964256,-1.613871,1.847964,2.027388,44.602107,19.88513,17.535446
293,2100447859,-7.557068,-5.1528854,12.373169,1.7839308,0.4741181,-1.6203494,47.584587,60.110085,46.354042,-1.584139,1.855866,2.000382,45.395183,20.886965,18.308013
294,2100464526,-8.190475,-5.7409363,10.552338,2.0504637,0.72406316,-1.4424849,51.870815,66.01396,50.05028,-1.549965,1.867934,1.976341,46.259697,21.987198,19.142184
295,2100481193,-8.351837,-6.433777,9.181717,2.2286386,0.85587704,-1.3572879,56.407505,69.308754,48.622974,-1.512821,1.882199,1.95372,47.199822,23.142344,19.952567
296,2100497860,-8.275925,-7.2115974,7.9844513,2.3673553,0.95149624,-1.2880669,61.558964,71.57077,44.833252,-1.473365,1.898057,1.932252,48.225805,24.33519,20.699788
297,2100514527,-7.8022614,-8.09248,7.1418457,2.4316196,0.9647759,-1.2806764,67.279564,71.86361,37.000214,-1.432838,1.914137,1.910907,49.347131,25.532917,21.316458
298,2100531194,-7.341095,-9.0419655,6.1442184,2.523119,1.0042093,-1.1989613,73.30334,72.31485,28.972408,-1.390786,1.930874,1.890924,50.568853,26.738164,21.799331
299,2100547861,-6.9077454,-10.061558,4.965515,2.6459923,1.0771445,-1.0336185,79.672356,73.04048,20.942667,-1.346686,1.948826,1.873697,51.896726,27.955505,22.148375
300,2100564528,-6.155426,-11.186317,4.0147934,2.7192864,1.0897173,-0.8901763,86.48254,72.15318,9.50303,-1.301365,1.966988,1.858861,53.338102,29.158058,22.306759
301,2100581195,-5.1649475,-12.411873,3.1845322,2.7639656,1.0647919,-0.73807764,93.69096,70.07903,-4.5842104,-1.255299,1.984735,1.84656,54.899618,30.326042,22.230355
302,2100597862,-4.211746,-13.594006,2.436348,2.7984037,1.018324,-0.6124091,98.36449,68.92192,-14.366025,-1.208659,2.001707,1.836353,56.539026,31.474741,21.990921
303,2100614529,-3.27359,-14.725292,1.8185501,2.8139133,0.9389837,-0.5285511,100.20558,68.6169,-19.63983,-1.16176,2.017357,1.827544,58.209119,32.618356,21.663591
304,2100631196,-2.2681274,-15.873352,1.2791519,2.815216,0.83357584,-0.44834232,100.557655,68.42315,-23.22882,-1.11484,2.03125,1.820072,59.88508,33.758742,21.276444
305,2100647863,-1.2552643,-17.000233,0.8246231,2.8039684,0.7018701,-0.38507128,98.56386,68.83756,-23.321018,-1.068107,2.042948,1.813654,61.527811,34.906035,20.88776
306,2100664530,0.025054932,-18.202599,0.5867386,2.7471266,0.5095496,-0.34393692,95.950386,68.11314,-24.8897,-1.022322,2.05144,1.807922,63.126984,36.041254,20.472932
307,2100681197,1.5895996,-19.4874,0.57038116,2.6431594,0.25434017,-0.32304764,92.7697,66.142494,-28.196594,-0.978269,2.055679,1.802538,64.673146,37.143629,20.002989
308,2100697864,3.2642517,-20.774277,0.7231064,2.5084348,-0.04914379,-0.3326397,87.37108,64.19265,-29.20982,-0.936462,2.05486,1.796994,66.129331,38.213506,19.516159
309,2100714531,5.1108246,-22.084301,1.079567,2.3345652,-0.41033912,-0.37475967,80.05973,61.86515,-28.976467,-0.897553,2.048021,1.790748,67.46366,39.244592,19.033218
310,2100731198,6.5785065,-23.2901,1.0869522,2.246973,-0.71945953,-0.4538784,74.64628,60.40925,-28.359491,-0.860103,2.03603,1.783183,68.707765,40.251413,18.56056
311,2100747865,7.597748,-24.36834,0.6935959,2.2583075,-0.9665892,-0.5744095,71.23604,60.07702,-26.925045,-0.822465,2.01992,1.77361,69.895032,41.252697,18.111809
312,2100764532,8.475281,-25.392605,0.19104004,2.3023949,-1.2121744,-0.73768044,68.1739,59.98816,-24.946434,-0.784092,1.999717,1.761315,71.031264,42.2525,17.696035
313,2100781199,9.051224,-26.322384,-0.57380676,2.414462,-1.4263949,-0.94769335,66.43337,60.528206,-22.494781,-0.743851,1.975944,1.74552,72.138487,43.261303,17.321122
314,2100797866,9.60556,-27.210133,-1.2874756,2.5248303,-1.6717467,-1.2061601,63.294502,61.27321,-17.991554,-0.70177,1.948082,1.725417,73.193395,44.282523,17.021263
315,2100814533,10.158813,-28.057741,-1.9255524,2.6284237,-1.9541678,-1.5161147,58.57274,62.163895,-11.371607,-0.657963,1.915513,1.700148,74.169607,45.318588,16.831736
316,2100831200,10.427902,-28.80045,-2.7777634,2.791048,-2.217083,-1.8823338,54.436634,63.76149,-3.4111478,-0.611446,1.878562,1.668776,75.076884,46.381279,16.774884
317,2100847867,10.46669,-29.445528,-3.779045,2.99864,-2.474228,-2.3077025,50.28534,65.98865,6.2869635,-0.561469,1.837325,1.630314,75.914973,47.48109,16.879667
318,2100864534,10.723236,-30.140997,-4.6667557,3.139637,-2.7393808,-2.6281104,47.181545,67.1481,12.7274,-0.509142,1.791669,1.586512,76.701332,48.600225,17.09179
319,2100881201,11.195877,-30.888147,-5.456978,3.2127762,-3.0061846,-2.8297915,45.49225,67.175865,15.407577,-0.455596,1.741566,1.539349,77.459536,49.719823,17.348583
320,2100897868,11.700592,-31.617344,-6.234398,3.2624588,-3.2770267,-2.9939785,44.30567,66.84482,17.018293,-0.401222,1.686949,1.489449,78.197964,50.833903,17.632221
321,2100914535,12.34581,-32.364048,-6.9401703,3.2605681,-3.553028,-3.0752459,44.00799,65.71797,16.165785,-0.346879,1.627732,1.438195,78.931431,51.929203,17.901651
322,2100931202,12.790665,-33.019966,-7.803856,3.2896032,-3.8120737,-3.1729426,44.528057,64.93618,15.604396,-0.292052,1.564197,1.385313,79.673565,53.011473,18.161724
323,2100947869,13.010162,-33.5747,-8.840042,3.354426,-4.0529027,-3.293559,45.83971,64.58167,15.554997,-0.236145,1.496649,1.33042,80.43756,54.087834,18.420974
324,2100964536,13.261032,-34.10974,-9.889244,3.3904185,-4.2862787,-3.3476963,48.35703,63.719566,13.425009,-0.179638,1.425211,1.274625,81.24351,55.149827,18.644724
325,2100981203,13.464722,-34.59877,-11.005089,3.4155684,-4.506432,-3.3556557,52.10551,62.600693,9.782663,-0.122712,1.350104,1.218697,82.111935,56.193172,18.807768
326,2100997870,13.695847,-35.15922,-12.037834,3.465375,-4.7004304,-3.3903742,53.300858,61.75705,7.8649087,-0.064956,1.271763,1.162191,83.000283,57.222456,18.93885
327,2101014537,13.98822,-35.810574,-12.958557,3.5358343,-4.866616,-3.4461393,51.68312,61.127785,7.61134,-0.006025,1.190653,1.104755,83.861668,58.241252,19.065706
328,2101031204,14.248764,-36.477425,-13.878746,3.6227007,-5.005733,-3.5006657,49.103405,60.634346,7.8341537,0.054353,1.107224,1.046411,84.680058,59.251824,19.196275
329,2101047871,14.504547,-37.19489,-14.753799,3.734046,-5.1130185,-3.5698109,44.542778,60.394836,9.311501,0.116587,1.022007,0.986914,85.422438,60.258405,19.351467
330,2101064538,14.770752,-37.911884,-15.635178,3.833198,-5.1969476,-3.5868073,40.343334,59.871178,9.476313,0.180474,0.935391,0.927134,86.094827,61.256258,19.509406
331,2101081205,15.039841,-38.62291,-16.532753,3.9196095,-5.255806,-3.547306,36.67272,59.050476,8.171925,0.245801,0.847794,0.868012,86.706039,62.240433,19.645605
332,2101097872,15.328735,-39.38491,-17.381828,4.0182815,-5.2799964,-3.496399,31.485853,58.296494,7.307333,0.312772,0.759794,0.809739,87.230803,63.212041,19.767394
333,2101114539,15.640411,-40.18789,-18.193779,4.1215515,-5.2697144,-3.4182339,25.278482,57.49369,6.304809,0.381465,0.671965,0.752768,87.652111,64.170269,19.872474
334,2101131206,15.876099,-40.79451,-18.916786,4.2113905,-5.277577,-3.352378,20.911255,55.031647,5.682257,0.451655,0.584005,0.696895,88.000632,65.087463,19.967178
335,2101147873,16.031708,-41.190384,-19.53431,4.2885656,-5.306338,-3.3063183,18.394945,50.780228,5.6922016,0.523131,0.495566,0.64179,88.307214,65.9338,20.062048
336,2101164540,16.157745,-41.481987,-20.076256,4.3561764,-5.32996,-3.2490082,16.701902,45.409096,5.6726418,0.595734,0.406733,0.58764,88.585579,66.690618,20.156592
337,2101181207,16.229462,-41.605,-20.522263,4.4095654,-5.362111,-3.1918993,16.558384,38.45553,5.818277,0.669227,0.317364,0.534442,88.861552,67.331543,20.253563
338,2101197874,16.307358,-41.711693,-20.885498,4.465893,-5.367481,-3.1215463,15.782686,30.93534,6.285209,0.743659,0.227906,0.482416,89.124597,67.847132,20.358316
339,2101214541,16.397583,-41.810287,-21.163345,4.525174,-5.343045,-3.0347233,14.276444,22.871195,7.0263195,0.819079,0.138855,0.431837,89.362538,68.228319,20.475421
340,2101231208,16.449982,-41.768513,-21.3275,4.574657,-5.317757,-2.9478168,13.745156,13.33046,8.144874,0.895323,0.050226,0.382707,89.591624,68.450493,20.611169
341,2101247875,16.478714,-41.617226,-21.376328,4.6176414,-5.283586,-2.8574233,13.729201,2.4939582,9.677407,0.972284,-0.037834,0.335083,89.820444,68.492059,20.772459
342,2101264542,16.505417,-41.524788,-21.446854,4.643984,-5.271192,-2.7909703,12.472959,-5.223179,10.135766,1.049684,-0.125687,0.288567,90.028327,68.405006,20.941388
343,2101281209,16.526657,-41.48937,-21.544197,4.6509447,-5.2871394,-2.7537885,10.007851,-9.524144,9.414437,1.1272,-0.213806,0.242671,90.195125,68.24627,21.098295
344,2101297876,16.542526,-41.45043,-21.597946,4.645237,-5.3114448,-2.730885,6.8514986,-12.39313,8.256331,1.204621,-0.30233,0.197156,90.309317,68.039718,21.235901
345,2101314543,16.557785,-41.449398,-21.642181,4.623295,-5.3540344,-2.7312975,2.561097,-12.617289,6.261641,1.281676,-0.391564,0.151634,90.352002,67.82943,21.340262
346,2101331210,16.549011,-41.3524,-21.58358,4.586959,-5.4041758,-2.7427769,-1.4002974,-13.027962,4.3145533,1.358125,-0.481634,0.105921,90.328664,67.612297,21.412171
347,2101347877,16.516373,-41.152203,-21.412437,4.5361433,-5.461116,-2.7652516,-4.987877,-13.768229,2.4817626,1.433727,-0.572653,0.059833,90.245533,67.382827,21.453534
348,2101364544,16.475586,-40.949745,-21.202286,4.4663496,-5.5396085,-2.8136501,-9.3117895,-12.355039,-0.021246105,1.508166,-0.66498,0.012939,90.090337,67.17691,21.45318
349,2101381211,16.422058,-40.715622,-20.93052,4.377419,-5.6381865,-2.886444,-14.070387,-9.3534775,-3.0073547,1.581123,-0.75895,-0.035168,89.855831,67.021019,21.403057
350,2101397878,16.30217,-40.500328,-20.624222,4.306664,-5.7203617,-2.9656005,-17.625572,-9.2336,-5.3192964,1.652901,-0.854289,-0.084595,89.562071,66.867126,21.314402
351,2101414545,16.112213,-40.32029,-20.29348,4.256566,-5.7856483,-3.0525765,-19.946285,-12.087301,-6.948405,1.723844,-0.950716,-0.135471,89.229633,66.665671,21.198595
352,2101431212,15.874207,-40.131195,-19.908386,4.2088575,-5.8513594,-3.1561437,-21.601759,-16.147667,-8.319934,1.793992,-1.048239,-0.188073,88.869604,66.396543,21.059929
353,2101447879,15.572968,-39.950676,-19.478195,4.1735415,-5.9086914,-3.2729063,-22.15912,-22.56613,-9.139218,1.863551,-1.146717,-0.242621,88.500285,66.020441,20.907609
354,2101464546,15.243973,-39.774986,-19.002258,4.127167,-5.983779,-3.418929,-22.86525,-28.066498,-10.277415,1.932337,-1.246447,-0.299603,88.119198,65.552666,20.736319
355,2101481213,14.888199,-39.602108,-18.477882,4.0680103,-6.0791283,-3.5964556,-23.759974,-32.476448,-11.775122,2.000137,-1.347766,-0.359544,87.723198,65.011392,20.540067
356,2101497880,14.474228,-39.450745,-17.913567,4.0163364,-6.1748257,-3.7956095,-23.841106,-38.40915,-12.947286,2.067076,-1.45068,-0.422804,87.325846,64.37124,20.324279
357,2101514547,14.008713,-39.321434,-17.308899,3.9671264,-6.2771797,-4.0210056,-23.358324,-45.168533,-13.97756,2.133195,-1.5553,-0.489821,86.936541,63.618431,20.09132
358,2101531214,13.674652,-39.02962,-16.569702,3.882018,-6.3038626,-4.133808,-23.75182,-50.84571,-14.935057,2.197895,-1.660364,-0.558718,86.540677,62.771002,19.842402
359,2101547881,13.48584,-38.56177,-15.688339,3.7598095,-6.24452,-4.119688,-25.032724,-55.572884,-15.741173,2.260558,-1.764439,-0.627379,86.123465,61.844787,19.580049
360,2101564548,13.360092,-38.007004,-14.708992,3.6152306,-6.1425037,-4.0478373,-26.679302,-59.78334,-16.484404,2.320812,-1.866814,-0.694843,85.67881,60.848398,19.305309
361,2101581215,13.348511,-37.314995,-13.6054,3.4381108,-5.973551,-3.87844,-29.059992,-63.02916,-17.156881,2.378114,-1.966373,-0.759484,85.194477,59.797912,19.019361
362,2101597882,13.336487,-36.598473,-12.433174,3.2557063,-5.7807455,-3.6903076,-31.059778,-67.09525,-17.535067,2.432376,-2.062719,-0.820989,84.676814,58.679658,18.72711
363,2101614549,13.31897,-35.864746,-11.195122,3.0691037,-5.566374,-3.4876127,-32.62805,-72.03762,-17.612684,2.483528,-2.155492,-0.879116,84.133013,57.479031,18.433565
364,2101631216,13.398758,-35.013718,-9.840057,2.8558102,-5.286791,-3.1951609,-34.63489,-76.59683,-17.482988,2.531125,-2.243605,-0.932369,83.555765,56.202417,18.142182
365,2101647883,13.553787,-34.068573,-8.378723,2.621315,-4.9497848,-2.8278837,-36.844913,-81.15566,-17.088886,2.574814,-2.326101,-0.9795,82.941683,54.849823,17.857367
366,2101664550,13.503098,-33.082253,-6.959976,2.426083,-4.6327224,-2.5471745,-40.469696,-86.09386,-15.962832,2.615249,-2.403313,-1.021953,82.267188,53.414925,17.59132
367,2101681217,13.233795,-32.04566,-5.5910416,2.2732048,-4.335861,-2.357245,-45.741615,-91.317764,-14.050031,2.653136,-2.475577,-1.06124,81.504828,51.892962,17.357153
368,2101697884,12.865433,-30.947813,-4.2078934,2.1377215,-4.026226,-2.1899052,-51.93874,-96.92003,-11.515834,2.688765,-2.542681,-1.097738,80.639182,50.277628,17.165222
369,2101714551,12.323105,-29.79832,-2.8503265,2.0360527,-3.7226458,-2.086536,-59.448593,-102.98096,-8.212128,2.722699,-2.604725,-1.132514,79.648372,48.561279,17.028353
370,2101731218,11.798431,-28.539114,-1.4178314,1.9271393,-3.3670287,-1.9318614,-67.811325,-108.95519,-4.415239,2.754818,-2.660842,-1.164712,78.518183,46.745359,16.954766
371,2101747885,11.301407,-27.166199,0.09485626,1.8092546,-2.9548879,-1.7186661,-77.00862,-114.85406,-0.11303508,2.784972,-2.71009,-1.193356,77.234706,44.831125,16.952882
372,2101764552,10.671371,-25.714417,1.603035,1.7173848,-2.5302658,-1.5392208,-87.639336,-121.01967,4.9795346,2.813595,-2.752261,-1.21901,75.77405,42.814131,17.035874
373,2101781219,9.947876,-24.169235,3.127388,1.6433744,-2.0796947,-1.3684497,-99.64342,-127.344246,10.8279705,2.840985,-2.786923,-1.241817,74.113326,40.691727,17.21634
374,2101797886,9.100494,-22.603546,4.54776,1.6586752,-1.6270876,-1.1833534,-108.43592,-130.2255,14.754879,2.86863,-2.814041,-1.26154,72.306061,38.521302,17.462255
375,2101814553,8.10405,-21.026146,5.8400116,1.775732,-1.1793833,-0.99283314,-113.67791,-129.32765,16.545578,2.898226,-2.833697,-1.278087,70.411429,36.365841,17.738015
376,2101831220,6.99704,-19.390522,7.0729904,1.9564404,-0.7153945,-0.7906585,-117.5246,-126.26185,17.45444,2.930833,-2.84562,-1.291265,68.452686,34.261477,18.028922
377,2101847887,5.76239,-17.71671,8.207275,2.2236605,-0.24299121,-0.57365227,-118.71459,-119.98616,16.734905,2.967894,-2.84967,-1.300826,66.474109,32.261708,18.307837
378,2101864554,4.3728027,-15.968563,9.287964,2.5467353,0.24170136,-0.37846613,-120.09213,-112.66597,16.034529,3.01034,-2.845642,-1.307134,64.472573,30.383942,18.575079
379,2101881221,2.8254242,-14.141144,10.31546,2.9254246,0.7402227,-0.20572281,-121.819984,-104.36681,15.439378,3.059097,-2.833305,-1.310563,62.44224,28.644495,18.832402
380,2101897888,1.11409,-12.269283,11.228821,3.3970923,1.2434664,-0.03545952,-121.36991,-93.05211,13.464211,3.115715,-2.812581,-1.311154,60.419408,27.093627,19.056806
381,2101914555,-0.7718811,-10.344532,12.032814,3.9578943,1.7520989,0.12388086,-119.31494,-79.10959,10.433429,3.18168,-2.783379,-1.309089,58.430826,25.775134,19.230696
382,2101931222,-2.287857,-8.789051,12.996628,4.2613444,2.1134071,0.17117643,-117.79355,-68.90986,7.102342,3.252702,-2.748156,-1.306236,56.4676,24.626636,19.349068
383,2101947889,-3.385727,-7.651039,14.133621,4.2800655,2.309566,0.0967803,-116.650375,-62.761055,3.3207111,3.324036,-2.709663,-1.304623,54.523427,23.580618,19.404413
384,2101964556,-4.3336945,-6.727482,15.314972,4.176818,2.4117231,-0.05898571,-115.21474,-57.853912,-1.0870928,3.39365,-2.669468,-1.305606,52.603181,22.616386,19.386295
385,2101981223,-4.9795227,-6.1431046,16.610802,3.8552938,2.3741944,-0.32624817,-113.95569,-55.88128,-5.9978695,3.457905,-2.629898,-1.311043,50.70392,21.685031,19.286331
386,2101997890,-5.644623,-5.6642914,17.843025,3.528051,2.2816763,-0.6429486,-110.92777,-52.53843,-12.280072,3.516706,-2.59187,-1.321759,48.855124,20.809391,19.081663
387,2102014557,-6.3483124,-5.2833633,18.997765,3.206472,2.1359851,-1.0090051,-106.002815,-47.573265,-20.009047,3.570147,-2.55627,-1.338576,47.08841,20.016503,18.748179
388,2102031224,-6.7955017,-5.2322006,20.222626,2.699139,1.852106,-1.4839177,-100.50175,-44.591087,-28.691137,3.615133,-2.525402,-1.363308,45.413381,19.273318,18.269993
389,2102047891,-7.050064,-5.470436,21.478088,2.0480847,1.444,-2.057726,-93.96284,-42.688614,-38.55664,3.649268,-2.501335,-1.397603,43.847334,18.561841,17.627382
390,2102064558,-7.4966736,-5.406887,22.765808,1.6485686,1.1738433,-2.4588923,-89.75828,-40.212173,-45.266125,3.676744,-2.481771,-1.438585,42.351363,17.891638,16.872947
391,2102081225,-8.129425,-5.0224113,24.104225,1.5120339,1.052801,-2.6704845,-88.33675,-37.476913,-48.36915,3.701945,-2.464224,-1.483093,40.879084,17.267023,16.066795
392,2102097892,-8.803513,-4.5784416,25.465668,1.4769106,0.9626528,-2.8164072,-87.757225,-34.684967,-50.101315,3.72656,-2.44818,-1.530033,39.416464,16.68894,15.231773
393,2102114559,-9.611603,-3.9231453,26.856453,1.6459908,0.9718423,-2.8230686,-89.00124,-31.531088,-49.228184,3.753993,-2.431983,-1.577084,37.93311,16.163422,14.411303
394,2102131226,-10.248032,-3.4716225,28.312057,1.7372026,0.90114045,-2.8669553,-90.409515,-29.935953,-48.17748,3.782946,-2.416964,-1.624867,36.426285,15.664489,13.608345
395,2102147893,-10.693253,-3.252514,29.83281,1.7353048,0.7384596,-2.9582658,-91.84677,-29.99441,-47.101944,3.811868,-2.404656,-1.674171,34.895505,15.164582,12.823313
396,2102164560,-11.174332,-2.9318352,31.408882,1.8687916,0.63109446,-2.9448395,-95.01902,-30.547972,-43.689156,3.843015,-2.394138,-1.723252,33.311855,14.655449,12.09516
397,2102181227,-11.621933,-2.6011047,33.04972,2.078031,0.54014516,-2.8629909,-99.604034,-32.05665,-38.41297,3.877649,-2.385136,-1.770969,31.651788,14.121172,11.454944
398,2102197894,-11.883774,-2.2791061,34.64218,2.145471,0.37203526,-2.7832565,-99.90411,-32.848503,-35.132435,3.913407,-2.378935,-1.817357,29.986719,13.573697,10.869403
399,2102214561,-11.967438,-1.9275436,36.17724,2.078155,0.13574195,-2.6913595,-95.62171,-32.692947,-33.872864,3.948043,-2.376673,-1.862213,28.393024,13.028815,10.304855
400,2102231228,-11.893372,-1.6004066,37.71723,1.9390106,-0.15092707,-2.5762787,-89.26683,-32.75097,-33.07468,3.98036,-2.379188,-1.905151,26.905243,12.482966,9.75361
401,2102247895,-11.621994,-1.2908783,39.232086,1.6747146,-0.50907874,-2.450211,-79.31377,-32.562355,-33.696953,4.008272,-2.387673,-1.945988,25.583347,11.94026,9.191994
402,2102264562,-11.293472,-0.9051819,40.78708,1.4707994,-0.84748983,-2.2305007,-69.52467,-32.862564,-32.849327,4.032785,-2.401798,-1.983163,24.424602,11.392551,8.644505
403,2102281229,-10.905716,-0.44317245,42.38887,1.33394,-1.1633954,-1.9118438,-60.107586,-33.780144,-30.34462,4.055017,-2.421188,-2.015027,23.422809,10.829549,8.138761
404,2102297896,-10.352524,0.0586586,43.97975,1.1267738,-1.5193212,-1.5425644,-47.861362,-34.566544,-28.413033,4.073797,-2.44651,-2.040736,22.62512,10.25344,7.66521
405,2102314563,-9.6592865,0.62327576,45.574493,0.88860035,-1.8954873,-1.1019692,-33.56115,-35.40332,-26.410063,4.088607,-2.478101,-2.059102,22.065768,9.663385,7.225042
406,2102331230,-9.105392,1.070427,46.895584,0.6428642,-2.098115,-0.71741104,-22.554625,-35.41365,-24.220072,4.099321,-2.51307,-2.071059,21.689858,9.073157,6.821374
407,2102347897,-8.704163,1.3844185,47.906937,0.3761387,-2.1134043,-0.4035182,-14.945227,-34.406586,-22.081072,4.10559,-2.548293,-2.077784,21.440771,8.499714,6.453356
408,2102364564,-8.338699,1.6705933,48.748352,0.104231834,-2.0176373,-0.08296728,-8.706624,-32.9179,-19.590418,4.107327,-2.58192,-2.079167,21.295661,7.951082,6.126849
409,2102381231,-8.084152,1.8813057,49.336426,-0.17049503,-1.7554855,0.20905924,-5.226185,-30.65605,-16.7803,4.104485,-2.611178,-2.075683,21.208558,7.440148,5.847177
410,2102397898,-7.745346,2.1150093,49.816147,-0.4980812,-1.4537325,0.53780365,-0.5557654,-27.966444,-14.25763,4.096184,-2.635407,-2.06672,21.199295,6.974041,5.60955
411,2102414565,-7.312866,2.3835106,50.192505,-0.8785095,-1.1146514,0.91094947,5.4838657,-24.85998,-12.001145,4.081542,-2.653985,-2.051538,21.290693,6.559708,5.409531
412,2102431232,-6.949692,2.59832,50.31549,-1.2859964,-0.62403274,1.2660098,9.730739,-20.882345,-9.751816,4.060109,-2.664386,-2.030438,21.452872,6.211669,5.247001
413,2102447899,-6.615921,2.7825012,50.20938,-1.7318125,-0.004464388,1.6176333,13.00617,-16.07654,-7.642719,4.031245,-2.66446,-2.003477,21.669642,5.943727,5.119622
414,2102464566,-6.1726837,2.9533348,50.403046,-1.970993,0.39664352,1.9024475,15.415278,-12.558523,-6.1033654,3.998395,-2.657849,-1.97177,21.926563,5.734418,5.017899
415,2102481233,-5.628189,3.1014404,50.922867,-1.9775114,0.5626067,2.1050963,16.55787,-10.443575,-5.1801662,3.965436,-2.648472,-1.936685,22.202528,5.560358,4.931563
416,2102497900,-5.0230103,3.2348404,51.52916,-1.8751001,0.64566123,2.2645624,16.910782,-8.729989,-4.783749,3.934184,-2.637711,-1.898942,22.484374,5.414858,4.851834
417,2102514567,-4.3251495,3.3549347,52.361908,-1.593399,0.55339205,2.358983,16.362143,-7.976408,-5.058084,3.907627,-2.628488,-1.859626,22.757076,5.281918,4.767533
418,2102531234,-3.6598663,3.4319763,53.0679,-1.2667751,0.52206004,2.4093606,13.984359,-6.8013296,-5.69548,3.886514,-2.619787,-1.81947,22.990149,5.168563,4.672608
419,2102547901,-3.0335846,3.4655266,53.62451,-0.9024668,0.56524706,2.4156253,9.733601,-5.105256,-6.7234187,3.871473,-2.610366,-1.77921,23.152376,5.083475,4.560551
420,2102564568,-2.3585663,3.4704475,54.327744,-0.36996078,0.48541534,2.345637,3.9080517,-4.051734,-8.445991,3.865307,-2.602276,-1.740116,23.21751,5.015946,4.419784
421,2102581235,-1.6631622,3.4397316,55.102432,0.30556107,0.3320539,2.2009387,-3.7521455,-3.341642,-10.83041,3.8704,-2.596742,-1.703434,23.154974,4.960252,4.239277
422,2102597902,-1.2214661,3.4140053,55.60916,0.6973367,0.24043703,2.0744467,-8.821231,-2.2157516,-11.680961,3.882022,-2.592735,-1.66886,23.007953,4.923323,4.044594
423,2102614569,-1.0535431,3.3976135,55.852203,0.78338623,0.19788265,1.9675786,-10.910166,-0.7473874,-10.839566,3.895078,-2.589437,-1.636067,22.826117,4.910867,3.863935
424,2102631236,-1.0524292,3.3655663,55.94185,0.75144005,0.17239118,1.8341379,-12.350155,0.90485275,-9.342967,3.907602,-2.586564,-1.605498,22.620281,4.925948,3.708219
425,2102647903,-1.2967987,3.3288612,55.79315,0.48731995,0.19368792,1.6963344,-11.928756,2.9097269,-6.5897975,3.915724,-2.583336,-1.577226,22.421468,4.974443,3.598389
426,2102664570,-1.6094208,3.2670403,55.678528,0.2753563,0.13083267,1.4876394,-12.202897,4.533741,-3.9711041,3.920313,-2.581155,-1.552432,22.218086,5.050005,3.532204
427,2102681237,-1.9878387,3.177452,55.608734,0.13138962,-0.022265673,1.200968,-13.380827,5.7497478,-1.5708699,3.922503,-2.581526,-1.532416,21.995072,5.145834,3.506023
428,2102697904,-2.5932617,3.0794868,55.375885,-0.18540764,-0.17737532,0.8865166,-13.139694,7.0570207,1.8306999,3.919413,-2.584482,-1.517641,21.776077,5.263451,3.536535
429,2102714571,-3.3947754,2.96838,55.037262,-0.6162205,-0.36428165,0.52775526,-12.021225,8.29331,5.9484096,3.909143,-2.590553,-1.508845,21.575723,5.401673,3.635675
430,2102731238,-4.0224915,2.8387642,54.861786,-0.83847237,-0.45712042,0.24946022,-13.138062,9.254335,7.64817,3.895168,-2.598172,-1.504687,21.356755,5.555912,3.763144
431,2102747905,-4.4658356,2.692688,54.85199,-0.85230064,-0.4354329,0.06881237,-16.477026,9.965445,6.7833047,3.880963,-2.605429,-1.50354,21.082138,5.722003,3.876199
432,2102764572,-4.8845673,2.5294724,54.920303,-0.7722721,-0.38075757,-0.08562946,-20.91369,10.4021635,4.6490974,3.868092,-2.611775,-1.504967,20.733576,5.895372,3.953684
433,2102781239,-5.1838837,2.3484802,55.137253,-0.5169878,-0.2558546,-0.1771512,-27.223545,10.511621,0.4022498,3.859476,-2.616039,-1.50792,20.27985,6.070566,3.960388
434,2102797906,-5.629257,2.157261,55.292908,-0.3374939,-0.11259341,-0.26780796,-33.007683,10.532446,-3.8236113,3.853851,-2.617916,-1.512383,19.729722,6.246107,3.896661
435,2102814573,-6.238373,1.9561577,55.38141,-0.24537086,0.04297638,-0.36231184,-38.145203,10.4533415,-7.932945,3.849761,-2.6172,-1.518422,19.093969,6.420329,3.764445
436,2102831240,-6.799347,1.741188,55.569473,-0.046596527,0.26993132,-0.39662027,-44.48119,10.103788,-13.730032,3.848984,-2.612701,-1.525032,18.352616,6.588725,3.535611
437,2102847907,-7.3706512,1.5142403,55.815247,0.20546436,0.5580535,-0.38256025,-51.49881,9.524354,-20.78591,3.852408,-2.6034,-1.531408,17.494303,6.747464,3.189179
438,2102864574,-7.9071045,1.3129311,56.09305,0.3314886,0.71838355,-0.37730026,-55.636616,8.7796955,-24.73573,3.857933,-2.591427,-1.537696,16.567026,6.893792,2.776917
439,2102881241,-8.378693,1.141098,56.422882,0.33651733,0.74195087,-0.37570715,-56.745678,7.8512144,-25.387686,3.863542,-2.579061,-1.543958,15.621265,7.024646,2.353789
440,2102897908,-8.846741,0.98279953,56.79135,0.2685976,0.712589,-0.3564353,-56.137825,6.7288847,-24.528309,3.868019,-2.567185,-1.549899,14.685635,7.136794,1.944984
441,2102914575,-9.290451,0.84921646,57.199356,0.082751274,0.5802932,-0.3309536,-52.839558,5.421086,-20.986994,3.869398,-2.557513,-1.555415,13.804976,7.227145,1.595201
442,2102931242,-9.682846,0.718235,57.710358,-0.067035675,0.47014868,-0.24733019,-49.365677,3.8287206,-17.77968,3.868281,-2.549677,-1.559537,12.982215,7.290957,1.298873
443,2102947909,-10.025116,0.5896454,58.328552,-0.17684364,0.389634,-0.100530624,-45.781235,1.9426976,-15.041893,3.865334,-2.543183,-1.561213,12.219194,7.323335,1.048175
444,2102964576,-10.309204,0.48503876,59.027176,-0.36223984,0.23336577,0.07605076,-39.95725,-0.1859963,-10.244322,3.859297,-2.539294,-1.559945,11.55324,7.320235,0.877436
445,2102981243,-10.526382,0.40083694,59.8237,-0.5917187,0.027577162,0.29589844,-32.372868,-2.5847325,-3.9967463,3.849435,-2.538834,-1.555013,11.013692,7.277156,0.810824
446,2102997910,-10.796509,0.33763123,60.362244,-0.72417164,-0.06289601,0.4365344,-26.729223,-4.1076427,-0.07493323,3.837365,-2.539882,-1.547737,10.568205,7.208695,0.809575
447,2103014577,-11.12471,0.29947662,60.608826,-0.7593727,-0.03536558,0.48389912,-23.085882,-4.6384945,1.4885256,3.824709,-2.540471,-1.539672,10.18344,7.131387,0.834384
448,2103031244,-11.444183,0.28502274,60.74678,-0.74285316,0.049634933,0.50686646,-19.972498,-4.7386184,2.0929945,3.812328,-2.539644,-1.531224,9.850565,7.05241,0.869267
449,2103047911,-11.784271,0.2964325,60.676483,-0.63810635,0.2348895,0.47074366,-18.332764,-4.079074,0.77588254,3.801693,-2.535729,-1.523378,9.545019,6.984425,0.882198
450,2103064578,-12.069351,0.34096146,60.601074,-0.5585413,0.3975942,0.44081926,-15.393177,-3.3123493,0.41941386,3.792384,-2.529102,-1.516031,9.288466,6.929219,0.889188
451,2103081245,-12.289871,0.420372,60.53456,-0.50777626,0.5326394,0.42271662,-10.996437,-2.47024,1.1626146,3.783921,-2.520225,-1.508986,9.105192,6.888048,0.908565
452,2103097912,-12.506134,0.534359,60.287796,-0.3975382,0.73820734,0.35340738,-7.3195286,-0.9298277,0.75122696,3.777295,-2.507922,-1.503096,8.9832,6.872551,0.921085
453,2103114579,-12.699051,0.68603134,59.90178,-0.25096226,0.98898256,0.24634266,-3.7616117,1.1868246,-0.20262921,3.773112,-2.491439,-1.49899,8.920506,6.892331,0.917708
454,2103131246,-12.809662,0.7984009,59.72551,-0.16792488,1.1450915,0.17685032,-0.57351184,2.0266078,-0.61389244,3.770313,-2.472354,-1.496042,8.910947,6.926108,0.907476
455,2103147913,-12.837494,0.86528397,59.76584,-0.14728546,1.2050273,0.14292145,1.9577119,1.5025744,-0.6482184,3.767858,-2.45227,-1.49366,8.943576,6.951151,0.896672
456,2103164580,-12.794983,0.92653656,59.882385,-0.15702534,1.2181334,0.11688471,4.35808,0.42322302,-0.40538907,3.765241,-2.431968,-1.491712,9.016211,6.958205,0.889916
457,2103181247,-12.66571,0.96126556,60.164474,-0.2223053,1.1481978,0.11651373,6.475239,-1.7036643,0.34261858,3.761536,-2.412831,-1.48977,9.124132,6.929811,0.895626
458,2103197914,-12.494247,1.0160637,60.358627,-0.2609768,1.1025628,0.08130932,7.894618,-3.6252823,0.37686437,3.757186,-2.394455,-1.488415,9.255709,6.86939,0.901907
459,2103214581,-12.279297,1.0947266,60.450638,-0.2698946,1.085408,0.0073213577,8.6211195,-5.27043,-0.33370262,3.752688,-2.376365,-1.488293,9.399394,6.781549,0.896345
460,2103231248,-11.982941,1.1560898,60.642365,-0.3114252,1.0119197,-0.06117344,8.695027,-7.6885986,-1.0043342,3.747498,-2.3595,-1.489313,9.544311,6.653406,0.879606
461,2103247915,-11.612335,1.2101936,60.87941,-0.3682909,0.90422094,-0.13803625,7.9998913,-10.618142,-1.9036748,3.74136,-2.34443,-1.491614,9.677643,6.476437,0.847878
462,2103264582,-11.301453,1.3048668,61.080536,-0.39683533,0.82627296,-0.18527174,7.860779,-12.384035,-2.4023762,3.734746,-2.330659,-1.494702,9.808656,6.270036,0.807838
463,2103281249,-11.057434,1.4393883,61.26239,-0.40007496,0.77365875,-0.19462538,8.3592,-12.955996,-2.3699973,3.728078,-2.317765,-1.497946,9.947976,6.054103,0.768338
464,2103297916,-10.820221,1.5977669,61.42659,-0.3868847,0.7305783,-0.19418383,8.749619,-12.952662,-2.3026094,3.72163,-2.305589,-1.501182,10.093803,5.838225,0.729961
465,2103314583,-10.625626,1.7918167,61.557526,-0.34684086,0.7118604,-0.17210245,9.368421,-11.938167,-2.012557,3.715849,-2.293725,-1.50405,10.249943,5.639256,0.696418
466,2103331250,-10.383057,1.9835472,61.754227,-0.3217554,0.657285,-0.14005566,9.421268,-11.15655,-1.6677139,3.710486,-2.28277,-1.506384,10.406964,5.453313,0.668623
467,2103347917,-10.087067,2.1712646,62.01927,-0.31261635,0.5644722,-0.09999609,8.812703,-10.659554,-1.3115976,3.705276,-2.273362,-1.508051,10.553842,5.275654,0.646763
468,2103364584,-9.813721,2.3838425,62.29181,-0.28981686,0.4754312,-0.03536129,8.208082,-9.44996,-0.6970645,3.700446,-2.265438,-1.50864,10.690643,5.118155,0.635145
469,2103381251,-9.544037,2.6131592,62.594086,-0.26213074,0.37690496,0.051707745,7.4139233,-7.7838316,0.13800818,3.696077,-2.259156,-1.507778,10.814208,4.988424,0.637445
470,2103397918,-9.299713,2.8012009,62.797012,-0.24680138,0.31281877,0.11362982,7.0373945,-6.6802425,0.7877849,3.691964,-2.253942,-1.505884,10.931498,4.877087,0.650575
471,2103414585,-9.09317,2.9453812,62.882965,-0.24234104,0.2918172,0.14884663,7.2130413,-6.1125536,1.2562699,3.687925,-2.249078,-1.503403,11.051715,4.775211,0.671513
472,2103431252,-8.902298,3.0673218,62.929703,-0.24672222,0.28370762,0.17911625,7.5120564,-5.766053,1.7165349,3.683813,-2.24435,-1.500418,11.176916,4.67911,0.700122
473,2103447919,-8.737061,3.1510963,62.899933,-0.2641344,0.30203438,0.19233418,8.128591,-5.89102,2.073003,3.679411,-2.239316,-1.497212,11.312393,4.580926,0.734672
474,2103464586,-8.605682,3.2374954,62.85341,-0.27667904,0.33204436,0.22067165,8.850507,-5.6263227,2.6195526,3.6748,-2.233782,-1.493534,11.459901,4.487154,0.778331
475,2103481253,-8.508957,3.327591,62.796066,-0.28426552,0.37186515,0.26657295,9.652507,-4.936489,3.3806927,3.670062,-2.227584,-1.489091,11.620776,4.404879,0.834676
476,2103497920,-8.453812,3.3867378,62.665085,-0.2994709,0.4412104,0.30396223,10.820041,-4.460209,4.1351433,3.665071,-2.22023,-1.484025,11.80111,4.330542,0.903595
477,2103514587,-8.444229,3.422699,62.472473,-0.31870556,0.53752303,0.34002686,12.317436,-4.012755,4.9522104,3.659759,-2.211271,-1.478358,12.006401,4.263663,0.986132
478,2103531254,-8.418259,3.483162,62.334503,-0.33343506,0.5960388,0.37711668,12.9179325,-3.5572271,5.514469,3.654202,-2.201337,-1.472073,12.2217,4.204376,1.07804
479,2103547921,-8.373779,3.5677834,62.252625,-0.34425926,0.61408126,0.41236687,12.55388,-3.1621408,5.76778,3.648464,-2.191102,-1.4652,12.430931,4.151674,1.17417
480,2103564588,-8.345367,3.6584587,62.178406,-0.35282516,0.62142336,0.4496627,11.793354,-2.717175,5.9130397,3.642584,-2.180745,-1.457706,12.627487,4.106388,1.272721
481,2103581255,-8.318146,3.7668877,62.140915,-0.35708332,0.6013042,0.48876143,10.310209,-2.2311945,5.8541255,3.636633,-2.170723,-1.44956,12.799324,4.069201,1.37029
482,2103597922,-8.333145,3.855095,62.055756,-0.36560917,0.59695363,0.52198553,8.897583,-1.8917751,5.7254367,3.63054,-2.160774,-1.44086,12.947617,4.037671,1.465714
483,2103614589,-8.395721,3.9207306,61.917328,-0.3786049,0.61149776,0.5493665,7.6074677,-1.6954596,5.5398917,3.62423,-2.150582,-1.431704,13.074408,4.009413,1.558046
484,2103631256,-8.474213,3.9922752,61.79161,-0.39007282,0.60930026,0.57422256,5.7644205,-1.5619967,5.143171,3.617729,-2.140427,-1.422134,13.170482,3.98338,1.643766
485,2103647923,-8.579285,4.0611763,61.65982,-0.4018221,0.59984136,0.5947466,3.5362291,-1.5342216,4.5600634,3.611032,-2.13043,-1.412222,13.229419,3.95781,1.719767
486,2103664590,-8.655518,4.130699,61.543198,-0.4120798,0.58732665,0.61126614,2.2484884,-1.4672327,4.195661,3.604164,-2.120641,-1.402034,13.266894,3.933356,1.789695
487,2103681257,-8.694672,4.2041817,61.451477,-0.420022,0.5677352,0.6237192,1.946109,-1.3478558,4.0630703,3.597164,-2.111179,-1.391639,13.299329,3.910892,1.857413
488,2103697924,-8.731308,4.2739525,61.361496,-0.42773724,0.5454905,0.63036203,2.11569,-1.2807436,3.9819663,3.590035,-2.102087,-1.381133,13.33459,3.889546,1.923779
489,2103714591,-8.749222,4.3416405,61.281616,-0.434556,0.52037144,0.6309886,3.1098595,-1.2304466,4.0561237,3.582792,-2.093414,-1.370617,13.386421,3.869039,1.991381
490,2103731258,-8.774811,4.4121895,61.21573,-0.43988514,0.48101616,0.625998,3.990009,-1.2634683,4.006651,3.575461,-2.085397,-1.360184,13.452921,3.847981,2.058159
491,2103747925,-8.810898,4.48505,61.162933,-0.44382858,0.42718613,0.6148224,4.7185783,-1.3952088,3.814006,3.568064,-2.078277,-1.349937,13.531564,3.824728,2.121726
492,2103764592,-8.829956,4.5593224,61.12941,-0.4460392,0.36380935,0.59678125,6.0726285,-1.5664005,3.7039974,3.56063,-2.072214,-1.339991,13.632774,3.798621,2.183459
493,2103781259,-8.837341,4.6360817,61.116745,-0.44634342,0.28805733,0.5715847,7.8634424,-1.7967644,3.6151998,3.553191,-2.067413,-1.330465,13.763831,3.768675,2.243712
494,2103797926,-8.810837,4.666889,61.102615,-0.4365368,0.2412827,0.54047966,8.85441,-1.6109278,3.1534417,3.545915,-2.063392,-1.321457,13.911405,3.741826,2.296269
495,2103814593,-8.743637,4.647114,61.08731,-0.4155779,0.22750258,0.50321054,9.027033,-0.95527744,2.3056102,3.538989,-2.0596,-1.31307,14.061856,3.725905,2.334696
496,2103831260,-8.648956,4.6003304,61.0838,-0.3870802,0.22480917,0.45866108,8.846223,-0.0690465,1.2139647,3.532538,-2.055853,-1.305426,14.209293,3.724754,2.354929
497,2103847927,-8.518295,4.5127983,61.08737,-0.34850788,0.2447176,0.406909,7.9934454,1.186265,-0.22781453,3.52673,-2.051774,-1.298644,14.342517,3.744525,2.351132
498,2103864594,-8.356873,4.4119377,61.113754,-0.30439472,0.26418853,0.34643173,7.3999596,2.5450802,-1.7379668,3.521657,-2.047371,-1.29287,14.46585,3.786943,2.322166
499,2103881261,-8.163712,4.29916,61.165466,-0.2547245,0.28145242,0.27679157,7.109617,3.9943585,-3.3087933,3.517412,-2.04268,-1.288257,14.584344,3.853516,2.267019
500,2103897928,-7.9272614,4.148369,61.231766,-0.19480991,0.3180809,0.19858217,6.385786,5.7925696,-5.175685,3.514165,-2.037379,-1.284947,14.690774,3.950059,2.180758
501,2103914595,-7.646927,3.9647484,61.317123,-0.12531471,0.3693472,0.1111927,5.4244394,7.890695,-7.284269,3.512076,-2.031223,-1.283094,14.781181,4.081571,2.059354
502,2103931262,-7.4210815,3.802906,61.451263,-0.08008289,0.38371754,0.059482574,4.4913974,9.292003,-8.806795,3.510741,-2.024828,-1.282103,14.856038,4.236438,1.912574
503,2103947929,-7.25618,3.6641617,61.636856,-0.061660767,0.35916698,0.047867775,3.5210092,9.9379015,-9.6927805,3.509713,-2.018842,-1.281305,14.914721,4.40207,1.751028
504,2103964596,-7.103714,3.5254822,61.864227,-0.054327965,0.31708956,0.05468273,2.5172348,10.272231,-10.298738,3.508808,-2.013557,-1.280394,14.956675,4.573274,1.579382
505,2103981263,-6.98999,3.4008255,62.142456,-0.06744957,0.24384904,0.092782974,1.526679,10.02519,-10.397689,3.507684,-2.009493,-1.278848,14.98212,4.740361,1.406087
506,2103997930,-6.852722,3.2509346,62.453796,-0.07992554,0.17492151,0.13617992,0.1987958,9.847837,-10.534729,3.506352,-2.006578,-1.276578,14.985433,4.904492,1.230508
507,2104014597,-6.6871796,3.0733337,62.798935,-0.090628624,0.11209488,0.18365097,-1.4778249,9.775217,-10.734274,3.504842,-2.00471,-1.273517,14.960803,5.067412,1.051603
508,2104031264,-6.546875,2.8992805,63.19577,-0.118370056,0.025862694,0.25978136,-3.2979133,9.246775,-10.523386,3.502869,-2.004279,-1.269187,14.905838,5.221525,0.876213
509,2104047931,-6.418274,2.7201805,63.641953,-0.15894699,-0.07646012,0.35969925,-5.343114,8.3951645,-10.009896,3.50022,-2.005553,-1.263192,14.816786,5.361444,0.709381
510,2104064598,-6.3016205,2.5294724,63.955673,-0.18376637,-0.16020823,0.42156315,-6.1416454,7.9793673,-9.442193,3.497157,-2.008223,-1.256166,14.714425,5.494433,0.552011
511,2104081265,-6.2040253,2.330223,64.12189,-0.19271564,-0.22584271,0.44307518,-5.531479,7.997408,-8.775693,3.493945,-2.011987,-1.248781,14.622234,5.627723,0.405749
512,2104097932,-6.116638,2.1196785,64.22563,-0.196805,-0.28503633,0.45081043,-4.266923,8.173627,-7.9554086,3.490665,-2.016738,-1.241267,14.551119,5.76395,0.273159
513,2104114599,-6.0420837,1.8970375,64.21588,-0.18888092,-0.3291843,0.42860746,-1.9237859,8.697697,-7.024942,3.487517,-2.022224,-1.234124,14.519056,5.908912,0.156077
514,2104131266,-5.994049,1.6739998,64.203964,-0.19076443,-0.38631177,0.41944313,0.6984911,8.977375,-5.7035475,3.484338,-2.028663,-1.227133,14.530698,6.058535,0.061018
515,2104147933,-5.973236,1.4506798,64.19536,-0.20370674,-0.45769405,0.42587948,3.5552466,8.982399,-3.9697082,3.480943,-2.036291,-1.220035,14.589952,6.208242,-0.005144
516,2104164600,-5.9763336,1.2209435,64.089096,-0.2108841,-0.5221479,0.41270542,7.4281473,9.166765,-1.9883106,3.477428,-2.044993,-1.213157,14.713754,6.361021,-0.038283
517,2104181267,-6.00737,0.987442,63.90689,-0.21707249,-0.5856919,0.38908052,12.167261,9.402407,0.3127553,3.47381,-2.054755,-1.206672,14.916542,6.517728,-0.03307
518,2104197934,-5.982605,0.82798386,63.744675,-0.22406292,-0.6020279,0.36958075,15.727246,9.160501,2.285447,3.470076,-2.064789,-1.200512,15.178663,6.670403,0.005021
519,2104214601,-5.89476,0.75038147,63.596573,-0.23009968,-0.56393385,0.3511629,18.02945,8.439636,3.858888,3.466241,-2.074188,-1.194659,15.479154,6.811064,0.069336
520,2104231268,-5.7872925,0.7204933,63.42935,-0.23766422,-0.4971757,0.33299112,19.960323,7.399057,5.3990574,3.46228,-2.082474,-1.189109,15.811826,6.934382,0.15932
521,2104247935,-5.6372375,0.761219,63.264084,-0.24673557,-0.38756776,0.31775713,20.98515,5.8999987,6.7245936,3.458168,-2.088933,-1.183813,16.161578,7.032715,0.271397
522,2104264602,-5.493454,0.82676697,63.015884,-0.25206566,-0.25608754,0.28783035,22.51433,4.36167,8.183196,3.453967,-2.093201,-1.179016,16.536817,7.10541,0.407784
523,2104281269,-5.3597565,0.9162712,62.678482,-0.25371647,-0.10370326,0.24255705,24.633308,2.7927194,9.806698,3.449738,-2.094929,-1.174973,16.947372,7.151955,0.571229
524,2104297936,-5.1918793,1.073906,62.309937,-0.25413513,0.09329581,0.19256067,26.18299,0.8610916,11.263946,3.445502,-2.093374,-1.171764,17.383755,7.166307,0.758961
525,2104314603,-5.0000153,1.2919006,61.88977,-0.25213528,0.33156204,0.13373613,27.46414,-1.351156,12.628281,3.4413,-2.087848,-1.169535,17.841491,7.143788,0.969432
526,2104331270,-4.8652954,1.4520073,61.545486,-0.25652695,0.50387204,0.09675312,27.69447,-2.923891,13.425138,3.437025,-2.07945,-1.167922,18.303065,7.095056,1.193184
527,2104347937,-4.789673,1.5499763,61.294586,-0.2682314,0.60389245,0.08537817,26.643522,-3.8084245,13.555995,3.432554,-2.069385,-1.166499,18.747124,7.031582,1.419117
528,2104364604,-4.741455,1.6382828,61.061096,-0.28213215,0.6810684,0.081967354,24.873102,-4.3862767,13.285737,3.427852,-2.058034,-1.165133,19.161676,6.958477,1.640546
529,2104381271,-4.7416687,1.6863594,60.88199,-0.30064392,0.7066226,0.095273495,22.103817,-4.4068604,12.455583,3.422841,-2.046257,-1.163545,19.530073,6.885029,1.848139
530,2104397938,-4.732025,1.7768707,60.69565,-0.31926155,0.750021,0.10997057,18.477812,-4.496293,11.2483835,3.41752,-2.033757,-1.161712,19.838037,6.810091,2.035612
531,2104414605,-4.7096863,1.915432,60.496307,-0.33750153,0.815591,0.12469339,13.99749,-4.6809716,9.66223,3.411895,-2.020164,-1.159634,20.071328,6.732075,2.196649
532,2104431272,-4.7219086,2.0351257,60.347534,-0.35968018,0.8438109,0.15481281,8.313683,-4.4270105,7.449413,3.4059,-2.0061,-1.157054,20.209889,6.658291,2.320806
533,2104447939,-4.756485,2.1540565,60.236984,-0.38481522,0.84920025,0.19723272,1.418875,-3.8587575,4.6273756,3.399486,-1.991947,-1.153767,20.233537,6.593978,2.397929
534,2104464606,-4.815872,2.2610245,60.14914,-0.39818478,0.8487972,0.22529316,-3.6669567,-3.522551,2.6666768,3.39285,-1.9778,-1.150012,20.172421,6.535269,2.442374
535,2104481273,-4.906494,2.3466644,60.09294,-0.39890575,0.83612585,0.23873663,-6.7351627,-3.3968797,1.6590033,3.386202,-1.963865,-1.146033,20.060168,6.478654,2.470024
536,2104497940,-5.0194855,2.4285355,60.069427,-0.3932476,0.8122275,0.24839592,-9.254429,-3.2981315,0.901766,3.379648,-1.950328,-1.141893,19.905928,6.423685,2.485053
537,2104514607,-5.157715,2.5007896,60.078873,-0.37717438,0.77896714,0.2476139,-10.409458,-3.3542352,0.7885789,3.373362,-1.937345,-1.137766,19.732437,6.367781,2.498196
538,2104531274,-5.332779,2.553009,60.148254,-0.36021137,0.71042037,0.25597715,-12.083121,-3.0966482,0.37691486,3.367358,-1.925505,-1.1335,19.531052,6.31617,2.504478
539,2104547941,-5.5453186,2.5852776,60.281174,-0.3427534,0.6049769,0.2747364,-14.406942,-2.49757,-0.39877456,3.361645,-1.915422,-1.128921,19.290936,6.274544,2.497832
540,2104564608,-5.7931366,2.5965233,60.46724,-0.31646252,0.47581637,0.28861475,-15.738541,-1.8920541,-0.7306894,3.356371,-1.907492,-1.124111,19.028627,6.24301,2.485654
541,2104581275,-6.0798035,2.583496,60.714996,-0.28319645,0.31618428,0.3019457,-16.474964,-1.1730802,-0.81956065,3.351651,-1.902222,-1.119079,18.754044,6.223459,2.471995
542,2104597942,-6.3421326,2.6049614,60.879837,-0.2620821,0.20481324,0.30882263,-17.203794,-0.9208386,-0.8949734,3.347283,-1.898808,-1.113932,18.467314,6.208112,2.457079
543,2104614609,-6.5750427,2.664814,60.94905,-0.25382328,0.14958072,0.3068781,-17.756943,-1.2267952,-0.8712797,3.343053,-1.896315,-1.108817,18.171365,6.187665,2.442558
544,2104631276,-6.8118896,2.7317429,60.999207,-0.25050354,0.10753679,0.30190182,-18.106436,-1.7395983,-0.7688638,3.338878,-1.894523,-1.103785,17.869591,6.158672,2.429744
545,2104647943,-7.035675,2.8211098,60.990723,-0.25716114,0.10054541,0.29167843,-18.336744,-2.633204,-0.6146623,3.334592,-1.892847,-1.098924,17.563979,6.114785,2.4195
546,2104664610,-7.283661,2.8972664,61.00821,-0.26036644,0.08499074,0.27582312,-17.671404,-3.652132,-0.063982815,3.330253,-1.89143,-1.094327,17.269456,6.053916,2.418434
547,2104681277,-7.5591736,2.9566917,61.05876,-0.2594204,0.05715871,0.25455093,-16.06308,-4.77487,0.9015086,3.325929,-1.890477,-1.090084,17.001738,5.974335,2.433459
548,2104697944,-7.829056,3.029873,61.066025,-0.26536846,0.057804346,0.22588634,-13.935669,-6.2869253,2.1031332,3.321506,-1.889514,-1.086319,16.769477,5.869553,2.468511
549,2104714611,-8.101486,3.108635,61.04814,-0.27541447,0.07776594,0.18954039,-11.091715,-8.141697,3.628484,3.316916,-1.888218,-1.08316,16.584615,5.733858,2.528986
550,2104731278,-8.327209,3.215866,61.061203,-0.27771378,0.082083225,0.17156649,-8.944894,-9.301476,4.5953913,3.312287,-1.88685,-1.080301,16.435533,5.578833,2.605576
551,2104747945,-8.496613,3.357624,61.100174,-0.27252293,0.07320261,0.17393637,-7.644927,-9.712031,4.9136915,3.307745,-1.88563,-1.077402,16.308118,5.416966,2.687471
552,2104764612,-8.638016,3.5175629,61.15013,-0.2636013,0.062046528,0.18390322,-6.356599,-9.841326,5.073919,3.303352,-1.884596,-1.074337,16.202175,5.252944,2.772036
553,2104781279,-8.735397,3.7034798,61.223236,-0.24803066,0.0408988,0.20857954,-5.467119,-9.413133,4.8315134,3.299218,-1.883914,-1.070861,16.111056,5.096058,2.852561
554,2104797946,-8.808533,3.9093971,61.267365,-0.23560333,0.04073453,0.232193,-4.2261934,-9.109531,4.6676183,3.295291,-1.883235,-1.066991,16.040619,4.944232,2.930355
555,2104814613,-8.857788,4.134838,61.279663,-0.22672844,0.063519955,0.25368786,-2.5498407,-8.972065,4.625838,3.291512,-1.882176,-1.062763,15.998122,4.794698,3.007452
556,2104831280,-8.857864,4.3903885,61.29532,-0.21407127,0.08797073,0.28712654,-1.1409309,-8.422565,4.2544813,3.287944,-1.88071,-1.057978,15.979106,4.654322,3.07836
557,2104847947,-8.811188,4.675518,61.30229,-0.19972897,0.12135744,0.32925415,0.16890836,-7.6039906,3.6557496,3.284615,-1.878687,-1.05249,15.981921,4.527589,3.139289
558,2104864614,-8.7885895,4.8769875,61.308838,-0.19098282,0.14862633,0.35519552,1.4574599,-6.8425484,3.2131407,3.281432,-1.87621,-1.04657,16.006212,4.413547,3.192841
559,2104881281,-8.791595,4.985798,61.31868,-0.18773079,0.16648984,0.36443377,2.6353018,-6.092945,2.8996177,3.278303,-1.873435,-1.040496,16.050134,4.311998,3.241168
560,2104897948,-8.786453,5.0557213,61.318634,-0.18801022,0.18765378,0.36666107,3.7750516,-5.2922955,2.5971847,3.275169,-1.870307,-1.034385,16.113052,4.223793,3.284454
561,2104914615,-8.790573,5.055317,61.311188,-0.19369984,0.20765924,0.35544634,4.8627653,-4.5064483,2.3906384,3.271941,-1.866846,-1.028461,16.194098,4.148686,3.324298
562,2104931282,-8.75386,5.053486,61.29927,-0.19871521,0.23062325,0.34890795,5.6825795,-3.3922725,1.9408407,3.268629,-1.863002,-1.022646,16.288808,4.092148,3.356645
563,2104947949,-8.671631,5.054058,61.281143,-0.20294571,0.25784183,0.34794092,6.2205963,-1.9322686,1.2268767,3.265247,-1.858705,-1.016847,16.392485,4.059944,3.377093
564,2104964616,-8.582764,4.994877,61.25714,-0.21109104,0.28347683,0.33800888,6.5552974,-0.34460092,0.48232162,3.261729,-1.85398,-1.011214,16.50174,4.054201,3.385132
565,2104981283,-8.47525,4.8896675,61.227203,-0.22194386,0.30861735,0.32291555,6.6255913,1.4515562,-0.37201822,3.25803,-1.848836,-1.005832,16.612167,4.078394,3.378932
566,2104997950,-8.362808,4.81802,61.24286,-0.23702145,0.33122253,0.32359314,6.6569276,2.8416824,-1.1307082,3.25408,-1.843316,-1.000439,16.723116,4.125755,3.360087
567,2105014617,-8.250687,4.778675,61.309418,-0.257102,0.35012388,0.34032583,6.659063,3.7481802,-1.7531588,3.249795,-1.837481,-0.994767,16.8341,4.188225,3.330868
568,2105031284,-8.12352,4.742016,61.40245,-0.28075218,0.36694002,0.36579466,6.465391,4.523068,-2.3967955,3.245116,-1.831365,-0.98867,16.941857,4.263609,3.290921
569,2105047951,-7.985977,4.727268,61.536926,-0.30863762,0.38064814,0.40545988,6.1248116,4.989523,-3.000643,3.239972,-1.825021,-0.981912,17.043937,4.346768,3.24091
570,2105064618,-7.838562,4.670826,61.682343,-0.34129524,0.39122617,0.4434185,5.5038414,5.4544096,-3.6321714,3.234284,-1.818501,-0.974522,17.135668,4.437675,3.180374
571,2105081285,-7.6798096,4.5687294,61.837494,-0.37879467,0.39848936,0.47910547,4.5703063,5.943719,-4.3058777,3.227971,-1.81186,-0.966537,17.21184,4.536737,3.108609
572,2105097952,-7.513794,4.468212,62.031235,-0.4215889,0.401291,0.5252061,3.4207766,6.1473465,-4.935223,3.220945,-1.805172,-0.957784,17.268853,4.639193,3.026355
573,2105114619,-7.3405304,4.3549156,62.25801,-0.46994686,0.39935446,0.57848835,2.0116181,6.12621,-5.535704,3.213113,-1.798516,-0.948143,17.30238,4.741297,2.934093
574,2105131286,-7.2019196,4.240597,62.42305,-0.4998703,0.3930751,0.6102109,1.0920535,6.183438,-5.831888,3.204782,-1.791965,-0.937973,17.320581,4.844354,2.836895
575,2105147953,-7.103424,4.1313515,62.52147,-0.50917435,0.38200545,0.6191082,0.7399459,6.2991133,-5.780634,3.196296,-1.785598,-0.927655,17.332913,4.949339,2.740551
576,2105164620,-7.0256195,4.011196,62.59497,-0.5094557,0.36544967,0.6166072,0.5629051,6.3623266,-5.5189066,3.187805,-1.779507,-0.917378,17.342295,5.055378,2.648569
577,2105181287,-6.981415,3.884594,62.618195,-0.49393654,0.34317935,0.5949445,0.77327704,6.438203,-4.959592,3.179573,-1.773787,-0.907462,17.355183,5.162681,2.565909
578,2105197954,-6.9476624,3.7559357,62.654556,-0.47672176,0.3142104,0.57417536,0.9426347,6.2640452,-4.239278,3.171628,-1.76855,-0.897892,17.370894,5.267082,2.495254
579,2105214621,-6.924118,3.6240005,62.707596,-0.4585533,0.27809596,0.55508614,1.0414113,5.8179045,-3.3588064,3.163985,-1.763915,-0.888641,17.388251,5.364047,2.439274
580,2105231288,-6.9345856,3.4907417,62.723724,-0.42632866,0.23485327,0.52082014,1.4714131,5.277524,-2.1661775,3.15688,-1.760001,-0.879961,17.412775,5.452006,2.403171
581,2105247955,-6.975403,3.3570938,62.716034,-0.38277054,0.18394303,0.47536373,2.1466298,4.5779295,-0.68056345,3.1505,-1.756935,-0.872038,17.448552,5.528305,2.391828
582,2105264622,-6.9974365,3.2623596,62.711212,-0.35603237,0.15301323,0.44603062,2.5349035,3.909164,0.43580675,3.144566,-1.754385,-0.864604,17.4908,5.593458,2.399091
583,2105281289,-7.000229,3.2116165,62.70459,-0.3469181,0.14458609,0.43321037,2.6438458,3.302621,1.146467,3.138784,-1.751975,-0.857384,17.534864,5.648502,2.418199
584,2105297956,-7.0059814,3.187626,62.691833,-0.34367275,0.14504242,0.4264617,2.675012,2.6162467,1.7602694,3.133056,-1.749558,-0.850276,17.579448,5.692106,2.447537
585,2105314623,-7.0027466,3.2025795,62.677917,-0.35357475,0.16215539,0.43278313,2.5001378,1.9036871,2.1014135,3.127163,-1.746855,-0.843063,17.621117,5.723834,2.482561
586,2105331290,-7.0271454,3.234539,62.632843,-0.3565941,0.17956233,0.43162203,2.5385282,1.0881177,2.6054246,3.12122,-1.743862,-0.835869,17.663426,5.741969,2.525985
587,2105347957,-7.0823364,3.2835808,62.55504,-0.35155296,0.1963048,0.42194033,2.8171234,0.15379119,3.3018951,3.115361,-1.74059,-0.828837,17.710378,5.744532,2.581017
588,2105364624,-7.140625,3.3724136,62.462646,-0.3546152,0.22745347,0.4199314,3.0234208,-0.81629896,3.823373,3.109451,-1.736799,-0.821838,17.760768,5.730927,2.64474
589,2105381291,-7.210663,3.497837,62.348373,-0.36148357,0.26977706,0.4212227,3.2524326,-1.8416905,4.263094,3.103426,-1.732303,-0.814818,17.814975,5.700232,2.715792
590,2105397958,-7.280594,3.5791588,62.235245,-0.36130238,0.2971375,0.4139533,3.452766,-2.4769888,4.6693535,3.097404,-1.727351,-0.807919,17.872521,5.658949,2.793615
591,2105414625,-7.3464355,3.6126404,62.126434,-0.35498524,0.30918884,0.39890623,3.5868282,-2.6649156,4.9985023,3.091488,-1.722198,-0.801271,17.932301,5.614534,2.876923
592,2105431292,-7.420395,3.6355133,62.00525,-0.3447609,0.31639957,0.3787198,3.7481253,-2.6272154,5.288209,3.085742,-1.716925,-0.794959,17.99477,5.570747,2.96506
593,2105447959,-7.4985657,3.6266747,61.8779,-0.32813644,0.31216407,0.35058165,3.9147847,-2.229908,5.5353017,3.080273,-1.711722,-0.789116,18.060016,5.533582,3.057315
594,2105464626,-7.581909,3.640709,61.73459,-0.31554127,0.3158381,0.3255601,4.043199,-1.7111592,5.615904,3.075014,-1.706458,-0.78369,18.127403,5.505063,3.150913
595,2105481293,-7.6715546,3.6814613,61.57332,-0.30729675,0.32856894,0.30396605,4.140927,-1.078686,5.524024,3.069892,-1.700982,-0.778624,18.196418,5.487085,3.24298
596,2105497960,-7.7635193,3.7039032,61.404037,-0.29616642,0.3351823,0.27793694,4.209515,-0.08884239,5.31108,3.064956,-1.695396,-0.773992,18.266577,5.485604,3.331498
597,2105514627,-7.858124,3.7199287,61.224197,-0.28440285,0.33990157,0.24981928,4.2401857,1.2183511,4.944023,3.060216,-1.689731,-0.769828,18.337247,5.50591,3.413898
598,2105531294,-7.9280853,3.764347,61.106033,-0.28027916,0.34520912,0.22420168,4.089299,1.5118917,4.5549946,3.055545,-1.683978,-0.766091,18.405402,5.531108,3.489815
599,2105547961,-7.969757,3.8350487,61.058243,-0.28391647,0.3495617,0.20070076,3.737845,0.6999974,4.1529074,3.050813,-1.678152,-0.762746,18.467699,5.542775,3.55903
600,2105564628,-7.9958344,3.9237747,61.045135,-0.29305553,0.3546976,0.17880154,3.2445822,-0.608083,3.6444194,3.045929,-1.67224,-0.759766,18.521775,5.53264,3.61977
601,2105581295,-7.99794,4.038769,61.08812,-0.30996132,0.36080658,0.1596303,2.5639884,-2.7774844,3.0605817,3.040763,-1.666227,-0.757105,18.564508,5.486349,3.67078
602,2105597962,-7.9907684,4.1487503,61.14766,-0.3280325,0.36262786,0.13846588,1.7794847,-4.964566,2.3282714,3.035296,-1.660183,-0.754797,18.594166,5.403606,3.709585
603,2105614629,-7.974472,4.2527847,61.22229,-0.3472557,0.3601457,0.115302086,0.88931584,-7.1239223,1.4318764,3.029508,-1.654181,-0.752875,18.608988,5.284874,3.73345
604,2105631296,-7.9336853,4.3733826,61.351532,-0.37299633,0.35599077,0.093482494,-0.19271278,-9.997788,0.4295377,3.023291,-1.648248,-0.751317,18.605776,5.118244,3.740609
605,2105647963,-7.87059,4.5039177,61.52852,-0.40405178,0.34895718,0.07207632,-1.4551499,-13.416623,-0.70076346,3.016557,-1.642432,-0.750116,18.581524,4.894634,3.72893
606,2105664630,-7.9690704,4.6669197,61.633453,-0.42911816,0.34760427,0.082523346,-3.9776394,-15.222956,-0.8721835,3.009405,-1.636639,-0.748741,18.51523,4.640918,3.714394
607,2105681297,-8.244995,4.8671913,61.661148,-0.44785023,0.3528638,0.12846708,-7.889057,-15.3042965,0.030194223,3.001941,-1.630758,-0.7466,18.383746,4.385846,3.714897
608,2105697964,-8.612854,5.089649,61.664963,-0.46490765,0.35972488,0.19461584,-12.684151,-14.571487,1.478518,2.994193,-1.624763,-0.743356,18.172343,4.142988,3.739539
609,2105714631,-9.124634,5.3415184,61.61351,-0.47734737,0.37055087,0.2902584,-18.686981,-12.44064,3.7880986,2.986237,-1.618587,-0.738518,17.860893,3.935644,3.802674
610,2105731298,-9.669525,5.6159325,61.58835,-0.49338436,0.38099527,0.3984108,-25.313164,-10.35895,6.3417754,2.978014,-1.612237,-0.731878,17.439007,3.762995,3.90837
611,2105747965,-10.242523,5.9122887,61.59462,-0.5134754,0.39059436,0.518497,-32.551453,-8.392894,9.112956,2.969456,-1.605727,-0.723236,16.896483,3.623113,4.060253
612,2105764632,-10.945618,6.240795,61.565018,-0.53101444,0.4035443,0.6675782,-40.997616,-5.307222,12.696961,2.960606,-1.599001,-0.71211,16.213189,3.534659,4.271869
613,2105781299,-11.757706,6.600567,61.516937,-0.5477524,0.41890168,0.84274125,-50.557404,-1.3921247,16.981144,2.951477,-1.592019,-0.698064,15.370566,3.511457,4.554888
614,2105797966,-12.461929,6.8663673,61.366013,-0.58615875,0.45754433,0.94082904,-53.8951,0.44674015,19.06967,2.941708,-1.584393,-0.682384,14.472314,3.518903,4.872716
615,2105814633,-13.052368,7.0276375,61.094788,-0.6477108,0.5222404,0.95432544,-50.368603,0.08850551,18.76612,2.930913,-1.575689,-0.666479,13.632837,3.520378,5.185485
616,2105831300,-13.619751,7.1432304,60.75421,-0.7230625,0.6026573,0.930413,-43.380756,-1.2785678,17.374205,2.918862,-1.565645,-0.650972,12.909824,3.499069,5.475055
617,2105847967,-14.108078,7.1779594,60.31665,-0.8184843,0.7051281,0.8405669,-30.851858,-4.4301744,14.097944,2.905221,-1.553893,-0.636963,12.395626,3.425233,5.710021
618,2105864634,-14.672623,7.207142,59.812866,-0.91937923,0.8187847,0.74948025,-17.186344,-7.347783,10.782572,2.889898,-1.540247,-0.624472,12.109187,3.30277,5.889731
619,2105881301,-15.322586,7.234501,59.243744,-1.0252647,0.9433472,0.66044474,-2.5772145,-9.938002,7.521012,2.87281,-1.524525,-0.613465,12.066233,3.137137,6.015081
620,2105897968,-15.933395,7.191036,58.567383,-1.1490726,1.0901816,0.5159197,17.047508,-13.884445,2.6896193,2.853659,-1.506355,-0.604866,12.350358,2.90573,6.059908
621,2105914635,-16.538422,7.091305,57.78737,-1.2880507,1.2575384,0.32870913,40.856068,-18.776152,-3.3443284,2.832191,-1.485396,-0.599388,13.031292,2.592794,6.004169
622,2105931302,-16.339294,7.1563454,57.582703,-1.3825264,1.3363638,0.26400948,56.0549,-22.462189,-8.000481,2.809149,-1.463123,-0.594988,13.96554,2.218424,5.870828
623,2105947969,-15.238342,7.397999,58.013687,-1.4283972,1.317613,0.33012486,61.987034,-24.955122,-11.255304,2.785342,-1.441163,-0.589486,14.998657,1.802505,5.68324
624,2105964636,-13.631073,7.7205467,58.761215,-1.4521418,1.2518065,0.45697594,64.21955,-27.010685,-14.106712,2.76114,-1.4203,-0.58187,16.068983,1.352327,5.448128
625,2105981303,-11.279892,8.183628,60.01758,-1.4372635,1.1082903,0.6890521,59.320908,-28.091087,-15.902709,2.737186,-1.401828,-0.570386,17.057665,0.884142,5.183083
626,2105997970,-8.609421,8.640064,61.378296,-1.4219112,0.95339715,0.9150264,55.862564,-29.903017,-18.591078,2.713487,-1.385938,-0.555136,17.988708,0.385758,4.873232
627,2106014637,-5.6343384,9.082394,62.82457,-1.4078426,0.7902385,1.1295221,54.302338,-32.52816,-22.27952,2.690023,-1.372767,-0.536311,18.893747,-0.156378,4.501907
628,2106031304,-1.9226379,9.636181,64.73122,-1.3613815,0.55826354,1.4270084,47.380356,-34.66411,-25.449986,2.667333,-1.363463,-0.512528,19.68342,-0.734113,4.077741
629,2106047971,2.4535217,10.271496,67.02133,-1.2900114,0.270226,1.7849357,36.858932,-36.67778,-28.524458,2.645833,-1.358959,-0.482779,20.297736,-1.345409,3.602333
630,2106064638,5.806244,10.686382,70.040375,-1.2072983,0.08309746,2.035522,30.581518,-37.1604,-30.476425,2.625711,-1.357574,-0.448854,20.807428,-1.964749,3.094393
631,2106081305,8.0412445,10.867611,73.884384,-1.1095352,0.0034532547,2.1749094,28.3435,-35.814354,-31.01968,2.607219,-1.357516,-0.412606,21.27982,-2.561655,2.577398
632,2106097972,9.923035,10.9384575,78.353455,-0.99451923,-0.035453558,2.2680688,27.554352,-33.548836,-30.92214,2.590644,-1.358107,-0.374805,21.739059,-3.120802,2.062029
633,2106114639,10.999344,10.817898,83.575226,-0.8640623,0.007910252,2.271347,30.113735,-29.909086,-29.830849,2.576243,-1.357975,-0.336949,22.240955,-3.619287,1.564848
634,2106131306,12.380249,10.714237,89.46654,-0.7004528,0.025464773,2.3076117,29.511982,-25.362879,-27.944122,2.564569,-1.357551,-0.298489,22.732821,-4.042002,1.099113
635,2106147973,14.13237,10.636707,96.03992,-0.50211143,0.011338472,2.3826754,25.425821,-19.94054,-25.283485,2.5562,-1.357362,-0.258778,23.156585,-4.374344,0.677722
636,2106164640,15.310898,10.410435,103.46968,-0.27837944,0.055258036,2.3977408,22.661802,-12.976973,-21.40816,2.55156,-1.356441,-0.218816,23.534282,-4.590627,0.320919
637,2106181307,16.147415,10.077419,111.76341,-0.024428368,0.13468003,2.3784401,19.790184,-4.531418,-16.32449,2.551153,-1.354196,-0.179175,23.864118,-4.666151,0.048844
638,2106197974,17.159988,9.912579,113.09488,0.14187813,0.14238358,2.3902037,16.447203,0.35456395,-12.583505,2.553518,-1.351823,-0.139338,24.138238,-4.660242,-0.160881
639,2106214641,18.271835,9.919468,106.71239,0.2086134,0.079395056,2.4269176,13.11448,1.3135719,-10.328647,2.556995,-1.3505,-0.098889,24.356813,-4.638349,-0.333025
640,2106231308,19.384628,9.994694,96.30939,0.23535442,-0.018375158,2.4744356,8.94639,0.72220945,-8.316937,2.560918,-1.350806,-0.057648,24.50592,-4.626312,-0.471641
641,2106247975,20.600586,10.208736,79.640625,0.1885643,-0.17778277,2.5473628,3.9626906,-2.8025079,-7.2187004,2.564061,-1.353769,-0.015192,24.571965,-4.67302,-0.591953
642,2106264642,21.365738,10.354305,61.271652,0.13496208,-0.3130033,2.5812826,-0.4314096,-6.13344,-5.3983326,2.56631,-1.358986,0.027829,24.564775,-4.775244,-0.681925
643,2106281309,21.650269,10.421368,41.39421,0.07846451,-0.42039108,2.5736415,-4.295245,-9.087171,-2.727438,2.567618,-1.365993,0.070723,24.493188,-4.926697,-0.727382
644,2106297976,21.801422,10.573376,15.692436,-0.044215202,-0.5654466,2.5680695,-8.291821,-14.437094,-0.5870502,2.566881,-1.375417,0.113524,24.354991,-5.167315,-0.737166
645,2106314643,21.687073,10.766491,-14.99015,-0.22016716,-0.72997475,2.5501902,-12.127818,-21.549791,1.3822441,2.563212,-1.387583,0.156027,24.152861,-5.526478,-0.714129
646,2106331310,21.775787,10.921383,-42.873714,-0.33631134,-0.8354597,2.5392337,-14.524185,-25.10205,3.0619853,2.557607,-1.401507,0.198348,23.910791,-5.944846,-0.663096
647,2106347977,22.136559,11.05032,-67.8792,-0.39123344,-0.8816626,2.541111,-15.370832,-24.95484,4.2631664,2.551086,-1.416201,0.2407,23.65461,-6.36076,-0.592043
648,2106364644,22.442932,11.161442,-93.251274,-0.43122673,-0.89305186,2.5360894,-15.035353,-23.229168,5.281029,2.543899,-1.431085,0.282968,23.404021,-6.747913,-0.504026
649,2106381311,22.826141,11.238331,-117.05593,-0.42790413,-0.8491297,2.530247,-13.120218,-18.54051,6.0214434,2.536767,-1.445237,0.325139,23.185351,-7.056922,-0.403669
650,2106397978,23.086334,11.370045,-145.09813,-0.4648428,-0.81224966,2.523007,-10.5421505,-14.720896,6.2059145,2.52902,-1.458774,0.367189,23.009648,-7.30227,-0.300237
651,2106414645,23.18927,11.559238,-177.7796,-0.5473881,-0.7839973,2.512509,-7.2669163,-11.9641695,5.826283,2.519897,-1.471841,0.409064,22.888533,-7.501673,-0.203132
652,2106431312,23.345055,11.748966,-210.6229,-0.61035347,-0.7152505,2.5042856,-2.4438593,-7.172496,4.9115305,2.509724,-1.483762,0.450802,22.847802,-7.621215,-0.121273
653,2106447979,23.505722,11.95908,-244.9369,-0.67223454,-0.6184194,2.4979627,3.795035,-1.1496639,3.3774714,2.49852,-1.494069,0.492435,22.911053,-7.640376,-0.064982
654,2106464646,23.605728,12.116932,-272.138,-0.72275543,-0.56392884,2.4904516,7.556489,2.4640968,2.5600848,2.486474,-1.503468,0.533943,23.036994,-7.599308,-0.022314
655,2106481313,23.668396,12.210514,-290.8506,-0.7533541,-0.5523877,2.4826887,8.60487,3.6964185,2.5566316,2.473918,-1.512674,0.575321,23.180408,-7.537701,0.020297
656,2106497980,23.692764,12.288982,-306.02554,-0.78176975,-0.558429,2.4761205,8.735249,3.7310433,2.6492372,2.460889,-1.521981,0.61659,23.325995,-7.475517,0.064451
657,2106514647,23.671417,12.331036,-315.03842,-0.80290794,-0.60013056,2.4705455,6.8989534,1.646659,3.190664,2.447507,-1.531983,0.657766,23.440978,-7.448073,0.117629
658,2106531314,23.688377,12.364765,-321.73846,-0.806592,-0.62278223,2.468773,5.6534147,0.36440992,3.3827808,2.434064,-1.542363,0.698912,23.535202,-7.442,0.174009
659,2106547981,23.748894,12.394184,-326.35168,-0.7934542,-0.62397003,2.4714262,5.1568823,-0.0068917274,3.1475673,2.42084,-1.552763,0.740102,23.62115,-7.442115,0.226468
660,2106564648,23.809425,12.386547,-324.52475,-0.76334,-0.64642906,2.4773407,3.2263794,-1.7116513,3.1776547,2.408118,-1.563537,0.781391,23.674923,-7.470643,0.279429
661,2106581315,23.89177,12.347691,-316.89838,-0.71349907,-0.67865324,2.4875324,0.39718628,-4.141141,3.2920027,2.396226,-1.574848,0.82285,23.681543,-7.539662,0.334296
662,2106597982,23.908104,12.33514,-305.72003,-0.6835699,-0.68821716,2.4952025,-0.9313228,-5.0830026,3.2595098,2.384833,-1.586318,0.864437,23.666021,-7.624379,0.388621
663,2106614649,23.849823,12.349117,-290.3747,-0.6760521,-0.6771076,2.499934,-0.812449,-4.587414,3.1439931,2.373565,-1.597603,0.906103,23.65248,-7.700836,0.441021
664,2106631316,23.777641,12.365543,-269.97345,-0.66938305,-0.65291095,2.5060127,-0.03429389,-3.2891917,2.9297256,2.362409,-1.608485,0.94787,23.651908,-7.755656,0.48985
665,2106647983,23.669258,12.398487,-244.73442,-0.6737671,-0.6079085,2.5117807,1.9898355,-0.63320565,2.5782793,2.35118,-1.618617,0.989733,23.685072,-7.766209,0.532821
666,2106664650,23.569855,12.406101,-211.92407,-0.66552544,-0.5721829,2.5215144,3.2950258,1.4998658,2.3863738,2.340088,-1.628153,1.031758,23.739989,-7.741211,0.572594
667,2106681317,23.48803,12.385387,-171.10762,-0.6420994,-0.546648,2.535892,3.7899356,3.0525262,2.361154,2.329386,-1.637264,1.074023,23.803155,-7.690336,0.611947
668,2106697984,23.384125,12.36858,-123.571724,-0.6236391,-0.50988126,2.5515466,4.941268,5.438223,2.3298368,2.318992,-1.645762,1.116549,23.885509,-7.599699,0.650778
669,2106714651,23.270607,12.34618,-68.44347,-0.604579,-0.46828866,2.5696433,6.323265,8.267216,2.3602436,2.308916,-1.653567,1.159376,23.990897,-7.461912,0.690115
670,2106731318,23.005058,12.321125,-26.28759,-0.5926819,-0.4398389,2.5771887,7.1707687,10.446054,2.7586935,2.299038,-1.660898,1.202329,24.11041,-7.287811,0.736093
671,2106747985,22.569176,12.297199,0.9357834,-0.5911112,-0.4240632,2.5725963,7.56975,12.034062,3.5472195,2.289186,-1.667966,1.245206,24.236572,-7.087243,0.795213
672,2106764652,22.039787,12.266178,23.734467,-0.5922489,-0.4170308,2.5629203,7.5812817,13.285674,4.637051,2.279315,-1.674917,1.287921,24.362927,-6.865815,0.872497
673,2106781319,21.374985,12.229763,36.339012,-0.5990391,-0.4234085,2.5443883,7.026293,13.936014,6.120731,2.269331,-1.681974,1.330327,24.480032,-6.633548,0.974509
674,2106797986,20.650543,12.193783,50.65866,-0.611496,-0.4272604,2.5239646,6.717684,15.001915,7.785148,2.259139,-1.689095,1.372393,24.591993,-6.383516,1.104261
675,2106814653,19.871048,12.15765,67.488525,-0.62930584,-0.42848158,2.5021229,6.6580973,16.511131,9.637238,2.248651,-1.696236,1.414095,24.702961,-6.10833,1.264882
676,2106831320,18.960663,12.120167,75.793274,-0.6553421,-0.43920326,2.472,6.288053,17.733212,11.873776,2.237729,-1.703556,1.455295,24.807762,-5.812776,1.462778
677,2106847987,17.933533,12.082569,77.968475,-0.68985844,-0.45635557,2.4349403,5.7714424,18.882072,14.463404,2.226231,-1.711162,1.495877,24.903953,-5.498075,1.703835
678,2106864654,16.923431,12.045841,83.08891,-0.71204567,-0.43694663,2.3969314,4.8313546,19.186707,15.987481,2.214364,-1.718444,1.535826,24.984476,-5.178297,1.970293
679,2106881321,15.931137,12.010395,90.39349,-0.7206974,-0.37820125,2.3574517,3.3758152,18.485962,16.337662,2.202352,-1.724747,1.575117,25.04074,-4.870198,2.242587
680,2106897988,14.900497,11.976963,96.971085,-0.72617817,-0.29839778,2.3143606,1.643053,17.286743,16.170187,2.190249,-1.72972,1.61369,25.068124,-4.582086,2.51209
681,2106914655,13.864319,11.946201,104.74577,-0.7230396,-0.18562436,2.2688832,-0.46506548,15.342707,15.091112,2.178198,-1.732814,1.651505,25.060373,-4.326374,2.763609
682,2106931322,12.722824,11.917278,105.376785,-0.72436905,-0.068219185,2.21555,-2.9532297,12.897625,13.987353,2.166125,-1.733951,1.688431,25.011153,-4.111414,2.996732
683,2106947989,11.4687195,11.89072,98.25073,-0.73125935,0.05268979,2.153872,-5.815242,9.970988,12.904766,2.153937,-1.733073,1.724329,24.914232,-3.945231,3.211811
684,2106964656,10.17836,11.867825,88.90886,-0.7326088,0.20188212,2.0874043,-9.144536,6.209051,11.051539,2.141727,-1.729708,1.759119,24.761823,-3.841747,3.396003
685,2106981323,8.82901,11.848827,75.31862,-0.7313223,0.37385798,2.014754,-12.953027,1.6436218,8.60319,2.129538,-1.723477,1.792698,24.545939,-3.814353,3.53939
686,2106997990,8.103012,11.832951,67.490555,-0.73381996,0.471341,1.9764683,-14.602066,-1.5685861,5.9046144,2.117308,-1.715621,1.825639,24.302571,-3.840496,3.6378
687,2107014657,8.078735,11.820614,66.8232,-0.73934937,0.48808634,1.976901,-13.852793,-3.285849,2.871236,2.104986,-1.707486,1.858587,24.071691,-3.89526,3.685654
688,2107031324,8.420593,11.812733,66.98372,-0.74687195,0.46655858,1.9959226,-11.964062,-4.5259795,-0.56063676,2.092538,-1.69971,1.891852,23.87229,-3.970693,3.67631
689,2107047991,9.329239,11.809452,70.8347,-0.757782,0.380005,2.0452628,-8.188998,-4.7059836,-4.340899,2.079908,-1.693377,1.92594,23.735807,-4.049126,3.603962
690,2107064658,10.4319,11.812222,73.685776,-0.76567364,0.29151416,2.102285,-4.079981,-5.1865826,-8.898245,2.067147,-1.688518,1.960978,23.667807,-4.135569,3.455658
691,2107081325,11.714066,11.821552,74.97339,-0.77036095,0.20395589,2.165898,0.28675246,-6.054551,-14.269996,2.054308,-1.685119,1.997076,23.672586,-4.236478,3.217825
692,2107097992,13.546234,11.837124,79.525665,-0.7761469,0.062135696,2.2580438,6.356204,-6.125616,-20.2234,2.041372,-1.684083,2.03471,23.778523,-4.338572,2.880768
693,2107114659,15.8629,11.859585,86.33307,-0.7816334,-0.12150979,2.374544,13.832178,-5.682555,-26.873827,2.028345,-1.686108,2.074286,24.009059,-4.433281,2.432871
694,2107131326,17.382477,11.72559,89.764725,-0.78975964,-0.25230694,2.4413576,18.018848,-4.359029,-31.14581,2.015182,-1.690313,2.114975,24.309373,-4.505931,1.913774
695,2107147993,18.039047,11.418598,89.99475,-0.8012314,-0.3287816,2.45459,18.666092,-1.9501319,-32.724957,2.001828,-1.695793,2.155885,24.620475,-4.538433,1.368358
696,2107164660,18.406128,11.01582,89.076584,-0.8136473,-0.38821793,2.4469604,17.81968,1.2005656,-33.154594,1.988267,-1.702263,2.196668,24.91747,-4.518424,0.815781
697,2107181327,18.14241,10.4699135,85.693634,-0.8279257,-0.4064622,2.398637,14.215619,5.2644,-31.556181,1.974468,-1.709037,2.236645,25.154397,-4.430684,0.289845
698,2107197994,18.101868,9.874889,84.32512,-0.8434658,-0.45391846,2.3588414,10.979276,10.356199,-29.6678,1.96041,-1.716602,2.275959,25.337385,-4.258081,-0.204618
699,2107214661,18.335724,9.234364,85.265625,-0.86008453,-0.53445697,2.330337,8.274268,16.498478,-27.586102,1.946075,-1.72551,2.314798,25.475289,-3.983106,-0.664386
700,2107231328,18.12378,8.458187,85.241425,-0.87890434,-0.59259176,2.2713714,3.4391685,23.822958,-23.654987,1.931427,-1.735387,2.352654,25.532608,-3.586057,-1.058636
701,2107247995,17.645172,7.5633736,85.28047,-0.899806,-0.6434722,2.192129,-2.8873966,32.396156,-18.206644,1.91643,-1.746112,2.389189,25.484485,-3.046121,-1.36208
702,2107264662,17.355576,6.851345,85.173874,-0.90099907,-0.72053313,2.1221538,-6.361414,37.546013,-14.532082,1.901413,-1.758121,2.424558,25.378461,-2.420354,-1.604281
703,2107281329,17.204224,6.337681,84.58096,-0.88047504,-0.820457,2.0587018,-6.91115,38.867577,-12.69903,1.886738,-1.771795,2.45887,25.263275,-1.772561,-1.815931
704,2107297996,17.09082,5.888874,84.366776,-0.8484192,-0.9378221,1.9942288,-6.1819696,38.643112,-11.333544,1.872598,-1.787425,2.492107,25.160242,-1.128509,-2.004823
705,2107314663,17.112244,5.585476,84.41467,-0.79860973,-1.0802622,1.9351559,-3.0534298,35.56803,-11.272009,1.859288,-1.805429,2.52436,25.109352,-0.535708,-2.19269
706,2107331330,16.813019,5.2262154,84.10332,-0.74383736,-1.214256,1.8530569,-0.7585058,32.420048,-10.131052,1.846891,-1.825667,2.555244,25.09671,0.004626,-2.361541
707,2107347997,16.17102,4.7995644,83.52942,-0.684638,-1.3390326,1.7464242,0.5504434,29.363123,-7.7597647,1.83548,-1.847984,2.584351,25.105884,0.494011,-2.49087
708,2107364664,15.486053,4.475582,82.90814,-0.6089964,-1.4775813,1.6342924,3.4443703,23.856287,-6.0454903,1.82533,-1.87261,2.611589,25.16329,0.891616,-2.591628
709,2107381331,14.652939,4.2123947,82.13707,-0.51928806,-1.6227691,1.510076,7.2449408,16.45129,-4.4658074,1.816675,-1.899656,2.636757,25.284039,1.165804,-2.666058
710,2107397998,14.066803,3.9574547,81.55701,-0.44912815,-1.7045655,1.3985956,9.409007,11.675337,-2.8541224,1.80919,-1.928065,2.660067,25.440856,1.360393,-2.713627
711,2107414665,13.791428,3.7286606,81.20944,-0.3999834,-1.7181134,1.303925,10.002671,9.603309,-1.4182358,1.802524,-1.9567,2.681799,25.607567,1.520448,-2.737264
712,2107431332,13.560257,3.5245667,80.86647,-0.3572607,-1.6910958,1.2093446,9.773708,8.422136,0.122832716,1.79657,-1.984885,2.701955,25.770462,1.660817,-2.735217
713,2107447999,13.488281,3.3385658,80.61932,-0.3298397,-1.6036026,1.1221228,8.091634,9.284231,1.7502894,1.791073,-2.011612,2.720657,25.905323,1.815554,-2.706046
714,2107464666,13.415054,3.2473145,80.3793,-0.294734,-1.5017805,1.0321999,7.1072874,8.862236,2.8951073,1.786161,-2.036642,2.73786,26.023778,1.963258,-2.657794
715,2107481333,13.317749,3.2553368,80.12732,-0.25061417,-1.3865705,0.938179,6.8954415,6.965369,3.5573184,1.781984,-2.059752,2.753496,26.138702,2.079347,-2.598505
716,2107498000,13.377029,3.3224106,79.98445,-0.21657085,-1.2166858,0.85146236,5.849289,6.2221856,3.9820817,1.778374,-2.08003,2.767687,26.23619,2.18305,-2.532137
717,2107514667,13.558731,3.4682007,79.93153,-0.18776798,-1.0004513,0.76993656,4.4208994,5.9133406,4.034039,1.775245,-2.096704,2.780519,26.309872,2.281606,-2.464903
718,2107531334,13.580139,3.5245247,79.81506,-0.16781521,-0.860837,0.7258954,3.3064234,5.327464,4.085352,1.772448,-2.111051,2.792617,26.364979,2.370397,-2.396814
719,2107548001,13.442322,3.4741974,79.6414,-0.15962315,-0.8037014,0.7245946,2.3876996,4.710221,4.165953,1.769788,-2.124446,2.804694,26.404774,2.448901,-2.327381
720,2107564668,13.259552,3.4134445,79.47394,-0.15842247,-0.7754414,0.7498708,1.6431373,3.9073608,3.9819968,1.767148,-2.13737,2.817192,26.43216,2.514024,-2.261014
721,2107581335,12.963318,3.2960472,79.278824,-0.16617012,-0.80878544,0.81202626,1.2193527,2.8103204,3.61856,1.764378,-2.15085,2.830726,26.452483,2.560863,-2.200705
722,2107598002,12.7630005,3.2131882,79.17525,-0.18594265,-0.8199804,0.89564705,0.2837615,2.5023687,2.9038305,1.761279,-2.164516,2.845653,26.457212,2.602569,-2.152308
723,2107614669,12.673218,3.1741066,79.174225,-0.21796608,-0.8042927,1.000726,-1.177213,3.001088,1.787529,1.757646,-2.177921,2.862332,26.437592,2.652587,-2.122516
724,2107631336,12.534164,3.09383,79.19165,-0.2629137,-0.831753,1.1449268,-2.6323664,3.7006273,0.4112993,1.753264,-2.191784,2.881414,26.393719,2.714264,-2.115661
725,2107648003,12.393372,2.9923248,79.25699,-0.32193756,-0.8848622,1.3262098,-4.261759,4.8477716,-1.2832749,1.747898,-2.206532,2.903517,26.32269,2.79506,-2.137049
726,2107664670,12.270142,2.923664,79.25641,-0.35815334,-0.9125123,1.4372861,-4.9643755,5.389064,-2.226554,1.741929,-2.221741,2.927472,26.23995,2.884878,-2.174158
727,2107681337,12.149445,2.8813515,79.17186,-0.36862087,-0.9189043,1.4709082,-4.5810785,5.187544,-2.304303,1.735785,-2.237056,2.951987,26.163599,2.971337,-2.212563
728,2107698004,12.056686,2.8527527,79.08058,-0.37203026,-0.916924,1.4773762,-3.7597249,4.93519,-2.0725846,1.729584,-2.252338,2.97661,26.100937,3.05359,-2.247106
729,2107714671,11.9934845,2.848938,78.94954,-0.35832596,-0.89514065,1.4275205,-2.1754277,4.3407273,-1.2258842,1.723612,-2.267257,3.000402,26.06468,3.125935,-2.267537
730,2107731338,11.911362,2.8175316,78.828705,-0.3496189,-0.9018543,1.3894575,-0.3223276,3.8736587,-0.3750944,1.717785,-2.282288,3.02356,26.059308,3.190496,-2.273789
731,2107748005,11.812729,2.7556152,78.725204,-0.3475628,-0.9393287,1.367351,1.7594517,3.6041493,0.44029814,1.711992,-2.297943,3.046349,26.088632,3.250565,-2.266451
732,2107764672,11.722855,2.6973343,78.58568,-0.3324337,-0.97454953,1.3018126,4.6100655,3.0522196,1.7974269,1.706451,-2.314185,3.068046,26.165466,3.301435,-2.236494
