PacketCounter,SampleTimeFine,Euler_X,Euler_Y,Euler_Z,Acc_X,Acc_Y,Acc_Z,Gyr_X,Gyr_Y,Gyr_Z,Velo_X,Velo_Y,Velo_Z,ANG_X,ANG_Y,ANG_Z
0,1442794611,-1.6073532,9.40641,13.534927,3.044423,1.0530152,0.53201133,-0.5780329,1.314025,0.70582116,0.0,0.0,0.0,0.0,0.0,0.0
1,1442811278,-1.6261063,9.437675,13.51469,2.729361,1.0281048,0.5306448,-0.5766655,1.2840033,0.8011826,0.045489,0.017135,0.008844,-0.009611,0.0214,0.013353
2,1442827945,-1.646431,9.470543,13.492798,2.387391,1.0011277,0.5292805,-0.57502687,1.2514597,0.90554965,0.085279,0.03382,0.017665,-0.019195,0.042258,0.028445
3,1442844612,-1.6681213,9.504501,13.46944,2.0234804,0.9724837,0.52794576,-0.5731189,1.2166934,1.0175072,0.119004,0.050028,0.026464,-0.028747,0.062536,0.045403
4,1442861279,-1.6951065,9.549667,13.440262,1.5367136,0.9340637,0.52609825,-0.5707866,1.1731018,1.1660281,0.144616,0.065596,0.035232,-0.03826,0.082088,0.064837
5,1442877946,-1.7265778,9.603813,13.406136,0.9476576,0.88752925,0.52386504,-0.56803966,1.1220101,1.3453354,0.16041,0.080388,0.043963,-0.047727,0.100788,0.087259
6,1442894613,-1.7499924,9.649826,13.3784485,0.55886173,0.85791165,0.5224962,-0.5609134,1.0793508,1.4565727,0.169724,0.094687,0.052671,-0.057076,0.118777,0.111535
7,1442911280,-1.7646561,9.687477,13.357647,0.38510036,0.8464769,0.5220419,-0.5489619,1.0456798,1.4943372,0.176142,0.108795,0.061372,-0.066225,0.136205,0.136441
8,1442927947,-1.7761078,9.723618,13.338852,0.29516315,0.84235597,0.52199167,-0.5340279,1.01419,1.5020527,0.181061,0.122834,0.070072,-0.075125,0.153108,0.161475
9,1442944614,-1.7809601,9.753899,13.325054,0.3698511,0.8522557,0.5226783,-0.5149343,0.9890314,1.4530882,0.187225,0.137038,0.078783,-0.083707,0.169592,0.185693
10,1442961281,-1.7876205,9.791168,13.308384,0.40513325,0.8593746,0.52322894,-0.4938873,0.95903826,1.4129533,0.193977,0.151361,0.087503,-0.091938,0.185576,0.209242
11,1442977948,-1.7965317,9.836166,13.28838,0.3899355,0.86281526,0.52360255,-0.47093958,0.92354286,1.3851441,0.200476,0.165741,0.09623,-0.099787,0.200968,0.232328
12,1442994615,-1.8005676,9.878914,13.271534,0.49608612,0.8767882,0.5245242,-0.44389293,0.8916439,1.3137678,0.208744,0.180354,0.104972,-0.107185,0.215829,0.254224
13,1443011282,-1.8014755,9.922165,13.25618,0.6813965,0.89783585,0.5258156,-0.4131164,0.8609534,1.2122308,0.220101,0.195318,0.113736,-0.11407,0.230178,0.274428
14,1443027949,-1.7961044,9.963615,13.251015,0.7692976,0.90969455,0.5260303,-0.3869351,0.83297193,1.1446558,0.232923,0.21048,0.122503,-0.120519,0.244061,0.293506
15,1443044616,-1.7831497,10.001823,13.257771,0.7652855,0.91266644,0.52511936,-0.3658019,0.8090157,1.1097599,0.245678,0.225691,0.131255,-0.126616,0.257545,0.312002
16,1443061283,-1.7651215,10.039803,13.271332,0.7258358,0.9122389,0.5236494,-0.34594727,0.7868132,1.0856627,0.257775,0.240895,0.139982,-0.132382,0.270659,0.330096
17,1443077950,-1.740715,10.07653,13.294514,0.6083889,0.90442425,0.52123666,-0.32959563,0.76719284,1.0879985,0.267915,0.255969,0.148669,-0.137875,0.283446,0.348229
18,1443094617,-1.7097931,10.110878,13.324085,0.5614338,0.9024809,0.5189123,-0.3112356,0.75168216,1.0644158,0.277272,0.27101,0.157318,-0.143062,0.295974,0.365969
19,1443111284,-1.6722107,10.142883,13.359978,0.59208775,0.9070536,0.5167205,-0.2905312,0.7403339,1.0122415,0.28714,0.286128,0.16593,-0.147904,0.308313,0.38284
20,1443127951,-1.6267166,10.172104,13.406525,0.5913725,0.90822595,0.5138119,-0.27214992,0.73330516,0.9704567,0.296996,0.301265,0.174494,-0.15244,0.320535,0.399014
21,1443144618,-1.5729828,10.198135,13.463352,0.5918617,0.90888345,0.5103961,-0.25493553,0.7311092,0.92757237,0.30686,0.316413,0.183001,-0.156689,0.33272,0.414474
22,1443161285,-1.5148697,10.227615,13.521954,0.5963955,0.9105419,0.5087291,-0.23466498,0.7196546,0.89171445,0.3168,0.331589,0.19148,-0.1606,0.344714,0.429336
23,1443177952,-1.4522629,10.260841,13.5824585,0.5935755,0.91224885,0.5089263,-0.21153909,0.6978302,0.86798584,0.326693,0.346793,0.199962,-0.164126,0.356345,0.443802
24,1443194619,-1.3827896,10.294266,13.648998,0.6052418,0.9153142,0.5100611,-0.18680608,0.6728392,0.84446275,0.33678,0.362048,0.208463,-0.167239,0.367559,0.457876
25,1443211286,-1.3072052,10.329567,13.719677,0.62943363,0.9198879,0.51274693,-0.15947023,0.64085704,0.82458055,0.347271,0.377379,0.217009,-0.169897,0.37824,0.471619
26,1443227953,-1.2225418,10.362602,13.801033,0.63732624,0.922587,0.5154521,-0.13320956,0.6102996,0.8134185,0.357893,0.392755,0.2256,-0.172117,0.388412,0.485176
27,1443244620,-1.1282272,10.392906,13.89381,0.63044167,0.92347276,0.518114,-0.10819453,0.58182275,0.810346,0.3684,0.408146,0.234235,-0.17392,0.398109,0.498682
28,1443261287,-1.0261612,10.423889,13.993385,0.6209574,0.9243031,0.52203935,-0.081783414,0.5479362,0.8161863,0.378749,0.423551,0.242936,-0.175283,0.407241,0.512285
29,1443277954,-0.9154053,10.454544,14.101471,0.6028147,0.9243514,0.52692515,-0.054788172,0.51042974,0.83224833,0.388796,0.438957,0.251718,-0.176196,0.415748,0.526156
30,1443294621,-0.79016876,10.484657,14.225796,0.5953932,0.92524105,0.53026134,-0.024360359,0.47419322,0.8325378,0.398719,0.454378,0.260556,-0.176602,0.423651,0.540032
31,1443311288,-0.6498337,10.514587,14.366875,0.60072327,0.92722106,0.5319807,0.010063887,0.43867803,0.8153266,0.408731,0.469832,0.269422,-0.176434,0.430962,0.553621
32,1443327955,-0.4962082,10.543694,14.522511,0.60482883,0.92896205,0.5330827,0.046566546,0.40271026,0.7942561,0.418811,0.485315,0.278307,-0.175658,0.437674,0.566859
33,1443344622,-0.32748413,10.57196,14.695019,0.6125879,0.93089134,0.53291345,0.08603382,0.36731154,0.76250684,0.429021,0.50083,0.287189,-0.174224,0.443796,0.579567
34,1443361289,-0.14698029,10.60022,14.879265,0.61626244,0.9325335,0.53329253,0.12748623,0.32770163,0.73554766,0.439292,0.516372,0.296077,-0.172099,0.449258,0.591826
35,1443377956,0.04549408,10.62841,15.075455,0.614007,0.93372166,0.53431183,0.17081559,0.28361666,0.7148324,0.449525,0.531934,0.304982,-0.169252,0.453985,0.60374
36,1443394623,0.253479,10.656158,15.288399,0.6134205,0.9350251,0.53450286,0.21732694,0.23818773,0.68694866,0.459749,0.547518,0.31389,-0.16563,0.457955,0.615189
37,1443411290,0.47660065,10.683617,15.51738,0.6122885,0.93629366,0.5342475,0.2668584,0.19029164,0.65537465,0.469954,0.563123,0.322794,-0.161182,0.461127,0.626112
38,1443427957,0.70381165,10.71093,15.7402,0.61170197,0.9376172,0.5350181,0.29399043,0.16062993,0.6337763,0.480149,0.57875,0.331711,-0.156282,0.463804,0.636675
39,1443444624,0.9347763,10.738098,15.955521,0.61256504,0.9390719,0.5367758,0.2963755,0.15155959,0.6218451,0.490358,0.594401,0.340657,-0.151342,0.46633,0.647039
40,1443461291,1.1747589,10.765152,16.173603,0.61255455,0.94049245,0.5390792,0.28587395,0.15251434,0.61554706,0.500567,0.610076,0.349642,-0.146577,0.468872,0.657298
41,1443477958,1.4210205,10.792145,16.388489,0.6121454,0.94192374,0.5422915,0.25522405,0.1695109,0.61828697,0.510769,0.625775,0.35868,-0.142323,0.471697,0.667603
42,1443494625,1.6813126,10.818848,16.614758,0.6117716,0.9433823,0.54517347,0.21939194,0.19135702,0.61901057,0.520965,0.641498,0.367766,-0.138666,0.474886,0.67792
43,1443511292,1.9563828,10.845268,16.853321,0.6111374,0.9448526,0.547679,0.178998,0.21747446,0.61737525,0.531151,0.657246,0.376894,-0.135683,0.478511,0.68821
44,1443527959,2.2400665,10.871574,17.091759,0.6104307,0.9463686,0.55073243,0.11999446,0.25891113,0.62180674,0.541325,0.673019,0.386073,-0.133683,0.482826,0.698573
45,1443544626,2.5341873,10.897736,17.33313,0.60964775,0.94793165,0.55407137,0.045156717,0.313609,0.63003004,0.551486,0.688818,0.395308,-0.13293,0.488053,0.709074
46,1443561293,2.7833328,10.923584,17.534473,0.6090212,0.9495392,0.55642486,-0.008119285,0.3617071,0.6291143,0.561636,0.704644,0.404582,-0.133065,0.494081,0.719559
47,1443577960,2.9811478,10.949127,17.689667,0.608613,0.95120066,0.5577698,-0.038316548,0.40306246,0.61878026,0.57178,0.720497,0.413878,-0.133704,0.500799,0.729872
48,1443594627,3.1548843,10.974426,17.820717,0.60827637,0.9529203,0.55852234,-0.06160623,0.4460547,0.6035985,0.581918,0.736379,0.423187,-0.134731,0.508233,0.739932
49,1443611294,3.2882614,10.999458,17.91446,0.6081009,0.95470345,0.55834323,-0.06816143,0.48579434,0.58014405,0.592053,0.752291,0.432493,-0.135867,0.51633,0.749601
50,1443627961,3.4116135,11.024361,17.992126,0.60783863,0.9565571,0.55820644,-0.083771884,0.53710365,0.55817163,0.602184,0.768234,0.441796,-0.137263,0.525282,0.758904
51,1443644628,3.5261536,11.049156,18.054298,0.60747623,0.9584865,0.5581344,-0.109957635,0.6010655,0.53800285,0.612309,0.784209,0.451098,-0.139096,0.5353,0.767871
52,1443661295,3.601738,11.073738,18.07801,0.60721684,0.9604968,0.5573393,-0.12544778,0.66632724,0.51176465,0.622429,0.800217,0.460387,-0.141187,0.546405,0.7764
53,1443677962,3.643715,11.098137,18.066578,0.607008,0.9625938,0.5560108,-0.13570789,0.73627436,0.48141086,0.632546,0.81626,0.469654,-0.143449,0.558676,0.784424
54,1443694629,3.7325974,11.122383,18.117352,0.6068096,0.96410173,0.55532515,-0.14802307,0.7839337,0.46435845,0.642659,0.832328,0.478909,-0.145916,0.571742,0.792163
55,1443711296,3.8712845,11.146446,18.235813,0.60665035,0.964956,0.55529153,-0.16035882,0.80532247,0.46131968,0.65277,0.848411,0.488164,-0.148589,0.585164,0.799852
56,1443727963,4.0242844,11.17038,18.377144,0.6065073,0.9654808,0.55546975,-0.17283913,0.815516,0.4653356,0.662878,0.864502,0.497422,-0.15147,0.598756,0.807608
57,1443744630,4.212425,11.194168,18.56734,0.60638523,0.96548307,0.5561587,-0.18661305,0.8063779,0.4810754,0.672984,0.880593,0.506691,-0.15458,0.612196,0.815626
58,1443761297,4.37986,11.217804,18.742653,0.60635567,0.96535784,0.55644757,-0.19185027,0.7907218,0.49628985,0.68309,0.896682,0.515965,-0.157778,0.625375,0.823897
59,1443777964,4.5229187,11.241287,18.899006,0.6064234,0.9651237,0.55628985,-0.18813553,0.7692752,0.5104598,0.693197,0.912767,0.525236,-0.160914,0.638196,0.832405
60,1443794631,4.6870193,11.264618,19.090591,0.6065512,0.96440977,0.55639195,-0.18101075,0.72814476,0.53379047,0.703306,0.92884,0.534509,-0.163931,0.650332,0.841302
61,1443811298,4.8600235,11.287819,19.30394,0.6067591,0.96329015,0.5565581,-0.16810274,0.66953814,0.5638124,0.713419,0.944895,0.543785,-0.166733,0.661491,0.850699
62,1443827965,4.9626007,11.311531,19.433784,0.60706806,0.96321714,0.55652595,-0.17850783,0.6731912,0.5787755,0.723537,0.960949,0.55306,-0.169708,0.672711,0.860345
63,1443844632,4.9922333,11.335815,19.476624,0.6074858,0.96427923,0.55635303,-0.21540412,0.7447035,0.5778738,0.733662,0.97702,0.562333,-0.173298,0.685123,0.869976
64,1443861299,4.977867,11.360359,19.47319,0.6080141,0.96583414,0.55602926,-0.26318666,0.84750885,0.5697938,0.743796,0.993117,0.5716,-0.177684,0.699248,0.879473
65,1443877966,4.8982086,11.385368,19.39552,0.6086645,0.96827716,0.5555038,-0.33012092,1.0035233,0.5487493,0.75394,1.009255,0.580858,-0.183186,0.715973,0.888619
66,1443894633,4.810219,11.410507,19.318375,0.6094227,0.9706635,0.5551103,-0.40055835,1.1625929,0.53011143,0.764097,1.025433,0.59011,-0.189862,0.73535,0.897454
67,1443911300,4.7156296,11.4357605,19.244759,0.61029434,0.97294515,0.554854,-0.47336757,1.3220468,0.5145639,0.774269,1.041649,0.599358,-0.197751,0.757384,0.90603
68,1443927967,4.5671387,11.461464,19.112926,0.6112976,0.97594094,0.55453014,-0.56368953,1.5262265,0.4893955,0.784457,1.057915,0.6086,-0.207146,0.782821,0.914187
69,1443944634,4.3758774,11.487556,18.937931,0.6124401,0.97946095,0.5542121,-0.66842467,1.7651012,0.45773637,0.794664,1.074239,0.617837,-0.218286,0.812239,0.921816
70,1443961301,4.1337967,11.511803,18.712055,0.6130552,0.9817467,0.5524138,-0.7466607,1.940618,0.4262296,0.804882,1.090601,0.627044,-0.23073,0.844583,0.92892
71,1443977968,3.8332214,11.534035,18.42591,0.6130867,0.98273647,0.548967,-0.7966174,2.0492883,0.39380693,0.8151,1.10698,0.636193,-0.244007,0.878738,0.935483
72,1443994635,3.4842606,11.555275,18.092155,0.6128464,0.9831413,0.5446218,-0.83579737,2.1312323,0.3592763,0.825314,1.123366,0.64527,-0.257937,0.914259,0.941471
73,1444011302,3.0818634,11.574913,17.705254,0.61214924,0.98249686,0.53894573,-0.85335886,2.1606016,0.3239149,0.835516,1.139741,0.654252,-0.27216,0.950269,0.94687
74,1444027969,2.6164627,11.594353,17.251892,0.61138344,0.9820437,0.53273827,-0.87709403,2.2062852,0.2803278,0.845706,1.156108,0.663131,-0.286778,0.98704,0.951542
75,1444044636,2.0866776,11.61367,16.730656,0.61056805,0.9818415,0.5260379,-0.908512,2.2717347,0.22809815,0.855882,1.172472,0.671898,-0.30192,1.024902,0.955344
76,1444061303,1.4911423,11.631599,16.14151,0.6093397,0.9808693,0.51805156,-0.924386,2.3002613,0.17177176,0.866038,1.18882,0.680532,-0.317326,1.06324,0.958207
77,1444077970,0.8260498,11.648399,15.479633,0.60777473,0.97938263,0.5089241,-0.93048936,2.306149,0.10956144,0.876168,1.205143,0.689014,-0.332834,1.101676,0.960033
78,1444094637,0.22312164,11.664993,14.872074,0.60672283,0.97856706,0.5013193,-0.9295699,2.3120413,0.06276548,0.88628,1.221452,0.697369,-0.348327,1.14021,0.961079
79,1444111304,-0.3067093,11.681244,14.329102,0.6062155,0.97840655,0.49537313,-0.9187521,2.31266,0.033813834,0.896384,1.237759,0.705625,-0.36364,1.178754,0.961643
80,1444127971,-0.8298569,11.696915,13.785587,0.6058893,0.97850657,0.4899015,-0.9003549,2.306393,0.011274695,0.906482,1.254067,0.71379,-0.378646,1.217194,0.961831
81,1444144638,-1.310112,11.712173,13.276127,0.6059704,0.9791618,0.48561457,-0.87401414,2.2970772,0.0012540817,0.916582,1.270386,0.721884,-0.393213,1.255479,0.961852
82,1444161305,-1.8262329,11.726143,12.7247505,0.60585403,0.97941077,0.4807366,-0.83178216,2.256144,-0.007585168,0.92668,1.28671,0.729896,-0.407076,1.293081,0.961726
83,1444177972,-2.3838272,11.73877,12.125557,0.60550785,0.9792108,0.47516376,-0.77315205,2.1821465,-0.016025543,0.936772,1.30303,0.737815,-0.419962,1.32945,0.961459
84,1444194639,-2.912056,11.750603,11.546265,0.6054201,0.97928923,0.4703947,-0.7012112,2.0916,-0.012956619,0.946862,1.319351,0.745655,-0.431649,1.36431,0.961243
85,1444211306,-3.4272995,11.761436,10.97076,0.605464,0.97944045,0.46605867,-0.61374044,1.977535,-0.0005829334,0.956953,1.335675,0.753423,-0.441878,1.397269,0.961233
86,1444227973,-3.9105453,11.7725525,10.442974,0.60510063,0.9791854,0.4618745,-0.54098034,1.8839649,0.0022230148,0.967038,1.351995,0.761121,-0.450894,1.428668,0.96127
87,1444244640,-4.349571,11.784111,9.976994,0.6043415,0.9785599,0.45801783,-0.4856213,1.816015,-0.004655719,0.97711,1.368304,0.768755,-0.458988,1.458935,0.961192
88,1444261307,-4.762985,11.795326,9.542282,0.60335064,0.9776472,0.45438817,-0.43133727,1.7472159,-0.013497949,0.987166,1.384598,0.776328,-0.466177,1.488055,0.960967
89,1444277974,-5.141144,11.806564,9.155323,0.6019974,0.9763324,0.4509794,-0.38636976,1.6898019,-0.02897489,0.997199,1.40087,0.783844,-0.472616,1.516218,0.960484
90,1444294641,-5.4754944,11.817184,8.808926,0.6007099,0.9750799,0.44836032,-0.3333566,1.6214817,-0.037005067,1.007211,1.417121,0.791317,-0.478172,1.543243,0.959867
91,1444311308,-5.76429,11.827103,8.5038185,0.5995054,0.9738971,0.44656587,-0.2707515,1.5397432,-0.036641836,1.017203,1.433353,0.79876,-0.482685,1.568905,0.959256
92,1444327975,-6.0009003,11.836983,8.260502,0.59805584,0.97245413,0.44534177,-0.2142765,1.4661956,-0.038729906,1.027171,1.449561,0.806182,-0.486256,1.593342,0.958611
93,1444344642,-6.180794,11.846649,8.080238,0.5964451,0.97084624,0.44484127,-0.16017303,1.3959348,-0.04010725,1.037112,1.465742,0.813596,-0.488926,1.616608,0.957943
94,1444361309,-6.3687744,11.856606,7.887268,0.59570885,0.96951646,0.44405788,-0.11343026,1.3237996,-0.035407186,1.04704,1.481901,0.820997,-0.490817,1.638671,0.957353
95,1444377976,-6.566971,11.866997,7.6802826,0.5959101,0.9684726,0.4429056,-0.07676059,1.2524122,-0.02527523,1.056972,1.498042,0.828379,-0.492096,1.659545,0.956932
96,1444394643,-6.7387238,11.877487,7.4991684,0.5966234,0.9675712,0.44200033,-0.04546529,1.1811594,-0.009959817,1.066916,1.514168,0.835746,-0.492854,1.679231,0.956766
97,1444411310,-6.899437,11.888283,7.326069,0.5981417,0.96693075,0.44108087,-0.021835268,1.1097989,0.01179719,1.076885,1.530284,0.843097,-0.493218,1.697728,0.956963
98,1444427977,-7.005806,11.899261,7.2144203,0.5997782,0.9662046,0.44070917,-0.0070670843,1.0467311,0.034334064,1.086881,1.546387,0.850442,-0.493336,1.715174,0.957535
99,1444444644,-7.051964,11.910454,7.1706696,0.6015129,0.96538454,0.440963,-0.0013961792,0.99263084,0.05768597,1.096906,1.562477,0.857791,-0.493359,1.731718,0.958496
100,1444461311,-7.070999,11.922081,7.1548653,0.6039448,0.96474916,0.44135243,-0.0067224503,0.9437,0.08577883,1.106972,1.578556,0.865147,-0.493471,1.747446,0.959926
101,1444477978,-7.0515137,11.934151,7.180744,0.60694504,0.96423054,0.44201714,-0.02381736,0.9022798,0.11750531,1.117088,1.594627,0.872514,-0.493868,1.762484,0.961884
102,1444494645,-7.070198,11.9459305,7.1606445,0.6088362,0.96404487,0.44220105,-0.03578043,0.87019116,0.14425206,1.127235,1.610694,0.879884,-0.494464,1.776987,0.964288
103,1444511312,-7.1374817,11.957428,7.082447,0.6095362,0.9642536,0.44177207,-0.04185611,0.84792155,0.16560447,1.137394,1.626765,0.887247,-0.495162,1.791119,0.967048
104,1444527979,-7.208061,11.969009,6.998413,0.60976315,0.9647158,0.44118857,-0.051133692,0.8368819,0.18488383,1.147557,1.642844,0.8946,-0.496014,1.805067,0.970129
105,1444544646,-7.3042145,11.980515,6.883026,0.6090698,0.96550965,0.4402166,-0.059408784,0.8381143,0.19972622,1.157708,1.658936,0.901937,-0.497004,1.819036,0.973458
106,1444561313,-7.387253,11.992508,6.7798347,0.60859966,0.96659493,0.43919253,-0.07771206,0.85049486,0.21626031,1.167851,1.675046,0.909257,-0.498299,1.833211,0.977062
107,1444577980,-7.4536667,12.00502,6.6928864,0.6084156,0.9679755,0.43814015,-0.10729805,0.8749206,0.23468184,1.177991,1.691179,0.916559,-0.500087,1.847793,0.980973
108,1444594647,-7.542534,12.0177,6.57782,0.6075516,0.9697505,0.4366751,-0.13935232,0.91339445,0.24982059,1.188117,1.707342,0.923837,-0.50241,1.863016,0.985137
109,1444611314,-7.646019,12.030624,6.4434204,0.60624695,0.971925,0.43485504,-0.17658648,0.96636647,0.2628678,1.198221,1.723541,0.931085,-0.505353,1.879122,0.989518
110,1444627981,-7.744667,12.042801,6.322464,0.60560036,0.9734418,0.4337409,-0.2063244,1.0018971,0.272573,1.208314,1.739765,0.938314,-0.508792,1.89582,0.994061
111,1444644648,-7.842819,12.0540695,6.211067,0.6055937,0.9742226,0.43336797,-0.22639105,1.0175589,0.27804446,1.218407,1.756002,0.945537,-0.512565,1.912779,0.998695
112,1444661315,-7.9454956,12.065063,6.098465,0.6058569,0.9747817,0.43325657,-0.24479958,1.0292429,0.2805357,1.228505,1.772248,0.952758,-0.516645,1.929933,1.003371
113,1444677982,-8.049866,12.075455,5.9909363,0.6066599,0.97483087,0.433678,-0.25770035,1.0282543,0.2793709,1.238616,1.788495,0.959986,-0.52094,1.947071,1.008027
114,1444694649,-8.178116,12.085808,5.8572235,0.60711,0.97502315,0.43390048,-0.27061993,1.0345418,0.27371013,1.248735,1.804745,0.967218,-0.52545,1.964313,1.012589
115,1444711316,-8.332504,12.096161,5.694481,0.6071644,0.9754023,0.43387035,-0.28408116,1.0495496,0.2633927,1.258854,1.821002,0.974449,-0.530185,1.981805,1.016979
116,1444727983,-8.500969,12.105988,5.5222588,0.60749245,0.97539186,0.43417814,-0.2918305,1.0558181,0.24804974,1.268979,1.837259,0.981685,-0.535049,1.999402,1.021113
117,1444744650,-8.689644,12.115387,5.332447,0.6079025,0.9751277,0.43466112,-0.29489687,1.0575739,0.22728455,1.279111,1.853511,0.988929,-0.539964,2.017028,1.024901
118,1444761317,-8.86129,12.124863,5.159752,0.6081734,0.9750216,0.4346963,-0.30092838,1.0613918,0.21770251,1.289247,1.869761,0.996174,-0.544979,2.034718,1.028529
119,1444777984,-9.012245,12.134354,5.0084724,0.6083574,0.97503364,0.43429002,-0.30956775,1.0655241,0.22067559,1.299386,1.886012,1.003412,-0.550138,2.052477,1.032207
120,1444794651,-9.165718,12.143715,4.8553753,0.60842514,0.9750532,0.4336208,-0.3176328,1.0695355,0.22790837,1.309526,1.902263,1.010639,-0.555432,2.070303,1.036005
121,1444811318,-9.311829,12.153038,4.709902,0.6083307,0.97516805,0.4325283,-0.32678664,1.0744244,0.24397242,1.319665,1.918516,1.017848,-0.560878,2.08821,1.040071
122,1444827985,-9.471077,12.161903,4.5549717,0.60837364,0.97498447,0.43151325,-0.33075464,1.071781,0.25890934,1.329805,1.934766,1.02504,-0.566391,2.106073,1.044386
123,1444844652,-9.646324,12.170265,4.3878803,0.60855484,0.9744791,0.4305862,-0.32892972,1.0611067,0.27203548,1.339948,1.951007,1.032216,-0.571873,2.123758,1.04892
124,1444861319,-9.819305,12.178452,4.2249184,0.60868835,0.9739129,0.42935643,-0.32562718,1.0470829,0.29231024,1.350093,1.967239,1.039372,-0.5773,2.141209,1.053792
125,1444877986,-9.995064,12.186302,4.061846,0.6088371,0.9731931,0.42792296,-0.3192599,1.0275923,0.3176806,1.36024,1.983459,1.046504,-0.582621,2.158336,1.059087
126,1444894653,-10.166519,12.194328,3.8986702,0.6088257,0.9728923,0.42651644,-0.31473696,1.0150428,0.3327186,1.370387,1.999674,1.053613,-0.587867,2.175253,1.064632
127,1444911320,-10.330795,12.202568,3.7374306,0.6086159,0.97308874,0.42510793,-0.31284195,1.0107955,0.33714974,1.380531,2.015892,1.060698,-0.593081,2.1921,1.070251
128,1444927987,-10.494942,12.210747,3.5750847,0.6083374,0.973441,0.42364952,-0.3099634,1.0072004,0.33697355,1.39067,2.032116,1.067759,-0.598247,2.208887,1.075867
129,1444944654,-10.656303,12.218971,3.4122925,0.6079397,0.97411513,0.42218912,-0.30748165,1.0076323,0.32822585,1.400802,2.048351,1.074795,-0.603372,2.225681,1.081337
130,1444961321,-10.815201,12.22702,3.2523708,0.6074724,0.9748369,0.42047876,-0.3033101,1.0056846,0.32221222,1.410927,2.064598,1.081803,-0.608427,2.242442,1.086707
131,1444977988,-10.972031,12.234917,3.0952854,0.6069441,0.97558063,0.41850546,-0.2970435,1.0005379,0.31950676,1.421043,2.080858,1.088778,-0.613378,2.259118,1.092032
132,1444994655,-11.124008,12.242844,2.940178,0.6062803,0.9766302,0.41642755,-0.2908702,0.9982141,0.3110963,1.431148,2.097135,1.095718,-0.618226,2.275755,1.097217
133,1445011322,-11.2710495,12.250778,2.7878952,0.6054945,0.977931,0.41418648,-0.284262,0.9972226,0.29937172,1.44124,2.113434,1.102621,-0.622964,2.292375,1.102207
134,1445027989,-11.427147,12.257904,2.6299763,0.60508156,0.9787914,0.412587,-0.27712676,0.9960385,0.29225755,1.451325,2.129747,1.109497,-0.627583,2.308976,1.107078
135,1445044656,-11.592911,12.264175,2.4657917,0.6050768,0.9791877,0.4117224,-0.26974946,0.9953075,0.28942978,1.46141,2.146067,1.116359,-0.632079,2.325564,1.111902
136,1445061323,-11.761383,12.2699585,2.3001423,0.60525227,0.97941554,0.4111696,-0.26180243,0.9947349,0.2887522,1.471498,2.162391,1.123212,-0.636442,2.342143,1.116715
137,1445077990,-11.936111,12.275009,2.1308231,0.6057415,0.979295,0.41116154,-0.25336435,0.99416196,0.29215515,1.481594,2.178713,1.130065,-0.640665,2.358712,1.121584
138,1445094657,-12.108086,12.279861,1.962698,0.60624313,0.9793028,0.4112701,-0.24492687,0.9958411,0.29269683,1.491698,2.195035,1.13692,-0.644747,2.375309,1.126462
139,1445111324,-12.276466,12.284531,1.7963219,0.60674095,0.9794674,0.41146964,-0.23650649,0.9998606,0.2901491,1.50181,2.211359,1.143778,-0.648689,2.391973,1.131298
140,1445127991,-12.448708,12.288559,1.6274757,0.6075058,0.97939795,0.41218373,-0.22797048,1.0050659,0.28959572,1.511935,2.227682,1.150648,-0.652489,2.408724,1.136125
141,1445144658,-12.622696,12.292084,1.4573116,0.6084795,0.97919613,0.4133319,-0.2194562,1.0120138,0.28956997,1.522076,2.244002,1.157537,-0.656147,2.425591,1.140951
142,1445161325,-12.78508,12.295967,1.3005676,0.6089363,0.9793028,0.4136644,-0.21130392,1.0118631,0.2897333,1.532225,2.260324,1.164431,-0.659669,2.442455,1.14578
143,1445177992,-12.935356,12.300247,1.1582623,0.60884094,0.979713,0.41312438,-0.20359051,1.0037014,0.29063082,1.542372,2.276653,1.171316,-0.663062,2.459183,1.150624
144,1445194659,-13.078255,12.304573,1.0243225,0.6085005,0.9802868,0.41225892,-0.196298,0.99214995,0.29141986,1.552514,2.292991,1.178187,-0.666334,2.475719,1.155481
145,1445211326,-13.210159,12.309143,0.90288925,0.6077194,0.9811352,0.41073728,-0.18957025,0.97470737,0.29216158,1.562643,2.309343,1.185033,-0.669494,2.491964,1.16035
146,1445227993,-13.340401,12.3133545,0.78460884,0.6069937,0.98190296,0.4094041,-0.18323252,0.95625544,0.29441214,1.57276,2.325708,1.191856,-0.672548,2.507902,1.165257
147,1445244660,-13.469177,12.317162,0.66921806,0.60635185,0.98257744,0.4083087,-0.17734718,0.93712544,0.2981546,1.582866,2.342084,1.198661,-0.675504,2.523521,1.170226
148,1445261327,-13.5885315,12.321075,0.56515884,0.6053724,0.98343074,0.40674552,-0.17217186,0.9126624,0.30271637,1.592956,2.358475,1.20544,-0.678374,2.538732,1.175271
149,1445277994,-13.700211,12.324974,0.4707222,0.6041603,0.98438907,0.4048919,-0.16772634,0.8838314,0.3084582,1.603025,2.374881,1.212188,-0.681169,2.553463,1.180412
150,1445294661,-13.81321,12.328331,0.37265968,0.60354996,0.98527145,0.40325403,-0.1620746,0.8646705,0.3100804,1.613084,2.391302,1.218909,-0.68387,2.567874,1.18558
151,1445311328,-13.927216,12.331154,0.2709942,0.60357094,0.9860929,0.40178937,-0.15510395,0.8558837,0.30705404,1.623144,2.407737,1.225605,-0.686455,2.582139,1.190698
152,1445327995,-14.038933,12.333595,0.17109299,0.6038923,0.9868896,0.40037373,-0.14778942,0.8514184,0.3021698,1.633209,2.424185,1.232278,-0.688918,2.596329,1.195734
153,1445344662,-14.150444,12.335533,0.06972122,0.6047373,0.9876197,0.39912033,-0.13962454,0.85503817,0.29394138,1.643288,2.440645,1.23893,-0.691245,2.61058,1.200633
154,1445361329,-14.254135,12.337425,-0.022853851,0.60551167,0.98846173,0.39754915,-0.13187963,0.85735875,0.28527308,1.65338,2.457119,1.245556,-0.693443,2.624869,1.205388
155,1445377996,-14.349472,12.339272,-0.10590744,0.6061859,0.9894212,0.39563856,-0.12466511,0.8578939,0.27637517,1.663483,2.473609,1.25215,-0.695521,2.639167,1.209994
156,1445394663,-14.441856,12.340736,-0.18717575,0.607255,0.9903745,0.39371657,-0.11692551,0.864603,0.2644893,1.673604,2.490115,1.258712,-0.69747,2.653577,1.214402
157,1445411330,-14.529533,12.341934,-0.26430893,0.6085949,0.9913605,0.3916751,-0.1089485,0.87556654,0.25019884,1.683747,2.506638,1.26524,-0.699286,2.66817,1.218572
158,1445427997,-14.607567,12.342842,-0.3394127,0.60917664,0.9921918,0.39011645,-0.09772873,0.8732636,0.23970902,1.6939,2.523175,1.271742,-0.700915,2.682724,1.222567
159,1445444664,-14.675919,12.34346,-0.41349983,0.60895824,0.99283695,0.38913214,-0.08282989,0.8570079,0.2332263,1.704049,2.539722,1.278228,-0.702295,2.697007,1.226454
160,1445461331,-14.735535,12.343803,-0.48386192,0.6083517,0.99341094,0.38835928,-0.06585693,0.83382726,0.22816706,1.714188,2.556279,1.284701,-0.703393,2.710904,1.230257
161,1445477998,-14.785027,12.34388,-0.5512886,0.60707855,0.9938568,0.38797683,-0.045895755,0.79904664,0.2261523,1.724306,2.572843,1.291167,-0.704158,2.724221,1.234026
162,1445494665,-14.828369,12.34362,-0.6163349,0.60586834,0.99424994,0.38771698,-0.024415314,0.76492345,0.2228446,1.734404,2.589414,1.297629,-0.704565,2.73697,1.23774
163,1445511332,-14.86544,12.343025,-0.67879295,0.60475063,0.99459654,0.38755655,-0.0014759302,0.7319944,0.21800625,1.744483,2.605991,1.304088,-0.70459,2.74917,1.241373
164,1445527999,-14.892906,12.342102,-0.7390957,0.60312176,0.99480677,0.38779086,0.024507523,0.6900587,0.21518815,1.754535,2.622571,1.310551,-0.704182,2.760671,1.244959
165,1445544666,-14.911415,12.340858,-0.7973671,0.6011305,0.99489325,0.38837013,0.053293467,0.64159864,0.21347678,1.764554,2.639153,1.317024,-0.703294,2.771364,1.248517
166,1445561333,-14.864075,12.340256,-0.7774143,0.6000538,0.99479914,0.38938618,0.083568394,0.5889329,0.21256089,1.774555,2.655733,1.323514,-0.701901,2.78118,1.25206
167,1445578000,-14.744446,12.340378,-0.67157745,0.59993935,0.9945009,0.39090198,0.1155017,0.5308767,0.21287334,1.784554,2.672308,1.330029,-0.699976,2.790028,1.255608
168,1445594667,-14.579346,12.34079,-0.5156307,0.600276,0.99402815,0.39285493,0.149643,0.46784437,0.2139728,1.794559,2.688875,1.336577,-0.697482,2.797825,1.259174
169,1445611334,-14.351967,12.341728,-0.28750038,0.601408,0.9933553,0.395298,0.18576556,0.39996815,0.21593142,1.804582,2.705431,1.343165,-0.694386,2.804491,1.262773
170,1445628001,-14.09362,12.342667,-0.030887604,0.6024275,0.9924856,0.39826873,0.2251581,0.32301414,0.21988213,1.814622,2.721972,1.349803,-0.690633,2.809875,1.266438
171,1445644668,-13.805191,12.343567,0.25260925,0.60329723,0.991412,0.40178654,0.26798582,0.23668367,0.22587919,1.824677,2.738496,1.356499,-0.686167,2.81382,1.270203
172,1445661335,-13.455383,12.344948,0.6049843,0.60476303,0.9901034,0.40589717,0.313497,0.14294308,0.23349357,1.834756,2.754998,1.363264,-0.680942,2.816202,1.274095
173,1445678002,-13.049454,12.346733,1.0183983,0.6066456,0.9885523,0.4106294,0.36205977,0.040641725,0.24303353,1.844867,2.771474,1.370108,-0.674908,2.816879,1.278146
174,1445694669,-12.679596,12.347717,1.3892403,0.60785866,0.9878079,0.41462538,0.3953625,-0.026410818,0.2489562,1.854998,2.787937,1.377018,-0.668319,2.816439,1.282295
175,1445711336,-12.349541,12.347855,1.7140808,0.60840034,0.9879652,0.4177755,0.41152668,-0.053822994,0.2507484,1.865138,2.804403,1.383981,-0.66146,2.815542,1.286474
176,1445728003,-12.018013,12.347664,2.0380154,0.60866165,0.9885194,0.42075726,0.41945648,-0.06316292,0.25130236,1.875282,2.820878,1.390994,-0.654469,2.814489,1.290662
177,1445744670,-11.70903,12.346848,2.334278,0.608366,0.9897666,0.42319798,0.41387355,-0.0418998,0.2490809,1.885421,2.837374,1.398047,-0.647571,2.813791,1.294813
178,1445761337,-11.359291,12.346237,2.6756744,0.6083431,0.9910847,0.4259211,0.40521145,-0.0149921775,0.24725354,1.89556,2.853892,1.405146,-0.640817,2.813541,1.298934
179,1445778004,-10.964584,12.345894,3.0669327,0.6086321,0.9924413,0.42898405,0.393947,0.016284823,0.24605787,1.905704,2.870433,1.412296,-0.634251,2.813812,1.303035
180,1445794671,-10.576767,12.345154,3.449215,0.6085806,0.99441177,0.43165162,0.37008452,0.07567561,0.242571,1.915847,2.887007,1.41949,-0.628083,2.815073,1.307078
181,1445811338,-10.182098,12.344154,3.8383694,0.6083689,0.996876,0.43409497,0.33555305,0.15846664,0.23744678,1.925986,2.903622,1.426725,-0.62249,2.817714,1.311035
182,1445828005,-9.836937,12.343048,4.174774,0.6081972,0.99850595,0.43601578,0.30880338,0.21724218,0.23511136,1.936123,2.920264,1.433992,-0.617343,2.821335,1.314954
183,1445844672,-9.553612,12.341736,4.445032,0.60800457,0.9992566,0.43727717,0.2900505,0.25104076,0.23558342,1.946256,2.936918,1.44128,-0.612509,2.825519,1.31888
184,1445861339,-9.296608,12.340294,4.6876965,0.6078148,0.99968594,0.43812117,0.27155614,0.27974582,0.23717427,1.956386,2.953579,1.448582,-0.607983,2.830181,1.322833
185,1445878006,-9.08448,12.338715,4.883093,0.6076584,0.9994475,0.43841875,0.25791496,0.29132754,0.24099302,1.966514,2.970236,1.455889,-0.603684,2.835036,1.32685
186,1445894673,-8.898262,12.336792,5.050354,0.6072483,0.9994732,0.4381392,0.23544425,0.32018483,0.24370039,1.976635,2.986894,1.463191,-0.59976,2.840372,1.330912
187,1445911340,-8.737129,12.334518,5.1904297,0.606575,0.999816,0.43726754,0.20319337,0.3685351,0.24511218,1.986745,3.003558,1.470479,-0.596373,2.846514,1.334997
188,1445928007,-8.628517,12.332001,5.2748566,0.60580635,0.9997148,0.4356793,0.17175013,0.40919656,0.2478205,1.996842,3.02022,1.47774,-0.59351,2.853334,1.339127
189,1445944674,-8.570297,12.32917,5.30571,0.6048708,0.99936736,0.43333852,0.1380322,0.4497397,0.25110042,2.006923,3.036876,1.484962,-0.591209,2.86083,1.343312
190,1445961341,-8.484467,12.326332,5.370056,0.6045027,0.99920785,0.4322633,0.10695261,0.48908886,0.25451028,2.016998,3.053529,1.492166,-0.589426,2.868981,1.347554
191,1445978008,-8.369453,12.323547,5.4701004,0.60477924,0.9991825,0.4326052,0.0801878,0.5239222,0.25831008,2.027078,3.070182,1.499376,-0.58809,2.877713,1.351859
192,1445994675,-8.263023,12.320587,5.5636864,0.6053095,0.9992167,0.43335974,0.053236127,0.5599717,0.26221013,2.037166,3.086836,1.506599,-0.587203,2.887046,1.356229
193,1446011342,-8.146172,12.317551,5.6722755,0.60630035,0.99940276,0.43507487,0.0278278,0.5959791,0.26617122,2.047271,3.103493,1.51385,-0.586739,2.896979,1.360665
194,1446028009,-8.073982,12.314285,5.7352104,0.6073675,0.99929,0.43651417,0.003668785,0.62578833,0.27110827,2.057394,3.120148,1.521125,-0.586678,2.907409,1.365183
195,1446044676,-8.051788,12.310745,5.7467613,0.6084814,0.99886125,0.43758792,-0.01947105,0.6495046,0.2770239,2.067535,3.136796,1.528418,-0.587003,2.918234,1.3698
196,1446061343,-8.037224,12.307098,5.7542305,0.6100216,0.99841225,0.439386,-0.039800286,0.66875446,0.28345442,2.077702,3.153436,1.535741,-0.587666,2.92938,1.374524
197,1446078010,-8.04351,12.303307,5.7431717,0.6119127,0.99784154,0.44164753,-0.05726874,0.6819791,0.29060853,2.087901,3.170067,1.543102,-0.58862,2.940746,1.379367
198,1446094677,-8.074379,12.299599,5.706745,0.6128454,0.9976306,0.44292074,-0.07970035,0.70864004,0.29681516,2.098115,3.186694,1.550484,-0.589948,2.952557,1.384314
199,1446111344,-8.126114,12.296036,5.649025,0.61275005,0.9978534,0.4432093,-0.10737926,0.75031275,0.30189168,2.108328,3.203325,1.557871,-0.591738,2.965062,1.389346
200,1446128011,-8.207169,12.292496,5.562313,0.6121969,0.9982072,0.44303042,-0.13638309,0.79637194,0.30679238,2.118531,3.219962,1.565255,-0.594011,2.978335,1.394459
201,1446144678,-8.31794,12.289009,5.445553,0.6108351,0.9988337,0.44201997,-0.1686643,0.8520143,0.3110516,2.128712,3.236609,1.572622,-0.596822,2.992535,1.399643
202,1446161345,-8.447723,12.285484,5.3126183,0.609519,0.9995261,0.44130033,-0.19908556,0.9061226,0.31552577,2.138871,3.253268,1.579977,-0.60014,3.007637,1.404902
203,1446178012,-8.597832,12.281929,5.1623535,0.60829544,1.0002624,0.44092467,-0.22714353,0.957606,0.32029688,2.149009,3.269939,1.587326,-0.603926,3.023597,1.41024
204,1446194679,-8.774246,12.278442,4.986765,0.60642624,1.0012716,0.44002643,-0.256968,1.0163883,0.3245337,2.159116,3.286627,1.59466,-0.608209,3.040537,1.415649
205,1446211346,-8.975327,12.27504,4.788204,0.6040888,1.0025134,0.43884504,-0.2873445,1.0799867,0.32841623,2.169184,3.303336,1.601974,-0.612998,3.058537,1.421123
206,1446228013,-9.189995,12.271103,4.572796,0.60280323,1.0034502,0.4378389,-0.31121117,1.1300168,0.3309164,2.179231,3.32006,1.609271,-0.618185,3.077371,1.426638
207,1446244680,-9.4179,12.266617,4.340214,0.6026268,1.0040671,0.43695098,-0.32828486,1.1659061,0.33180118,2.189275,3.336794,1.616554,-0.623656,3.096803,1.432168
208,1446261347,-9.663483,12.261848,4.0889626,0.60294724,1.0045968,0.4361283,-0.34096742,1.1946062,0.33165586,2.199324,3.353537,1.623823,-0.629339,3.116713,1.437696
209,1446278014,-9.923828,12.25663,3.82053,0.604167,1.0049024,0.43547255,-0.34730613,1.2112311,0.33012712,2.209393,3.370285,1.631081,-0.635127,3.1369,1.443198
210,1446294681,-10.207947,12.251373,3.5283337,0.6052065,1.0053573,0.43449342,-0.35223126,1.2287275,0.32758057,2.21948,3.387041,1.638323,-0.640998,3.157379,1.448658
211,1446311348,-10.516327,12.246071,3.2121067,0.6060114,1.0059866,0.433181,-0.3557979,1.2475663,0.32400548,2.22958,3.403807,1.645543,-0.646928,3.178172,1.454058
212,1446328015,-10.842003,12.240402,2.876358,0.6074734,1.0064888,0.43186226,-0.35375953,1.2569945,0.31886816,2.239705,3.420582,1.652741,-0.652824,3.199122,1.459372
213,1446344682,-11.18692,12.234436,2.5196114,0.60937214,1.0069458,0.43043226,-0.34700486,1.2595835,0.3121934,2.249861,3.437364,1.659915,-0.658607,3.220115,1.464575
214,1446361349,-11.53965,12.228416,2.1575737,0.6104088,1.0073311,0.4285888,-0.35149318,1.2769953,0.30832112,2.260034,3.454153,1.667058,-0.664465,3.241398,1.469714
215,1446378016,-11.898201,12.222328,1.7922745,0.61057186,1.0076053,0.42633232,-0.3681845,1.3099291,0.3075614,2.27021,3.470946,1.674164,-0.670601,3.26323,1.47484
216,1446394683,-12.269249,12.216095,1.4152946,0.6103296,1.0078362,0.42372835,-0.3900465,1.3497705,0.3078382,2.280382,3.487743,1.681226,-0.677102,3.285726,1.479971
217,1446411350,-12.649223,12.209778,1.0312538,0.6093483,1.0080049,0.4206943,-0.42142406,1.4022312,0.3103342,2.290538,3.504543,1.688238,-0.684126,3.309097,1.485143
218,1446428017,-13.042885,12.2031555,0.6322632,0.6086159,1.00805,0.4174883,-0.45179713,1.4517701,0.3123392,2.300682,3.521344,1.695196,-0.691656,3.333293,1.490349
219,1446444684,-13.45047,12.196205,0.2178688,0.60817814,1.0079715,0.41410834,-0.48063076,1.497659,0.31368005,2.310818,3.538144,1.702098,-0.699667,3.358254,1.495577
220,1446461351,-13.866249,12.189102,-0.20375443,0.6072521,1.0077785,0.4103486,-0.5169879,1.5525951,0.31673896,2.320939,3.55494,1.708937,-0.708283,3.384131,1.500856
221,1446478018,-14.290924,12.181778,-0.63401604,0.6060457,1.0074539,0.40625542,-0.5587429,1.6133698,0.32095575,2.33104,3.571731,1.715708,-0.717595,3.41102,1.506205
222,1446494685,-14.711739,12.173958,-1.057621,0.6048012,1.0075469,0.40340218,-0.5733675,1.6549075,0.31756628,2.34112,3.588523,1.722431,-0.727151,3.438602,1.511498
223,1446511352,-15.126183,12.165657,-1.4715195,0.60344315,1.008107,0.4019193,-0.5588207,1.6763284,0.30600977,2.351177,3.605325,1.72913,-0.736465,3.466541,1.516598
224,1446528019,-15.540283,12.156937,-1.8834152,0.60199356,1.0088589,0.40109503,-0.5290554,1.687341,0.29004657,2.36121,3.622139,1.735815,-0.745283,3.494663,1.521432
225,1446544686,-15.949661,12.147728,-2.2881413,0.60048866,1.009956,0.4013742,-0.47511408,1.6812556,0.2672571,2.371218,3.638972,1.742505,-0.753202,3.522684,1.525886
226,1446561353,-16.359642,12.138222,-2.6918507,0.59857845,1.0110793,0.40178797,-0.41819093,1.6759396,0.24331367,2.381194,3.655823,1.749201,-0.760172,3.550616,1.529941
227,1446578020,-16.769882,12.128395,-3.0942554,0.59625053,1.0122087,0.40229654,-0.35918197,1.6721019,0.2184509,2.391132,3.672693,1.755906,-0.766158,3.578484,1.533582
228,1446594687,-17.173264,12.118111,-3.487091,0.5937004,1.0136383,0.40378454,-0.27954593,1.6549628,0.1876818,2.401027,3.689587,1.762636,-0.770817,3.606067,1.53671
229,1446611354,-17.570145,12.107376,-3.8708344,0.59084415,1.0153043,0.4060688,-0.18342328,1.6281134,0.15210843,2.410874,3.706509,1.769404,-0.773874,3.633202,1.539245
230,1446628021,-17.936272,12.094566,-4.2223206,0.58880424,1.0169171,0.40410727,-0.12547138,1.5790262,0.08666301,2.420687,3.723458,1.776139,-0.775965,3.659519,1.540689
231,1446644688,-18.267326,12.079475,-4.5371056,0.58770466,1.0184922,0.39752302,-0.108513564,1.504343,-0.011995196,2.430482,3.740433,1.782764,-0.777774,3.684591,1.540489
232,1446661355,-18.573997,12.062904,-4.8253345,0.5869484,1.0201296,0.3885806,-0.10928789,1.4120715,-0.13155067,2.440264,3.757435,1.78924,-0.779595,3.708126,1.538296
233,1446678022,-18.848137,12.044312,-5.0790424,0.5868559,1.0217643,0.37587422,-0.14254493,1.2977688,-0.27962804,2.450045,3.774464,1.795505,-0.781971,3.729755,1.533636
234,1446694689,-19.100487,12.024643,-5.3078957,0.5868206,1.0236468,0.36256075,-0.17149732,1.164343,-0.44337976,2.459825,3.791525,1.801548,-0.784829,3.749161,1.526246
235,1446711356,-19.330307,12.00386,-5.510994,0.5868025,1.0257943,0.3487817,-0.19437069,1.011653,-0.622528,2.469605,3.808622,1.807361,-0.788069,3.766022,1.515871
236,1446728023,-19.523964,11.981094,-5.6753197,0.58738804,1.0280328,0.3317063,-0.24243873,0.8337712,-0.8306662,2.479395,3.825756,1.812889,-0.79211,3.779918,1.502027
237,1446744690,-19.682266,11.956474,-5.8013554,0.588459,1.0304214,0.3119455,-0.30825958,0.63061905,-1.0657789,2.489203,3.84293,1.818088,-0.797248,3.790428,1.484264
238,1446761357,-19.289482,11.929825,-5.393524,0.5886364,1.0294942,0.30112934,-0.23915774,0.25415152,-1.299829,2.499014,3.860088,1.823107,-0.801234,3.794664,1.4626
239,1446778024,-18.289124,11.900932,-4.397394,0.5878773,1.0248799,0.30001533,-0.02387178,-0.31258523,-1.5325848,2.508812,3.877169,1.828107,-0.801632,3.789454,1.437057
240,1446794691,-16.921127,11.869949,-3.043167,0.5867624,1.018245,0.30349293,0.27066314,-1.0013434,-1.7767098,2.518591,3.89414,1.833165,-0.797121,3.772765,1.407445
241,1446811358,-15.033234,11.836708,-1.1843948,0.58493423,1.0085793,0.31476125,0.68718374,-1.8563317,-2.0254114,2.52834,3.91095,1.838411,-0.785668,3.741826,1.373688
242,1446828025,-12.914459,11.801033,0.9014435,0.5833521,0.9978293,0.32631686,1.129431,-2.79558,-2.2995186,2.538063,3.92758,1.84385,-0.766844,3.695233,1.335363
243,1446844692,-10.572487,11.762825,3.2071838,0.58207417,0.9860703,0.33781213,1.5935978,-3.817484,-2.6008463,2.547764,3.944015,1.84948,-0.740284,3.631608,1.292016
244,1446861359,-7.7217407,11.722015,6.0073586,0.5803137,0.97140473,0.35582548,2.1661081,-5.0043488,-2.913649,2.557436,3.960205,1.85541,-0.704182,3.548202,1.243455
245,1446878026,-4.411339,11.678505,9.254967,0.5782747,0.9541802,0.37887645,2.828629,-6.342753,-3.2428758,2.567074,3.976108,1.861725,-0.657038,3.442489,1.189407
246,1446894693,-1.330307,11.613342,12.272282,0.5779457,0.94363326,0.39918596,3.2841444,-7.490491,-3.5861444,2.576706,3.991835,1.868378,-0.602302,3.317647,1.129638
247,1446911360,1.502243,11.5245285,15.039486,0.57943535,0.9403835,0.4169398,3.5157123,-8.427719,-3.9416952,2.586363,4.007508,1.875327,-0.543707,3.177185,1.063943
248,1446928027,4.3910065,11.420746,17.856983,0.58194256,0.9402576,0.43494457,3.6526809,-9.310337,-4.314413,2.596062,4.023179,1.882576,-0.482829,3.022013,0.992036
249,1446944694,7.1607666,11.296387,20.551956,0.58601284,0.9457886,0.45134318,3.6144748,-10.046385,-4.7033563,2.605829,4.038942,1.890098,-0.422588,2.854573,0.913647
250,1446961361,10.301804,11.162132,23.604805,0.5902996,0.9510792,0.4725189,3.5974479,-10.860094,-5.106582,2.615667,4.054793,1.897973,-0.362631,2.673571,0.828537
251,1446978028,13.84935,11.018234,27.049824,0.594759,0.955824,0.4988661,3.6113906,-11.764949,-5.524646,2.62558,4.070723,1.906287,-0.302441,2.477489,0.73646
252,1446994695,17.413612,10.854195,30.50394,0.6005478,0.96519685,0.52571255,3.4876556,-12.569483,-5.9577365,2.635589,4.08681,1.915049,-0.244313,2.267998,0.637164
253,1447011362,21.104156,10.671806,34.07419,0.6074047,0.97801733,0.5545089,3.2658834,-13.320397,-6.4056015,2.645712,4.10311,1.924291,-0.189882,2.045991,0.530404
254,1447028029,24.090027,10.475739,37.025745,0.6135273,0.9706938,0.59663177,3.416123,-13.780369,-6.839393,2.655937,4.119288,1.934235,-0.132947,1.816318,0.416414
255,1447044696,26.240349,10.264557,39.23805,0.6189022,0.94156325,0.6527859,3.9624705,-13.898475,-7.2560763,2.666252,4.134981,1.945115,-0.066906,1.584677,0.295479
256,1447061363,28.020267,10.03669,41.12926,0.62423134,0.9009756,0.7187255,4.708573,-13.814525,-7.6689763,2.676656,4.149997,1.957094,0.01157,1.354435,0.167663
257,1447078030,29.174786,9.792572,42.472248,0.6290617,0.8423703,0.7976761,5.781745,-13.449386,-8.069624,2.68714,4.164037,1.970389,0.107932,1.130279,0.033169
258,1447094697,30.08487,9.525986,43.59418,0.6347742,0.78073543,0.8820466,6.864908,-12.886521,-8.474838,2.69772,4.177049,1.98509,0.222347,0.915504,-0.108078
259,1447111364,30.768879,9.236015,44.511044,0.6414509,0.7167015,0.9717358,7.9440246,-12.126297,-8.885122,2.708411,4.188994,2.001286,0.354747,0.713399,-0.256163
260,1447128031,30.798866,8.92556,44.847195,0.6480255,0.6369251,1.0735049,9.289384,-11.049598,-9.284263,2.719211,4.199609,2.019178,0.50957,0.529239,-0.410901
261,1447144698,30.236458,8.592674,44.654507,0.65480137,0.5442984,1.1860093,10.837645,-9.664164,-9.675204,2.730124,4.208681,2.038945,0.690197,0.36817,-0.572154
262,1447161365,30.785042,8.336121,45.084225,0.6908417,0.46902955,1.2637529,11.871675,-8.394052,-9.714996,2.741638,4.216498,2.060008,0.888058,0.228269,-0.734071
263,1447178032,32.535805,8.16571,46.17973,0.7590189,0.41216087,1.3031793,12.356764,-7.2538996,-9.365491,2.754288,4.223367,2.081728,1.094004,0.107371,-0.890163
264,1447194699,34.70621,8.033325,47.41225,0.84595585,0.36111438,1.3249508,12.591208,-6.037672,-8.788164,2.768387,4.229386,2.103811,1.303857,0.006743,-1.036632
265,1447211366,37.74874,7.9672318,49.07771,0.9600849,0.32380295,1.3163319,12.381678,-4.851914,-7.8817363,2.784388,4.234783,2.12575,1.510218,-0.074122,-1.167994
266,1447228033,40.543407,7.9106827,50.3886,1.0845137,0.27892125,1.3055892,12.216788,-3.4058642,-6.8370824,2.802463,4.239432,2.14751,1.713831,-0.130886,-1.281945
267,1447244700,43.01749,7.8608932,51.28616,1.2186918,0.22530627,1.2940058,12.118718,-1.6731921,-5.6596622,2.822775,4.243187,2.169077,1.91581,-0.158773,-1.376273
268,1447261367,46.117577,7.8717117,52.40971,1.378787,0.18036723,1.2560856,11.674059,0.114916146,-4.1603336,2.845755,4.246193,2.190012,2.110378,-0.156858,-1.445612
269,1447278034,49.606003,7.9324646,53.58405,1.5617933,0.13961554,1.1972859,10.981188,2.026407,-2.3716667,2.871785,4.24852,2.209967,2.293398,-0.123085,-1.48514
270,1447294701,48.776295,8.04068,51.976917,1.57584,0.13411903,1.2113738,9.718222,5.920373,-0.027318478,2.898049,4.250755,2.230157,2.455368,-0.024412,-1.485595
271,1447311368,43.270866,8.205002,47.373615,1.4039793,0.16934931,1.3040147,7.7931037,11.963235,2.9343977,2.921449,4.253577,2.251891,2.585253,0.174975,-1.436688
272,1447328035,35.137886,8.421478,40.977047,1.1346302,0.22789478,1.4342632,5.4145355,19.335983,6.3773913,2.94036,4.257375,2.275795,2.675495,0.497241,-1.330398
273,1447344702,23.052032,8.693428,31.985386,0.7132273,0.3195994,1.6277114,2.4656577,28.574263,10.39611,2.952247,4.262702,2.302924,2.716589,0.973479,-1.15713
274,1447361369,9.957375,9.038864,22.175484,0.25479412,0.43136775,1.8230438,-0.9880177,38.56344,14.901569,2.956494,4.269891,2.333308,2.700122,1.616203,-0.908771
275,1447378036,-4.0403976,9.460815,11.600735,-0.23590755,0.5628295,2.0173104,-4.95204,49.272007,19.903101,2.952562,4.279271,2.36693,2.617588,2.437403,-0.577053
276,1447394703,-21.60765,9.955742,-1.3547325,-0.86560917,0.72990716,2.263658,-9.578169,61.747784,25.54241,2.938135,4.291436,2.404658,2.457952,3.466533,-0.151346
277,1447411370,-42.19303,10.530212,-16.364853,-1.6127958,0.9308047,2.549838,-14.872175,75.792366,31.818764,2.911255,4.306949,2.447155,2.210082,4.729739,0.378967
278,1447428037,-47.354546,10.528328,-28.857439,-2.024804,0.9805274,2.60738,-14.79308,85.77696,36.155704,2.877508,4.323291,2.490611,1.963531,6.159355,0.981562
279,1447444704,-35.623123,9.885468,-38.627075,-2.0725117,0.8634621,2.4164472,-8.765226,91.30176,38.32782,2.842966,4.337682,2.530885,1.817444,7.681051,1.620359
280,1447461371,-15.3446045,8.9157715,-47.65594,-1.9570704,0.6661947,2.095471,0.3589008,94.91271,39.56016,2.810348,4.348785,2.56581,1.823426,9.26293,2.279695
281,1447478038,18.662521,7.4308777,-54.732323,-1.5545053,0.3367157,1.5693955,14.309658,95.05448,39.126945,2.78444,4.354397,2.591967,2.06192,10.847171,2.931811
282,1447494705,55.017525,5.809677,-62.985786,-1.1569452,-0.013280153,1.0071988,29.55807,95.28894,38.569912,2.765158,4.354176,2.608754,2.554554,12.43532,3.574643
283,1447511372,93.22875,4.0689316,-72.594406,-0.77888775,-0.3783698,0.4158026,45.953453,95.79197,37.967358,2.752177,4.34787,2.615684,3.320445,14.031853,4.207432
284,1447528039,143.62592,1.8488617,-80.95381,-0.1652441,-0.86081743,-0.35642588,66.82519,93.408295,35.90105,2.749423,4.333523,2.609744,4.434198,15.588658,4.805783
285,1447544706,204.03523,-0.78030396,-88.72037,0.6256666,-1.4390919,-1.2771611,91.518906,88.84183,32.66909,2.759851,4.309538,2.588458,5.959513,17.069355,5.350268
286,1447561373,234.31079,-2.447235,-94.80708,1.2227993,-1.8296597,-1.900828,110.577576,81.15678,29.360971,2.780231,4.279044,2.556778,7.802473,18.421968,5.839618
287,1447578040,231.9578,-3.0709686,-98.75342,1.6256485,-2.019516,-2.205377,123.582306,69.78056,25.86431,2.807325,4.245385,2.520022,9.862178,19.584977,6.27069
288,1447594707,214.62057,-3.2597275,-101.4834,1.9742546,-2.1299815,-2.3822107,134.64658,55.54304,21.825266,2.840229,4.209885,2.480318,12.106288,20.510694,6.634444
289,1447611374,171.32207,-2.6417618,-102.55452,2.1758947,-2.0855384,-2.31188,141.26984,37.97275,17.462894,2.876494,4.175126,2.441787,14.460785,21.143573,6.925492
290,1447628041,128.17393,-2.114006,-101.88393,2.516695,-2.0791593,-2.2954369,149.90356,16.68089,11.729022,2.918439,4.140473,2.40353,16.959178,21.421588,7.120976
291,1447644708,86.44194,-1.7237778,-99.4489,3.012515,-2.1210973,-2.348463,160.92123,-8.434817,4.5361857,2.968648,4.105121,2.364389,19.641199,21.281008,7.196579
292,1447661375,23.417213,-0.6982269,-94.82736,3.4434714,-2.0496607,-2.2168097,168.95572,-37.720665,-3.4466224,3.026039,4.07096,2.327442,22.457128,20.65233,7.139135
293,1447678042,-55.690285,0.7805023,-87.91931,3.8720384,-1.9047539,-1.9622244,175.36372,-71.40146,-12.484607,3.090573,4.039214,2.294738,25.379857,19.462306,6.931058
294,1447694709,-103.47434,1.7472534,-82.66808,4.0735216,-1.6904099,-1.9105569,178.65388,-92.59918,-18.717674,3.158465,4.011041,2.262895,28.357422,17.918986,6.619097
295,1447711376,-118.40092,2.2135773,-79.302986,3.9994264,-1.384882,-2.0599327,177.9569,-99.80666,-21.715971,3.225122,3.98796,2.228563,31.32337,16.255542,6.257164
296,1447728043,-119.63952,2.5226135,-75.80338,3.7980928,-1.0109966,-2.2956777,174.83289,-101.23679,-23.50849,3.288424,3.97111,2.190302,34.237251,14.568262,5.865356
297,1447744710,-94.74006,2.436943,-73.19449,3.396925,-0.5616677,-2.6992378,168.59033,-92.14742,-22.987453,3.345039,3.961749,2.145315,37.04709,13.032472,5.482232
298,1447761377,-77.40531,2.7276,-68.97178,2.868956,0.010096312,-3.013135,158.63629,-82.52238,-22.254429,3.392855,3.961917,2.095096,39.691028,11.657099,5.111325
299,1447778044,-69.31463,3.4354248,-62.905453,2.2197142,0.7077661,-3.2250376,144.91333,-72.920975,-21.443768,3.42985,3.973713,2.041345,42.10625,10.441749,4.753929
300,1447794711,-42.92536,3.9796524,-57.094193,1.3440609,1.5183147,-3.5316997,126.96684,-54.141613,-18.514723,3.452251,3.999018,1.982483,44.222364,9.539389,4.44535
301,1447811378,-5.249161,4.529335,-50.96701,0.25148773,2.4558988,-3.8778043,104.51902,-28.140837,-13.872888,3.456442,4.03995,1.917853,45.964348,9.070375,4.214135
302,1447828045,15.042114,4.867325,-46.912178,-0.44031525,3.0068517,-3.956408,85.87537,-9.912862,-11.30265,3.449103,4.090064,1.851913,47.395604,8.905161,4.025757
303,1447844712,18.653206,4.906502,-45.428482,-0.6916151,3.1228776,-3.759035,71.60206,0.4405403,-10.85814,3.437576,4.142112,1.789262,48.588972,8.912503,3.844788
304,1447861379,14.544373,4.8672104,-45.000343,-0.7940254,3.059025,-3.3914027,57.425785,8.884361,-10.971543,3.424342,4.193096,1.732739,49.546068,9.060576,3.661929
305,1447878046,-4.331894,4.669243,-46.400448,-0.5810585,2.6704483,-2.7708445,45.548447,11.675134,-12.59342,3.414658,4.237603,1.686558,50.305209,9.255162,3.452039
306,1447894713,-14.0224,4.291527,-48.75415,-0.44395065,2.2544847,-2.1241217,30.846127,20.103672,-12.9498625,3.407259,4.275178,1.651156,50.819311,9.590223,3.236208
307,1447911380,-13.533127,3.743988,-52.009586,-0.40805912,1.8285081,-1.4567152,12.873605,34.86704,-11.859834,3.400458,4.305653,1.626877,51.033871,10.17134,3.038544
308,1447928047,-20.705284,2.959732,-57.33692,-0.13421631,1.1151845,-0.5816457,-3.9578748,47.2383,-11.493624,3.398221,4.324239,1.617183,50.967906,10.958645,2.846984
309,1447944714,-30.408028,1.9279099,-64.617035,0.2958498,0.1726867,0.45734966,-20.785353,59.714268,-11.2363615,3.403152,4.327117,1.624805,50.621483,11.953883,2.659711
310,1447961381,-36.567764,1.1118698,-69.84691,0.53715134,-0.39831853,1.0542421,-32.710503,69.41596,-10.139805,3.412105,4.320478,1.642376,50.076308,13.110816,2.490714
311,1447978048,-40.596016,0.53479004,-72.87268,0.6016159,-0.57988334,1.1739469,-38.659714,75.05317,-8.356618,3.422132,4.310813,1.661942,49.431979,14.361702,2.351437
312,1447994715,-41.800957,-0.039779663,-75.58415,0.60019493,-0.62212753,1.0750841,-41.682697,79.723206,-5.899861,3.432135,4.300444,1.67986,48.737267,15.690422,2.253106
313,1448011382,-38.975266,-0.4933548,-76.9588,0.4505024,-0.36925554,0.5921182,-40.158226,82.31563,-2.563457,3.439643,4.29429,1.689729,48.067963,17.062349,2.210382
314,1448028049,-40.256096,-1.1192322,-79.70769,0.44212818,-0.24672663,0.12872085,-35.799862,82.32645,0.5771104,3.447012,4.290178,1.691874,47.471299,18.434456,2.220001
315,1448044716,-45.663155,-1.9453354,-84.050156,0.58959484,-0.27887058,-0.29697794,-28.66611,79.88061,3.517984,3.456839,4.28553,1.686924,46.993531,19.765799,2.278634
316,1448061383,-50.183296,-2.7284012,-87.789856,0.68141747,-0.12096226,-1.0326333,-16.335197,74.141464,6.96644,3.468196,4.283514,1.669713,46.721278,21.00149,2.394741
317,1448078050,-55.54058,-3.5361862,-91.53984,0.78161526,0.13632965,-1.9979793,1.0023106,64.9016,10.700631,3.481223,4.285786,1.636413,46.737983,22.083183,2.573085
318,1448094717,-59.479637,-4.3519745,-94.80467,0.8764734,0.2459619,-2.6206942,10.996774,59.48941,12.953629,3.495831,4.289885,1.592735,46.921263,23.074673,2.788979
319,1448111384,-61.3451,-5.1456833,-97.27652,0.9423933,0.22645187,-2.8928552,12.945524,58.31178,13.615416,3.511538,4.293659,1.544521,47.137022,24.046536,3.015903
320,1448128051,-63.45672,-5.973465,-99.618546,1.0317945,0.13374841,-3.0358763,12.732607,57.612816,13.357504,3.528735,4.295888,1.493923,47.349232,25.00675,3.238528
321,1448144718,-65.12562,-6.822365,-101.612564,1.1357088,-0.089353085,-2.9036655,7.087178,59.28578,11.680022,3.547663,4.294399,1.445529,47.467352,25.994846,3.433195
322,1448161385,-66.30329,-7.646591,-103.02138,1.2100449,-0.21058118,-2.9249616,4.0045223,58.750336,9.792522,3.56783,4.290889,1.39678,47.534094,26.974018,3.596404
323,1448178052,-67.212944,-8.448387,-103.868164,1.2587833,-0.22209454,-3.1223693,4.0616717,55.579105,7.717867,3.58881,4.287187,1.344741,47.601789,27.900336,3.725035
324,1448194719,-67.29513,-9.236679,-104.05058,1.2952528,-0.286363,-3.158537,0.48723102,53.620235,4.394511,3.610398,4.282414,1.292099,47.60991,28.794007,3.798277
325,1448211386,-66.57423,-10.000214,-103.49466,1.3103056,-0.35306168,-3.1252742,-4.992587,51.827286,0.04279697,3.632236,4.27653,1.240011,47.5267,29.657795,3.79899
326,1448228053,-66.67626,-10.71328,-103.72818,1.3394375,-0.3789904,-3.1780972,-7.298527,49.40291,-2.2013996,3.65456,4.270213,1.187043,47.405058,30.481177,3.7623
327,1448244720,-67.63572,-11.369423,-104.83858,1.3850088,-0.3762505,-3.2917085,-6.797683,46.728848,-2.1865911,3.677643,4.263942,1.132181,47.291763,31.259991,3.725857
328,1448261387,-68.68362,-11.969509,-106.01741,1.422616,-0.32900417,-3.4549556,-4.738885,43.44518,-1.2720394,3.701353,4.258459,1.074598,47.212782,31.984077,3.704656
329,1448278054,-70.21804,-12.502239,-107.656784,1.4606342,-0.22807992,-3.7001443,0.045291185,39.460594,1.3792299,3.725697,4.254658,1.012929,47.213537,32.641754,3.727643
330,1448294721,-71.21938,-12.982151,-108.81651,1.4826698,-0.13966608,-3.8500447,2.8997083,36.129265,3.6307683,3.750408,4.25233,0.948762,47.261865,33.243908,3.788156
331,1448311388,-71.595406,-13.404266,-109.40056,1.4850731,-0.06145549,-3.900547,3.6435485,33.45502,5.365397,3.775159,4.251306,0.883753,47.322591,33.801492,3.877579
332,1448328055,-72.1751,-13.747761,-110.19827,1.4820757,0.047906756,-3.9650264,5.539718,30.721619,8.3734255,3.79986,4.252104,0.817669,47.41492,34.313519,4.017136
333,1448344722,-72.72324,-14.011219,-110.99022,1.4688387,0.17583454,-4.00454,7.5677876,28.233488,12.211026,3.824341,4.255035,0.750927,47.54105,34.784077,4.220653
334,1448361389,-73.1242,-14.334469,-111.57973,1.4818449,0.25533628,-4.0539145,8.624122,25.861437,13.844455,3.849038,4.259291,0.683362,47.684785,35.215101,4.451394
335,1448378056,-73.460335,-14.725037,-112.038605,1.525918,0.28405368,-4.1261606,8.920834,23.564886,13.205531,3.87447,4.264025,0.614593,47.833466,35.607849,4.671486
336,1448394723,-73.61677,-15.112061,-112.30145,1.5798111,0.2851851,-4.1757536,8.234663,21.651463,11.435669,3.9008,4.268778,0.544997,47.97071,35.968707,4.86208
337,1448411390,-73.58543,-15.531723,-112.33717,1.654108,0.24038827,-4.213413,6.306836,20.107424,7.741375,3.928368,4.272784,0.474773,48.075824,36.303831,4.991103
338,1448428057,-73.621025,-15.890976,-112.43472,1.7294474,0.20142579,-4.2471576,4.5818386,18.844522,4.3497143,3.957192,4.276141,0.403987,48.152188,36.617906,5.063598
339,1448444724,-73.71668,-16.181316,-112.591034,1.8041286,0.1695689,-4.2717457,3.0078468,17.930328,1.3546675,3.987261,4.278967,0.332791,48.202319,36.916745,5.086176
340,1448461391,-73.7434,-16.47897,-112.63986,1.8971891,0.10252583,-4.2916923,0.6229547,17.426033,-3.0418777,4.018881,4.280676,0.261263,48.212702,37.207179,5.035478
341,1448478058,-73.75506,-16.762478,-112.64201,2.0046701,0.010356784,-4.307215,-2.3077903,17.35107,-8.382689,4.052292,4.280849,0.189476,48.174239,37.496364,4.895767
342,1448494725,-73.699455,-16.991486,-112.58128,2.077402,-0.048835397,-4.327228,-4.0554247,16.185457,-11.804212,4.086915,4.280035,0.117356,48.106649,37.766122,4.69903
343,1448511392,-73.56545,-17.170612,-112.44391,2.113329,-0.07514608,-4.353799,-4.5632434,13.804111,-13.2513895,4.122137,4.278783,0.044793,48.030595,37.996191,4.478174
344,1448528059,-73.41953,-17.303371,-112.28285,2.133277,-0.08996415,-4.382667,-4.4819136,10.960841,-13.776243,4.157692,4.277284,-0.028251,47.955896,38.178872,4.24857
345,1448544726,-73.24999,-17.380444,-112.09401,2.1242323,-0.07877183,-4.4170856,-3.348494,7.2360816,-12.630725,4.193096,4.275971,-0.101869,47.900088,38.299473,4.038058
346,1448561393,-73.05222,-17.442307,-111.84163,2.119628,-0.08759189,-4.4506645,-2.477066,3.5792723,-11.956323,4.228423,4.274511,-0.176047,47.858804,38.359128,3.838786
347,1448578060,-72.8372,-17.489025,-111.533936,2.1212378,-0.11888981,-4.4834995,-1.9189159,0.054713666,-11.839631,4.263777,4.27253,-0.250772,47.826822,38.36004,3.641459
348,1448594727,-72.601036,-17.492386,-111.18773,2.1011353,-0.13762307,-4.522076,-0.61278415,-4.1772647,-10.564259,4.298796,4.270236,-0.32614,47.816609,38.290419,3.465388
349,1448611394,-72.347725,-17.460457,-110.79918,2.066246,-0.15384316,-4.565472,1.1737019,-8.919177,-8.569705,4.333233,4.267672,-0.402231,47.836171,38.141766,3.32256
350,1448628061,-71.94587,-17.352764,-110.3244,2.0294504,-0.17061734,-4.5796514,2.638857,-13.144641,-7.5366597,4.367057,4.264828,-0.478559,47.880152,37.922689,3.196949
351,1448644728,-71.38361,-17.161835,-109.761795,1.9882641,-0.18426979,-4.562409,3.8430996,-16.868141,-7.4109116,4.400195,4.261757,-0.554599,47.944204,37.641553,3.073434
352,1448661395,-70.72852,-16.911816,-109.131424,1.9409733,-0.20036817,-4.5295315,4.9954267,-20.450127,-7.68319,4.432545,4.258418,-0.630091,48.027461,37.300718,2.945381
353,1448678062,-69.944084,-16.589943,-108.42195,1.8899183,-0.21871197,-4.47179,5.914437,-23.638733,-8.762202,4.464044,4.254773,-0.704621,48.126035,36.906739,2.799344
354,1448694729,-69.11285,-16.211002,-107.6693,1.8200293,-0.22870791,-4.4111056,7.359576,-27.25087,-9.205544,4.494378,4.250961,-0.778139,48.248695,36.452558,2.645918
355,1448711396,-68.24087,-15.775677,-106.876205,1.7304916,-0.23054564,-4.348803,9.367006,-31.328827,-8.952384,4.52322,4.247119,-0.850619,48.404812,35.930411,2.496712
356,1448728063,-67.25529,-15.264484,-106.01552,1.6303167,-0.22904313,-4.2659163,11.415576,-35.256943,-9.061252,4.550392,4.243302,-0.921718,48.595072,35.342795,2.345691
357,1448744730,-66.1735,-14.679367,-105.095566,1.5158453,-0.22182143,-4.1669774,13.677121,-39.21372,-9.220276,4.575656,4.239605,-0.991168,48.823024,34.689233,2.19202
358,1448761397,-65.15208,-14.093067,-104.228226,1.4300051,-0.23948097,-4.05588,14.984983,-42.53598,-8.847361,4.599489,4.235614,-1.058766,49.072774,33.9803,2.044564
359,1448778064,-64.19689,-13.508739,-103.42226,1.3776226,-0.2851764,-3.9303484,15.172438,-45.086388,-7.999086,4.622449,4.230861,-1.124272,49.325648,33.22886,1.911246
360,1448794731,-63.245567,-12.892002,-102.63161,1.3355732,-0.34260404,-3.7913117,14.914291,-47.29987,-6.729203,4.644709,4.225151,-1.187461,49.57422,32.440529,1.799093
361,1448811398,-62.33979,-12.26162,-101.888306,1.3161106,-0.4203658,-3.6388712,13.865297,-48.9649,-4.897751,4.666644,4.218145,-1.248109,49.805308,31.624447,1.717464
362,1448828065,-61.370552,-11.568825,-101.122345,1.2963085,-0.502022,-3.4655604,12.572076,-50.30585,-3.109523,4.688249,4.209778,-1.305868,50.014843,30.786016,1.665639
363,1448844732,-60.3332,-10.80983,-100.332214,1.2745228,-0.58635545,-3.270824,11.075759,-51.340973,-1.3646402,4.709491,4.200005,-1.360382,50.199439,29.930333,1.642895
364,1448861399,-59.318504,-10.024559,-99.58241,1.2730999,-0.68915653,-3.057969,8.790815,-51.759613,0.7610301,4.730709,4.188519,-1.411348,50.345953,29.067673,1.655579
365,1448878066,-58.30445,-9.202148,-98.860535,1.287529,-0.8071377,-2.8249273,5.8180065,-51.593452,3.147727,4.752168,4.175067,-1.45843,50.44292,28.207782,1.708041
366,1448894733,-56.67698,-8.31987,-97.54587,1.2384834,-0.8573594,-2.630763,4.157766,-53.310097,5.406645,4.772809,4.160778,-1.502276,50.512216,27.31928,1.798152
367,1448911400,-54.38555,-7.380226,-95.58551,1.1214237,-0.833786,-2.481279,3.910983,-57.09524,7.548524,4.791499,4.146882,-1.543631,50.577399,26.367693,1.923961
368,1448928067,-51.704018,-6.386307,-93.264206,0.971118,-0.7734237,-2.3468723,4.183012,-61.79144,9.678076,4.807684,4.133992,-1.582746,50.647116,25.337836,2.085262
369,1448944734,-48.458305,-5.333,-90.40626,0.76607895,-0.6532037,-2.2442908,5.5055337,-68.07966,11.697539,4.820452,4.123105,-1.620151,50.738875,24.203175,2.280221
370,1448961401,-45.02581,-4.242958,-87.388016,0.5582104,-0.5250995,-2.1398225,6.5534143,-74.43935,13.956419,4.829756,4.114353,-1.655815,50.848099,22.962519,2.512828
371,1448978068,-41.420647,-3.1165924,-84.225494,0.35015297,-0.39141536,-2.0315056,7.246974,-80.78599,16.46482,4.835592,4.107829,-1.689673,50.968882,21.616086,2.787242
372,1448994735,-37.296997,-1.9383545,-80.572586,0.09717941,-0.20562577,-1.9511224,8.705011,-88.47887,18.964642,4.837212,4.104402,-1.722192,51.113966,20.141438,3.103319
373,1449011402,-32.72531,-0.7129669,-76.50037,-0.19022274,0.022214532,-1.8921307,10.649689,-97.21416,21.5287,4.834042,4.104772,-1.753728,51.291461,18.521202,3.462131
374,1449028069,-30.538437,0.3678589,-73.01836,-0.26933193,0.16865098,-2.0699167,5.0235505,-99.40598,23.164734,4.829553,4.107583,-1.788227,51.375187,16.864436,3.84821
375,1449044736,-30.971672,1.2860413,-70.17455,-0.12161636,0.22819686,-2.5117521,-8.850806,-94.477936,23.740145,4.827526,4.111386,-1.83009,51.227674,15.289804,4.243879
376,1449061403,-32.735313,2.1278687,-67.53257,0.14564323,0.25319314,-3.1136026,-27.381897,-85.80432,23.767391,4.829953,4.115606,-1.881983,50.771309,13.859732,4.640002
377,1449078070,-36.62932,2.83786,-65.361565,0.60059166,0.21077752,-3.9404793,-52.861187,-71.26008,22.948385,4.839963,4.119119,-1.947658,49.890289,12.672064,5.022475
378,1449094737,-40.925117,3.5299454,-62.9775,1.091608,0.18555188,-4.8786144,-80.376236,-55.577393,21.779919,4.858156,4.122212,-2.028968,48.550685,11.745774,5.385474
379,1449111404,-45.549812,4.207573,-60.343166,1.6126833,0.18192399,-5.9254227,-109.751205,-38.952133,20.28088,4.885034,4.125244,-2.127725,46.721498,11.096572,5.723489
380,1449128071,-52.086296,4.762993,-58.032852,2.300788,0.12920666,-7.198691,-145.51706,-17.115725,17.926376,4.92338,4.127397,-2.247703,44.296214,10.81131,6.022262
381,1449144738,-60.207436,5.2165375,-55.904785,3.1271648,0.044876695,-8.6801195,-186.76624,9.028751,14.798908,4.975499,4.128145,-2.392372,41.183443,10.961789,6.26891
382,1449161405,-62.219566,5.4286957,-55.038475,3.5921803,-0.09804809,-9.466462,-213.96321,27.69962,12.662824,5.035369,4.126511,-2.550146,37.617389,11.423449,6.479957
383,1449178072,-57.585182,5.3666,-55.623695,3.6661792,-0.3120185,-9.487256,-225.84352,38.358437,11.600286,5.096472,4.121311,-2.708267,33.85333,12.062756,6.673295
384,1449194739,-49.736015,5.1041565,-57.067932,3.5680122,-0.57359815,-9.159874,-231.10654,46.04508,10.81054,5.155939,4.111751,-2.860932,30.001554,12.830174,6.853471
385,1449211406,-36.543808,4.59198,-59.714962,3.1617064,-0.894248,-8.232673,-224.40045,47.622124,10.757135,5.208634,4.096847,-2.998143,26.261546,13.623876,7.032757
386,1449228073,-22.8964,3.8749084,-63.10538,2.775154,-1.2780979,-7.2633853,-218.3289,51.13147,10.253303,5.254887,4.075545,-3.119199,22.622731,14.476067,7.203645
387,1449244740,-9.021782,2.9486084,-67.230354,2.424631,-1.7261033,-6.27983,-213.5208,57.001606,9.220243,5.295298,4.046777,-3.223863,19.064051,15.426094,7.357316
388,1449261407,9.409744,1.7400894,-72.64885,1.8270378,-2.2484345,-4.7798486,-198.96867,58.503677,8.6440935,5.325749,4.009303,-3.303527,15.747906,16.401155,7.501384
389,1449278074,31.439514,0.24970245,-79.30019,1.0483112,-2.8483703,-2.8726187,-177.19034,57.302773,8.269569,5.343221,3.96183,-3.351404,12.794734,17.356201,7.63921
390,1449294741,44.761375,-0.79213715,-83.70242,0.5800028,-3.2120302,-1.469951,-159.46732,54.944485,7.2273874,5.352888,3.908296,-3.375903,10.136945,18.271942,7.759666
391,1449311408,48.766888,-1.3307495,-85.61901,0.43159103,-3.311875,-0.5882722,-145.33557,50.66824,5.5556955,5.360081,3.853098,-3.385708,7.714685,19.116413,7.852261
392,1449328075,48.68027,-1.7182007,-86.68516,0.41179466,-3.299957,0.13942695,-130.96484,44.785393,3.4934707,5.366944,3.798099,-3.383384,5.531938,19.862836,7.910486
393,1449344742,41.193386,-1.7544632,-85.953964,0.64735794,-3.0882537,0.48055455,-118.97912,37.4047,0.8312856,5.377733,3.746628,-3.375375,3.548953,20.486248,7.924341
394,1449361409,34.627052,-1.8920212,-85.62698,0.7758179,-2.8630164,1.1053572,-99.74031,25.785706,-1.6773229,5.390663,3.698911,-3.356952,1.886614,20.91601,7.896386
395,1449378076,29.38963,-2.1596756,-85.83895,0.7788925,-2.6346328,2.0524464,-72.65631,9.760766,-4.005391,5.403645,3.655,-3.322745,0.675675,21.078689,7.829629
396,1449394743,18.44001,-2.1571121,-84.66669,0.94541645,-2.2318952,2.79182,-44.5992,-9.363606,-6.7032175,5.419402,3.617802,-3.276215,-0.067645,20.922629,7.717909
397,1449411410,3.4701233,-1.9773865,-82.56357,1.1987677,-1.6913426,3.468409,-13.35359,-32.31288,-9.610157,5.439381,3.589613,-3.218408,-0.290205,20.384081,7.55774
398,1449428077,-7.627472,-1.6370544,-80.54994,1.2358236,-1.2687728,3.9675493,8.30483,-48.750248,-12.120887,5.459978,3.568467,-3.152282,-0.151791,19.571577,7.355725
399,1449444744,-15.03334,-1.0798111,-78.4557,1.0619316,-0.9637697,4.213083,18.422544,-57.666393,-14.234727,5.477677,3.552404,-3.082064,0.155251,18.61047,7.11848
400,1449461411,-21.419724,-0.35323334,-76.07602,0.7685423,-0.67633605,4.3566456,24.642593,-64.5678,-16.123669,5.490486,3.541132,-3.009453,0.565961,17.53434,6.849752
401,1449478078,-24.871109,0.5609665,-73.6001,0.2794962,-0.46943426,4.344887,23.152851,-66.577065,-17.627707,5.495144,3.533308,-2.937038,0.951842,16.424722,6.555957
402,1449494745,-31.895699,1.7835236,-69.91055,-0.1545639,-0.1463064,4.107083,19.718428,-69.49899,-19.238165,5.492568,3.53087,-2.868587,1.280482,15.266405,6.235321
403,1449511412,-42.829414,3.3265305,-64.93492,-0.52535534,0.30548275,3.6445913,14.8143635,-73.789444,-20.962612,5.483812,3.535961,-2.807844,1.527388,14.036581,5.885944
404,1449528079,-52.855293,5.158249,-59.350674,-1.0230255,0.7363008,2.9367013,2.1077604,-74.039154,-22.412989,5.466762,3.548233,-2.758899,1.562517,12.802595,5.512394
405,1449544746,-63.408073,7.317009,-52.881233,-1.5955591,1.1901788,1.9597466,-17.339195,-71.44858,-23.684238,5.440169,3.568069,-2.726237,1.27353,11.611785,5.117657
406,1449561413,-69.09142,8.79744,-46.56941,-1.9004793,1.4897369,1.3308312,-26.779684,-69.83157,-24.102272,5.408494,3.592898,-2.704056,0.827202,10.447925,4.715952
407,1449578080,-68.83134,9.509552,-40.551662,-1.9258661,1.6003946,1.0942252,-25.64014,-68.76775,-23.543255,5.376396,3.619571,-2.685819,0.399866,9.301796,4.323564
408,1449594747,-66.17228,9.964836,-34.106827,-1.7976446,1.6365756,0.93185693,-21.337408,-67.16893,-22.377449,5.346435,3.646847,-2.670288,0.044243,8.182314,3.950607
409,1449611414,-59.41764,9.884132,-27.518526,-1.4234419,1.5425637,1.0083897,-9.557499,-65.809235,-20.387455,5.322711,3.672556,-2.653482,-0.115049,7.085493,3.610816
410,1449628081,-50.4636,9.855309,-20.304798,-1.0516768,1.3838646,0.9509783,-1.8296007,-61.018604,-17.840311,5.305183,3.69562,-2.637632,-0.145542,6.068516,3.313477
411,1449644748,-39.483383,9.919136,-12.3816185,-0.6900368,1.1659764,0.72790045,1.0641919,-52.53596,-14.737773,5.293682,3.715053,-2.6255,-0.127805,5.192917,3.067847
412,1449661415,-23.953232,9.5375595,-4.2218704,-0.13254833,0.80436116,0.664778,8.497003,-42.727985,-10.736015,5.291473,3.728459,-2.61442,0.013812,4.480784,2.888913
413,1449678082,-4.16642,8.830612,4.2959423,0.5721159,0.3092798,0.67993903,17.94936,-30.694668,-5.8656173,5.301008,3.733614,-2.603088,0.312968,3.969206,2.791153
414,1449694749,9.305092,8.465454,11.638367,1.018981,0.035261154,0.6548265,23.01994,-22.474604,-2.628603,5.317991,3.734202,-2.592174,0.696634,3.594629,2.747343
415,1449711416,15.90641,8.430038,17.587948,1.1960754,0.0011698008,0.6206114,24.208294,-18.828445,-1.2035061,5.337926,3.734221,-2.58183,1.100106,3.280822,2.727285
416,1449728083,20.56646,8.481506,22.949284,1.2646666,0.042155504,0.57938075,22.803736,-16.191132,-0.4077891,5.359004,3.734924,-2.572174,1.480168,3.01097,2.720489
417,1449744750,20.49466,8.780777,27.256268,1.1185989,0.25200987,0.51208705,17.310911,-16.283375,-0.92536914,5.377647,3.739124,-2.563639,1.768683,2.73958,2.705066
418,1449761417,22.589775,8.795563,31.292675,1.0510006,0.3994342,0.5687725,13.760444,-16.078213,-1.1902919,5.395164,3.745781,-2.554159,1.998024,2.47161,2.685228
419,1449778084,27.328552,8.49411,35.08922,1.0762243,0.4687016,0.7560375,12.305153,-15.279607,-1.1076641,5.413101,3.753593,-2.541558,2.20311,2.21695,2.666767
420,1449794751,28.893219,8.272385,37.820484,0.9566288,0.65523607,0.9881531,8.69579,-16.905811,-2.0565047,5.429045,3.764514,-2.525089,2.34804,1.935186,2.632492
421,1449811418,28.765236,8.011002,39.617603,0.7533474,0.9095644,1.3013055,4.206351,-20.328037,-3.7164793,5.441601,3.779673,-2.503401,2.418146,1.596385,2.570551
422,1449828085,30.27808,7.7822266,41.89558,0.6584625,1.0332501,1.5074073,1.2310325,-21.32281,-4.1880236,5.452575,3.796894,-2.478278,2.438663,1.241005,2.500751
423,1449844752,33.00847,7.6350784,44.64452,0.66055775,1.031791,1.583973,-0.4430097,-19.930498,-3.475688,5.463584,3.814091,-2.451878,2.43128,0.90883,2.442823
424,1449861419,36.35962,7.4493713,47.24245,0.708868,0.9660284,1.6493694,-1.0503358,-17.776705,-2.277993,5.475398,3.830191,-2.424389,2.413774,0.612552,2.404856
425,1449878086,41.03266,7.2554703,50.023,0.84839535,0.7873765,1.6518171,-0.005741358,-13.837169,-0.121423244,5.489538,3.843314,-2.396859,2.413678,0.381933,2.402832
426,1449894753,43.604507,7.106613,51.89902,0.90432835,0.66061175,1.683345,0.18203294,-11.351793,1.5211612,5.50461,3.854324,-2.368803,2.416712,0.192736,2.428185
427,1449911420,43.93568,6.99411,52.77383,0.86956215,0.59231806,1.7560897,-0.48712027,-10.528118,2.57191,5.519103,3.864196,-2.339535,2.408593,0.017267,2.47105
428,1449928087,44.262638,6.9200363,53.44676,0.86784935,0.45965338,1.7804195,-0.24610373,-8.919797,4.1601863,5.533567,3.871857,-2.309861,2.404491,-0.131396,2.540386
429,1449944754,43.807297,6.8959503,53.65508,0.86087227,0.29775214,1.7774838,0.40953827,-7.2558317,5.966135,5.547915,3.87682,-2.280236,2.411317,-0.252327,2.639822
430,1449961421,43.382435,6.8783035,53.56808,0.8180351,0.23818445,1.7762516,-0.36351275,-5.0473013,6.734703,5.561549,3.88079,-2.250632,2.405258,-0.336449,2.752067
431,1449978088,43.249382,6.869385,53.273296,0.7487488,0.28034854,1.767162,-2.5415354,-1.9824234,6.46775,5.574028,3.885462,-2.221179,2.362899,-0.369489,2.859863
432,1449994755,42.429077,6.901474,52.486225,0.6396704,0.38678873,1.7504725,-5.5798645,1.1838093,5.5312285,5.584689,3.891908,-2.192004,2.269901,-0.349759,2.95205
433,1450011422,41.162178,6.9674835,51.262943,0.48444462,0.59185946,1.7298623,-9.949188,4.6552267,3.596819,5.592763,3.901772,-2.163173,2.104081,-0.272172,3.011997
434,1450028089,39.492447,7.093361,49.6658,0.3314371,0.7879237,1.6676679,-14.063618,8.733047,1.6704806,5.598287,3.914904,-2.135379,1.869687,-0.126621,3.039838
435,1450044756,37.29881,7.2868958,47.65736,0.17869186,0.9729531,1.5617431,-17.874365,13.366913,-0.22867143,5.601265,3.93112,-2.10935,1.571781,0.096161,3.036027
436,1450061423,34.746567,7.532898,45.24883,-0.0037660599,1.2310537,1.4321367,-22.578419,18.600689,-2.8934293,5.601202,3.951638,-2.085481,1.195474,0.406172,2.987803
437,1450078090,31.807022,7.841194,42.44009,-0.20684719,1.5410885,1.2692838,-27.8476,24.504105,-6.127188,5.597755,3.977323,-2.064326,0.731347,0.814574,2.885683
438,1450094757,28.910698,8.0685425,39.810192,-0.30367374,1.7413672,1.0775483,-31.06205,28.255648,-7.6532845,5.592694,4.006346,-2.046367,0.213646,1.285501,2.758128
439,1450111424,26.126377,8.201897,37.420094,-0.28450108,1.8267101,0.8574537,-32.09871,29.614662,-7.3469324,5.587952,4.036791,-2.032076,-0.321332,1.779079,2.635679
440,1450128091,23.220718,8.318756,34.99359,-0.20285988,1.8600218,0.59846973,-31.966892,29.976187,-6.1558323,5.584571,4.067791,-2.022102,-0.854114,2.278682,2.533082
441,1450144758,20.328499,8.379906,32.69958,-0.02266407,1.7984586,0.30059606,-29.94972,28.55766,-3.4581773,5.584193,4.097765,-2.017092,-1.353276,2.754643,2.475446
442,1450161425,17.18377,8.470467,30.18753,0.17355251,1.7597096,-0.035948694,-27.87824,26.994263,-0.79515594,5.587086,4.127093,-2.017691,-1.817913,3.204547,2.462193
443,1450178092,13.773697,8.597977,27.442928,0.38329697,1.748875,-0.41407418,-25.80975,25.388563,1.7689186,5.593474,4.156241,-2.024592,-2.248075,3.62769,2.491675
444,1450194759,10.356293,8.686363,24.794811,0.6805887,1.6699628,-0.8352635,-22.189798,22.234947,5.553602,5.604817,4.184074,-2.038513,-2.617905,3.998272,2.584235
445,1450211426,6.882332,8.754211,22.178131,1.0501156,1.5470698,-1.3012675,-17.372126,17.859997,10.253975,5.622319,4.209858,-2.060201,-2.90744,4.295939,2.755135
446,1450228093,2.8631516,8.895424,18.676426,1.2974653,1.4444699,-1.5530585,-13.312006,14.85135,13.437227,5.643943,4.233932,-2.086085,-3.129307,4.543461,2.979089
447,1450244760,-1.7077713,9.109261,14.2499695,1.4145613,1.3558086,-1.565523,-9.978699,13.243655,15.04653,5.667519,4.256529,-2.112177,-3.295619,4.764189,3.229864
448,1450261427,-6.6243515,9.3637085,9.296444,1.4847374,1.2659932,-1.4624791,-6.6540737,12.007564,16.044579,5.692265,4.277629,-2.136552,-3.40652,4.964315,3.497274
449,1450278094,-12.008553,9.682274,3.5738583,1.4566784,1.1889985,-1.1697108,-3.8118682,11.798345,15.801052,5.716543,4.297446,-2.156047,-3.470051,5.160954,3.760625
450,1450294761,-17.500137,9.991875,-2.2905254,1.4649305,1.0610882,-0.83879113,0.13734508,10.702021,16.095083,5.740959,4.315131,-2.170027,-3.467762,5.339321,4.028876
451,1450311428,-23.074059,10.28936,-8.260344,1.5171003,0.879143,-0.4765991,5.2900004,8.607924,17.01795,5.766244,4.329783,-2.17797,-3.379595,5.482786,4.312509
452,1450328095,-29.009987,10.6310425,-14.856283,1.5019894,0.68557954,0.05963573,10.469645,7.019705,17.143978,5.791277,4.341209,-2.176976,-3.205101,5.599781,4.598242
453,1450344762,-35.226906,11.001495,-21.946241,1.4479027,0.4657346,0.7415476,16.034601,5.521839,16.848951,5.815409,4.348971,-2.164617,-2.937858,5.691812,4.879058
454,1450361429,-36.824196,11.278366,-24.056309,1.3887234,0.32006025,1.2003773,19.063137,2.8674808,16.770378,5.838554,4.354305,-2.144611,-2.620139,5.739603,5.158564
455,1450378096,-33.32859,11.455925,-20.692207,1.3132143,0.26229715,1.4217545,19.133047,-0.8916606,16.792164,5.860441,4.358677,-2.120915,-2.301255,5.724742,5.438433
456,1450394763,-26.972832,11.581085,-14.328136,1.2236185,0.23414862,1.5644568,17.87132,-5.4561243,16.86167,5.880835,4.362579,-2.094841,-2.0034,5.633807,5.719461
457,1450411430,-16.337341,11.620338,-3.3940716,1.1245718,0.26497698,1.5318027,14.400888,-11.134741,17.103518,5.899578,4.366995,-2.069311,-1.763385,5.448228,6.00452
458,1450428097,-4.292465,11.658791,8.838364,0.96673393,0.3067026,1.5789844,10.115535,-16.830273,16.771294,5.91569,4.372107,-2.042995,-1.594793,5.167723,6.284042
459,1450444764,9.070953,11.699013,22.255997,0.7477884,0.355389,1.7210416,5.095834,-22.519468,15.839121,5.928153,4.37803,-2.014311,-1.509862,4.792399,6.548027
460,1450461431,26.488022,11.668533,39.923008,0.49429226,0.46136832,1.7480751,-2.160131,-29.015585,14.768888,5.936391,4.385719,-1.985176,-1.545864,4.308806,6.794175
461,1450478098,47.447945,11.58371,61.244,0.19402027,0.61542916,1.7142512,-11.41006,-36.095245,13.38957,5.939625,4.395976,-1.956605,-1.736032,3.707219,7.017335
462,1450494765,62.23975,11.466316,76.25011,0.0073776245,0.73022926,1.7183439,-16.74107,-40.1559,12.067912,5.939748,4.408146,-1.927966,-2.01505,3.037954,7.218467
463,1450511432,70.33622,11.307724,84.43065,-0.048749924,0.8054736,1.7431787,-17.82428,-40.926563,10.8726,5.938936,4.421571,-1.898913,-2.312121,2.355845,7.399677
464,1450528099,76.06093,11.106659,90.175354,-0.059978485,0.8778152,1.7776862,-17.342947,-39.946243,9.497238,5.937936,4.436201,-1.869285,-2.60117,1.690074,7.557964
465,1450544766,76.80851,10.864952,90.81882,0.018972397,0.9259149,1.8411529,-13.714586,-36.197147,8.044558,5.938252,4.451633,-1.838599,-2.829746,1.086788,7.69204
466,1450561433,79.02421,10.548065,93.04213,0.10049248,1.0147448,1.8213351,-10.809415,-31.972214,6.4066305,5.939927,4.468545,-1.808243,-3.009903,0.553918,7.798817
467,1450578100,83.075035,10.152733,97.22174,0.17812634,1.1490984,1.7137811,-8.861411,-27.346567,4.5480824,5.942896,4.487697,-1.77968,-3.157593,0.098142,7.874618
468,1450594767,83.48653,9.695343,97.71683,0.33559608,1.279369,1.58818,-4.5726676,-20.25352,2.6062975,5.948489,4.50902,-1.75321,-3.233804,-0.239417,7.918056
469,1450611434,81.59406,9.166122,95.91446,0.5553293,1.4204427,1.4185425,1.2491161,-11.120082,0.54966676,5.957744,4.532694,-1.729568,-3.212985,-0.424752,7.927217
470,1450628101,81.51923,8.779671,95.88194,0.6791239,1.5227587,1.3081988,4.690857,-5.2271185,-1.1127925,5.969063,4.558073,-1.707765,-3.134804,-0.511871,7.90867
471,1450644768,82.9279,8.556938,97.26276,0.70388126,1.576,1.2723217,5.804192,-2.7849956,-2.3097727,5.980794,4.58434,-1.68656,-3.038067,-0.558288,7.870174
472,1450661435,84.7161,8.388153,99.01567,0.69405174,1.6142342,1.241936,5.9165273,-1.5361551,-3.3025475,5.992362,4.611244,-1.665861,-2.939458,-0.583891,7.815132
473,1450678102,87.79815,8.333771,102.03578,0.60928345,1.6218553,1.2464082,4.058248,-2.8703694,-3.9358954,6.002517,4.638275,-1.645088,-2.871821,-0.63173,7.749534
474,1450694769,88.30825,8.271324,102.44685,0.5639982,1.6158644,1.2415533,3.3664937,-3.1185832,-4.4791064,6.011917,4.665206,-1.624395,-2.815713,-0.683706,7.674882
475,1450711436,86.04467,8.192787,100.0517,0.56491184,1.5982003,1.2209057,3.9861956,-2.0716672,-4.941439,6.021332,4.691843,-1.604047,-2.749276,-0.718234,7.592525
476,1450728103,83.63927,8.212883,97.46985,0.5209999,1.5459785,1.2317511,3.5415797,-2.7514224,-5.0434136,6.030015,4.717609,-1.583518,-2.69025,-0.764091,7.508468
477,1450744770,80.20468,8.307228,93.81143,0.4569912,1.4620043,1.2642157,2.7068672,-4.3835087,-4.830001,6.037632,4.741976,-1.562448,-2.645136,-0.837149,7.427968
478,1450761437,77.92511,8.323608,91.39276,0.44468784,1.4124287,1.3184437,2.2922788,-4.6430945,-4.8483663,6.045043,4.765516,-1.540474,-2.606931,-0.914534,7.347162
479,1450778104,77.248856,8.26429,90.67108,0.48034096,1.3993255,1.4017955,2.1054459,-3.6879582,-5.102445,6.053049,4.788838,-1.517111,-2.57184,-0.976,7.262121
480,1450794771,76.47513,8.187271,89.88016,0.54705334,1.3921227,1.5083778,2.2298937,-2.1070652,-5.350257,6.062167,4.81204,-1.491971,-2.534675,-1.011118,7.17295
481,1450811438,76.256905,8.055939,89.70822,0.66224194,1.4075567,1.6413684,2.8229747,0.6372588,-5.7248163,6.073204,4.835499,-1.464615,-2.487625,-1.000497,7.077536
482,1450828105,75.93295,7.9905624,89.41484,0.7613907,1.4003781,1.8123999,2.8039837,2.4051442,-5.8186393,6.085894,4.858839,-1.434408,-2.440892,-0.960411,6.980559
483,1450844772,75.35076,7.999031,88.84148,0.8428774,1.3669876,2.0231662,2.1660252,3.110382,-5.5978913,6.099942,4.881622,-1.400689,-2.404792,-0.908571,6.887261
484,1450861439,75.40887,7.9920044,88.95648,0.95364,1.3437109,2.2724013,1.5694093,4.2539988,-5.3714495,6.115836,4.904017,-1.362816,-2.378635,-0.837671,6.797737
485,1450878106,75.957184,7.9968414,89.59294,1.0802774,1.3203007,2.564353,0.78201735,5.365325,-5.043533,6.133841,4.926022,-1.320077,-2.365601,-0.748249,6.713678
486,1450894773,75.465195,8.032867,89.14937,1.1385927,1.2992218,2.6893568,-0.031396806,6.2893057,-4.8673434,6.152818,4.947676,-1.275254,-2.366124,-0.643427,6.632556
487,1450911440,73.93499,8.092964,87.63025,1.1253796,1.2849157,2.627977,-0.8012047,7.158969,-4.899472,6.171574,4.969091,-1.231454,-2.379477,-0.524111,6.550898
488,1450928107,72.00849,8.188278,85.700165,1.0709925,1.2689751,2.4831922,-1.777641,7.704798,-4.949417,6.189424,4.990241,-1.190067,-2.409104,-0.395698,6.468408
489,1450944774,69.31638,8.322533,82.97279,0.9524746,1.2532886,2.195853,-2.9111767,7.909742,-5.0965204,6.205299,5.011129,-1.153469,-2.457624,-0.263869,6.383466
490,1450961441,66.956215,8.464043,80.60475,0.83094406,1.245022,1.8885266,-4.124954,8.233994,-5.2625313,6.219148,5.031879,-1.121994,-2.526373,-0.126636,6.295757
491,1450978108,65.01064,8.614471,78.68152,0.7079754,1.2438341,1.5681093,-5.449861,8.645652,-5.4337683,6.230948,5.05261,-1.095859,-2.617204,0.017458,6.205194
492,1450994775,62.636116,8.793182,76.31622,0.532485,1.2481781,1.1207011,-6.887472,8.897198,-5.7210994,6.239823,5.073413,-1.077181,-2.731995,0.165745,6.109842
493,1451011442,60.084095,8.994377,73.77324,0.31621647,1.2597988,0.57019925,-8.431712,9.07337,-6.109814,6.245093,5.09441,-1.067678,-2.872524,0.316968,6.008012
494,1451028109,58.175175,9.121513,71.90962,0.19225502,1.2541066,0.24962792,-9.435575,8.804569,-6.1938143,6.248297,5.115312,-1.063518,-3.029784,0.463711,5.904782
495,1451044776,56.90422,9.16687,70.7193,0.16673279,1.2291163,0.17523658,-9.83086,8.030128,-5.953403,6.251076,5.135797,-1.060597,-3.193632,0.597546,5.805559
496,1451061443,56.071373,9.172012,69.99461,0.18394566,1.1980288,0.20391268,-9.919043,6.978692,-5.574633,6.254142,5.155764,-1.057198,-3.358949,0.713858,5.712648
497,1451078110,55.89507,9.109413,69.96353,0.2795639,1.1542478,0.42478403,-9.51034,5.5393357,-4.950739,6.258801,5.175001,-1.050118,-3.517455,0.80618,5.630136
498,1451094777,55.712692,9.041077,69.93179,0.36183262,1.111798,0.6135738,-8.992516,3.8360434,-4.346609,6.264832,5.193531,-1.039892,-3.66733,0.870114,5.557693
499,1451111444,55.524273,8.968994,69.89938,0.42629242,1.0719761,0.7586,-8.3787365,1.8797102,-3.7799435,6.271937,5.211397,-1.027249,-3.806976,0.901443,5.494694
500,1451128111,55.859547,8.837242,70.420364,0.54981613,1.022188,1.0492511,-7.3009734,-0.493322,-3.027647,6.281101,5.228433,-1.009761,-3.928659,0.893221,5.444233
501,1451144778,56.59709,8.657333,71.36734,0.7136574,0.9655103,1.4394958,-5.828982,-3.2639804,-2.1463022,6.292995,5.244525,-0.985769,-4.025809,0.838821,5.408461
502,1451161445,56.871323,8.52919,71.78912,0.80803967,0.9299958,1.6625406,-4.675085,-5.163559,-1.5660475,6.306462,5.260025,-0.95806,-4.103727,0.752762,5.38236
503,1451178112,56.672607,8.454063,71.670654,0.8323488,0.9168108,1.7173005,-3.8496757,-6.0960326,-1.3016121,6.320334,5.275305,-0.929438,-4.167888,0.651161,5.360666
504,1451194779,56.34146,8.39093,71.389114,0.82647705,0.9148255,1.7004025,-3.0501347,-6.653593,-1.1884463,6.334109,5.290552,-0.901098,-4.218724,0.540268,5.340859
505,1451211446,55.658844,8.364815,70.70183,0.76250076,0.9315765,1.5441574,-2.454422,-6.4853806,-1.3413713,6.346817,5.306078,-0.875362,-4.259631,0.432178,5.318503
506,1451228113,55.29259,8.3010025,70.33331,0.724843,0.94783914,1.4540974,-1.5364327,-6.3725734,-1.4556829,6.358898,5.321875,-0.851127,-4.285238,0.325968,5.294242
507,1451244780,55.28167,8.194672,70.324936,0.7174444,0.9628623,1.4398496,-0.25903296,-6.357307,-1.5199863,6.370855,5.337923,-0.82713,-4.289555,0.220013,5.268909
508,1451261447,55.11022,8.10376,70.11153,0.67448425,0.9928793,1.3415381,0.9695213,-5.73963,-1.7872618,6.382096,5.354471,-0.804771,-4.273396,0.124352,5.239121
509,1451278114,54.924774,8.011627,69.85077,0.61385536,1.0340822,1.2027837,2.2678962,-4.6746902,-2.196791,6.392327,5.371706,-0.784725,-4.235598,0.04644,5.202508
510,1451294781,54.958996,7.9351807,69.81914,0.5850487,1.0534536,1.1420367,3.3932214,-3.8066669,-2.2590199,6.402078,5.389264,-0.765691,-4.179044,-0.017004,5.164858
511,1451311448,55.17748,7.8826675,69.978226,0.58506775,1.0499458,1.1519272,4.275272,-3.09579,-1.9594252,6.411829,5.406763,-0.746492,-4.107789,-0.0686,5.132201
512,1451328115,55.572937,7.834526,70.30696,0.60266495,1.0367887,1.2061778,5.1124825,-2.3274574,-1.4909867,6.421873,5.424043,-0.726389,-4.022581,-0.107391,5.107351
513,1451344782,56.196762,7.7974014,70.866165,0.64969254,1.0053022,1.3331401,5.822502,-1.6448783,-0.7250564,6.432701,5.440798,-0.70417,-3.925539,-0.134806,5.095267
514,1451361449,56.78617,7.7758102,71.35396,0.68029594,0.9791384,1.422577,6.4474745,-0.47600603,-0.015457511,6.444039,5.457117,-0.68046,-3.818081,-0.142739,5.095009
515,1451378116,57.339752,7.768898,71.76622,0.6932192,0.9594469,1.4715956,6.9972467,1.2184399,0.6212543,6.455593,5.473108,-0.655933,-3.70146,-0.122432,5.105363
516,1451394783,58.031296,7.7809677,72.3033,0.7212658,0.92693835,1.5589793,7.37297,3.0453677,1.4727517,6.467614,5.488557,-0.62995,-3.578577,-0.071676,5.129909
517,1451411450,58.806473,7.813545,72.90149,0.75476646,0.8865234,1.6615436,7.5781302,5.1407237,2.4657903,6.480193,5.503332,-0.602258,-3.452275,0.014003,5.171006
518,1451428117,59.16987,7.8697586,73.09425,0.76928043,0.87344676,1.7105798,7.8538995,6.7576127,3.049704,6.493014,5.517889,-0.573748,-3.321377,0.12663,5.221834
519,1451444784,59.08822,7.9519653,72.85326,0.7659292,0.8887748,1.7077764,8.199795,7.7881393,3.206036,6.505779,5.532702,-0.545285,-3.184714,0.256432,5.275268
520,1451461451,58.75529,8.06089,72.351364,0.749485,0.9191396,1.6693367,8.495025,8.688556,3.145957,6.51827,5.548021,-0.517463,-3.04313,0.401241,5.327701
521,1451478118,58.03048,8.198906,71.4563,0.7137737,0.9738938,1.5775357,8.7947445,9.240859,2.7227135,6.530166,5.564253,-0.491171,-2.896551,0.555255,5.37308
522,1451494785,57.24582,8.366348,70.48897,0.6816025,1.0275693,1.492977,8.92572,9.792049,2.330832,6.541526,5.581379,-0.466288,-2.747789,0.718456,5.411927
523,1451511452,56.408165,8.564903,69.45421,0.6531887,1.0791752,1.4164155,8.867643,10.376629,1.985658,6.552412,5.599365,-0.442681,-2.599995,0.8914,5.445021
524,1451528119,55.223003,8.797684,68.07019,0.61171055,1.1496006,1.3019075,8.747322,10.627762,1.3616735,6.562607,5.618525,-0.420983,-2.454206,1.068529,5.467716
525,1451544786,53.750683,9.066124,66.394684,0.56168175,1.2337109,1.1613533,8.520129,10.614755,0.53813183,6.571968,5.639087,-0.401627,-2.312204,1.245442,5.476685
526,1451561453,52.697304,9.253258,65.185684,0.52999306,1.2866013,1.0686077,7.9732785,10.34456,-0.045259953,6.580801,5.66053,-0.383817,-2.179316,1.417851,5.475931
527,1451578120,52.087597,9.348831,64.475235,0.51727676,1.30654,1.0251961,7.0940785,9.756019,-0.3887192,6.589422,5.682306,-0.36673,-2.061081,1.580451,5.469452
528,1451594787,51.620243,9.4099655,63.936268,0.5137825,1.311409,1.0038567,5.945118,8.879851,-0.65024316,6.597985,5.704163,-0.349999,-1.961996,1.728449,5.458615
529,1451611454,51.479362,9.403923,63.768826,0.5266247,1.2892187,1.0239347,4.4638133,7.689474,-0.71913207,6.606762,5.72565,-0.332933,-1.887599,1.856607,5.446629
530,1451628121,51.16591,9.4008255,63.447178,0.5353966,1.271657,1.0293659,2.7925138,6.076379,-0.94084644,6.615685,5.746844,-0.315777,-1.841057,1.95788,5.430948
531,1451644788,50.650078,9.4048,62.940975,0.5393448,1.2600882,1.0178294,0.92716694,4.020046,-1.3321748,6.624674,5.767845,-0.298813,-1.825604,2.024881,5.408745
532,1451661455,50.337315,9.351814,62.684124,0.5548687,1.2282183,1.0340434,-1.2637023,1.5337776,-1.627659,6.633922,5.788315,-0.281579,-1.846666,2.050444,5.381617
533,1451678122,50.12073,9.255821,62.56558,0.57782555,1.1824634,1.0664377,-3.7588549,-1.4244453,-1.9014409,6.643552,5.808023,-0.263805,-1.909314,2.026703,5.349926
534,1451694789,49.803093,9.201721,62.31605,0.597105,1.1484171,1.089789,-5.5078692,-3.152637,-2.1548545,6.653504,5.827163,-0.245642,-2.001112,1.974159,5.314012
535,1451711456,49.41559,9.188416,61.964878,0.61377144,1.1250544,1.1073496,-6.4276047,-3.4967833,-2.3565717,6.663734,5.845914,-0.227186,-2.108239,1.915879,5.274736
536,1451728123,48.979877,9.183899,61.566624,0.6304531,1.104291,1.1235621,-7.004033,-3.302269,-2.556367,6.674242,5.864319,-0.20846,-2.224973,1.860841,5.23213
537,1451744790,48.455704,9.208725,61.062885,0.644722,1.09219,1.1331251,-6.943891,-2.0923948,-2.7452812,6.684987,5.882522,-0.189575,-2.340705,1.825968,5.186375
538,1451761457,48.061935,9.195747,60.723904,0.6675997,1.0666116,1.1628975,-6.897939,-0.8688549,-2.8533888,6.696114,5.900299,-0.170193,-2.455671,1.811487,5.138819
539,1451778124,47.805664,9.14077,60.560856,0.6996212,1.0264182,1.2140169,-6.8985076,0.30687714,-2.8809147,6.707774,5.917406,-0.149959,-2.570646,1.816602,5.090804
540,1451794791,47.547535,9.093887,60.394062,0.73343277,0.9875443,1.2691171,-6.359767,2.3565798,-2.8514626,6.719998,5.933865,-0.128807,-2.676642,1.855878,5.04328
541,1451811458,47.336838,9.039955,60.284573,0.77156067,0.94504523,1.3343558,-5.4090548,5.0807905,-2.7475467,6.732857,5.949616,-0.106568,-2.766793,1.940558,4.997488
542,1451828125,46.625202,9.01149,59.68266,0.7910385,0.9135279,1.3629684,-5.1662545,6.847558,-2.7744355,6.746041,5.964841,-0.083852,-2.852897,2.054684,4.951247
543,1451844792,45.34551,9.017067,58.516613,0.7889061,0.8960969,1.3488297,-5.6562867,7.6310906,-2.9499214,6.759189,5.979776,-0.061372,-2.947168,2.181869,4.902082
544,1451861459,43.792015,9.030464,57.089886,0.7778492,0.88231117,1.318593,-6.4246917,8.084683,-3.1614828,6.772153,5.994481,-0.039395,-3.054246,2.316614,4.849391
545,1451878126,41.805054,9.062302,55.2413,0.75115585,0.8767399,1.2586633,-7.759153,7.793549,-3.464507,6.784672,6.009093,-0.018417,-3.183565,2.446506,4.791649
546,1451894793,39.665997,9.105804,53.243755,0.72032166,0.87485176,1.191937,-8.8455305,7.957864,-3.7434783,6.796677,6.023674,0.001449,-3.330991,2.579137,4.729258
547,1451911460,37.39227,9.159363,51.11529,0.6861305,0.87599796,1.1202176,-9.637661,8.646813,-3.9873242,6.808113,6.038274,0.020119,-3.491619,2.723251,4.662803
548,1451928127,34.699066,9.236198,48.57381,0.6367798,0.88662,1.0199012,-10.784927,8.9134245,-4.3007135,6.818726,6.053051,0.037117,-3.671368,2.871808,4.591124
549,1451944794,31.638668,9.335304,45.669765,0.57441807,0.90594894,0.8953892,-12.112514,9.017534,-4.6582236,6.8283,6.06815,0.05204,-3.873243,3.0221,4.513487
550,1451961461,29.205719,9.390076,43.39294,0.5363083,0.91083807,0.81277305,-12.733884,9.005091,-4.8226585,6.837238,6.083331,0.065586,-4.085474,3.172185,4.433109
551,1451978128,27.453304,9.396713,41.795628,0.52423763,0.9002451,0.7748224,-12.638265,8.766351,-4.7839785,6.845975,6.098335,0.0785,-4.296112,3.318291,4.353376
552,1451994795,25.939346,9.38681,40.43648,0.52172375,0.8848951,0.75268745,-12.123265,8.4560585,-4.636692,6.85467,6.113083,0.091045,-4.498166,3.459225,4.276098
553,1452011462,24.930244,9.342712,39.580105,0.5386524,0.85876393,0.76373494,-10.956446,8.052403,-4.317041,6.863648,6.127396,0.103774,-4.680773,3.593432,4.204147
554,1452028129,23.768974,9.306816,38.57297,0.55008507,0.83712155,0.7631305,-9.814133,7.2860856,-3.9869995,6.872816,6.141348,0.116493,-4.844342,3.714867,4.137697
555,1452044796,22.418213,9.2821045,37.37721,0.5545511,0.821067,0.7481921,-8.716426,6.1553383,-3.6529455,6.882059,6.155032,0.128963,-4.989616,3.817456,4.076815
556,1452061463,21.436607,9.232384,36.547768,0.57298756,0.7979058,0.7561429,-7.121975,4.762387,-3.1778755,6.891609,6.16833,0.141565,-5.108316,3.896829,4.02385
557,1452078130,20.688164,9.166695,35.948845,0.6001692,0.7709678,0.7774973,-5.165698,3.0401402,-2.5938635,6.901612,6.181179,0.154523,-5.194411,3.947498,3.980619
558,1452094797,20.019402,9.120308,35.38065,0.6159668,0.75401056,0.78581893,-3.6265163,1.7806304,-2.163473,6.911878,6.193746,0.16762,-5.254853,3.977175,3.944561
559,1452111464,19.492096,9.091949,34.899193,0.6211395,0.7468361,0.783303,-2.510502,1.0557345,-1.8938546,6.92223,6.206193,0.180675,-5.296695,3.994771,3.912997
560,1452128131,19.094368,9.070976,34.513947,0.6217928,0.7452335,0.7762159,-1.535161,0.43278706,-1.6808122,6.932593,6.218614,0.193612,-5.322281,4.001984,3.884983
561,1452144798,18.810883,9.065895,34.195484,0.613101,0.7526717,0.7585966,-0.89975643,0.12751281,-1.592885,6.942811,6.231159,0.206255,-5.337277,4.004109,3.858435
562,1452161465,18.88353,9.047058,34.210346,0.6122322,0.75805795,0.75550276,-0.00054323673,-0.30243897,-1.4396591,6.953015,6.243793,0.218847,-5.337286,3.999068,3.834441
563,1452178132,19.327972,9.013199,34.574425,0.6199484,0.7610377,0.76797396,1.1900034,-0.8977232,-1.2117026,6.963347,6.256477,0.231647,-5.317453,3.984106,3.814246
564,1452194799,20.023521,8.986176,35.14141,0.62371826,0.7701226,0.778792,2.2010336,-1.2529451,-1.0628662,6.973742,6.269312,0.244627,-5.280769,3.963224,3.796532
565,1452211466,21.03392,8.959564,35.978786,0.6272831,0.7830319,0.793538,3.1601067,-1.4638239,-0.95330393,6.984197,6.282363,0.257853,-5.228101,3.938827,3.780644
566,1452228133,21.692932,8.93013,36.53064,0.62994194,0.7894487,0.8067366,3.7332544,-1.685553,-0.84515667,6.994696,6.29552,0.271299,-5.16588,3.910734,3.766558
567,1452244800,21.935173,8.899956,36.73788,0.6302748,0.7893835,0.81622136,3.8279338,-1.8767594,-0.7545598,7.005201,6.308676,0.284903,-5.102081,3.879455,3.753982
568,1452261467,22.130638,8.866089,36.9197,0.63125706,0.78618705,0.82869124,3.684713,-2.0247169,-0.6736166,7.015722,6.321779,0.298715,-5.040669,3.84571,3.742755
569,1452278134,22.096031,8.828201,36.922306,0.63236046,0.77720916,0.84231985,3.187685,-2.1524906,-0.59825534,7.026261,6.334732,0.312754,-4.987541,3.809835,3.732784
570,1452294801,22.200928,8.7938,37.04295,0.6308212,0.7707353,0.8561003,2.4018555,-2.0667653,-0.5919419,7.036775,6.347578,0.327022,-4.94751,3.775389,3.722918
571,1452311468,22.479698,8.762741,37.311382,0.6268244,0.76704806,0.8706682,1.3310881,-1.7553209,-0.65741223,7.047222,6.360362,0.341533,-4.925325,3.746134,3.711961
572,1452328135,22.590324,8.731125,37.4471,0.62120914,0.7597254,0.8849474,-0.1706664,-1.3252941,-0.762266,7.057575,6.373024,0.356282,-4.928169,3.724046,3.699257
573,1452344802,22.612534,8.700546,37.514576,0.61337185,0.75047165,0.8988232,-2.1033201,-0.72753394,-0.9223587,7.067798,6.385532,0.371262,-4.963224,3.71192,3.683884
574,1452361469,22.737747,8.673584,37.66553,0.61048985,0.74400985,0.9113943,-3.3015308,-0.32459724,-0.9831669,7.077973,6.397932,0.386452,-5.01825,3.70651,3.667498
575,1452378136,22.936699,8.650276,37.87498,0.6132002,0.7400087,0.9222295,-3.686122,-0.15528476,-0.9288582,7.088193,6.410265,0.401822,-5.079685,3.703922,3.652017
576,1452394803,23.169205,8.630722,38.111706,0.61760616,0.73735434,0.9315868,-3.8214579,-0.006857395,-0.8456961,7.098486,6.422554,0.417348,-5.143376,3.703808,3.637922
577,1452411470,23.47184,8.61573,38.40379,0.6256571,0.73714745,0.93898845,-3.3933153,0.020931602,-0.6908792,7.108914,6.43484,0.432998,-5.199931,3.704157,3.626407
578,1452428137,23.646454,8.602882,38.59231,0.6334343,0.734889,0.9448317,-3.1298523,0.120518684,-0.5481472,7.119471,6.447088,0.448745,-5.252095,3.706166,3.617271
579,1452444804,23.68087,8.592377,38.66699,0.64058304,0.7304158,0.94893754,-3.0816016,0.31275767,-0.42519748,7.130147,6.459262,0.464561,-5.303455,3.711379,3.610184
580,1452461471,23.69831,8.58638,38.725132,0.6507292,0.726867,0.9505315,-2.6144066,0.41658932,-0.24324346,7.140992,6.471376,0.480403,-5.347028,3.718322,3.60613
581,1452478138,23.650574,8.584587,38.727528,0.6630335,0.7232605,0.9495213,-1.8817798,0.47470552,-0.020105362,7.152043,6.48343,0.496228,-5.378391,3.726234,3.605795
582,1452494805,23.526093,8.582779,38.64089,0.6708803,0.7195256,0.9480537,-1.4992982,0.7073152,0.08809376,7.163224,6.495422,0.512029,-5.403379,3.738023,3.607263
583,1452511472,23.330238,8.580933,38.46625,0.67411137,0.7159684,0.9460715,-1.4421717,1.1115628,0.07688403,7.174459,6.507355,0.527797,-5.427415,3.756549,3.608544
584,1452528139,23.028458,8.581078,38.1863,0.6753044,0.71191216,0.9423238,-1.5181079,1.611673,0.008544087,7.185714,6.51922,0.543502,-5.452717,3.78341,3.608686
585,1452544806,22.614815,8.582191,37.788677,0.67273617,0.70739704,0.93724763,-1.8730512,2.2620015,-0.15771401,7.196926,6.53101,0.559123,-5.483935,3.82111,3.606057
586,1452561473,22.118423,8.587662,37.309322,0.6711416,0.7032522,0.929115,-1.9847502,2.8915882,-0.31174183,7.208112,6.542731,0.574608,-5.517014,3.869303,3.600861
587,1452578140,21.529465,8.597832,36.740032,0.6707411,0.69940996,0.9176434,-1.8275619,3.4924316,-0.4481864,7.219291,6.554388,0.589902,-5.547473,3.92751,3.593391
588,1452594807,20.823639,8.610252,36.04777,0.6676941,0.69549054,0.9039526,-1.7803534,4.1952405,-0.6571255,7.230419,6.56598,0.604968,-5.577146,3.997431,3.582439
589,1452611474,20.000778,8.625809,35.233967,0.662982,0.691651,0.8875314,-1.727596,4.9634113,-0.9157322,7.241469,6.577508,0.61976,-5.605939,4.080155,3.567177
590,1452628141,19.233803,8.63736,34.475597,0.6585722,0.6889527,0.87004924,-1.629366,5.4604445,-1.075405,7.252445,6.588991,0.634261,-5.633095,4.171162,3.549254
591,1452644808,18.53312,8.643982,33.78205,0.6541662,0.68748504,0.8516879,-1.5208459,5.667155,-1.1328712,7.263348,6.600449,0.648456,-5.658442,4.265615,3.530373
592,1452661475,17.812424,8.649727,33.06609,0.649456,0.68686444,0.83118904,-1.3373798,5.715946,-1.1432071,7.274172,6.611897,0.662309,-5.680732,4.360881,3.51132
593,1452678142,17.11734,8.652496,32.373833,0.64483833,0.6874078,0.8089719,-1.075856,5.513354,-1.0674478,7.284919,6.623354,0.675792,-5.698663,4.45277,3.493529
594,1452694809,16.331818,8.655945,31.585026,0.6381216,0.68837434,0.78414,-0.851982,5.2860684,-1.015441,7.295554,6.634827,0.688861,-5.712863,4.540871,3.476605
595,1452711476,15.446159,8.660332,30.68954,0.62920856,0.6897648,0.7564955,-0.65936023,5.0404067,-0.99158186,7.306041,6.646323,0.701469,-5.723852,4.624878,3.460079
596,1452728143,14.556419,8.662018,29.785664,0.6194706,0.69224954,0.7267924,-0.4378575,4.5788536,-0.90722275,7.316366,6.65786,0.713582,-5.73115,4.701192,3.444959
597,1452744810,13.63649,8.661697,28.846073,0.6083927,0.6957042,0.6947632,-0.20997551,3.9440217,-0.7847917,7.326506,6.669455,0.725161,-5.73465,4.766926,3.431879
598,1452761477,12.971413,8.660934,28.169662,0.6017208,0.6972995,0.67338103,-0.07685202,3.381185,-0.6864108,7.336535,6.681077,0.736384,-5.735931,4.823279,3.420439
599,1452778144,12.602173,8.659256,27.798733,0.60013103,0.69686145,0.66403115,-0.044555128,2.8847342,-0.60658157,7.346537,6.692691,0.747451,-5.736674,4.871358,3.410329
600,1452794811,12.377411,8.656326,27.574379,0.6005306,0.6956654,0.6604137,-0.08182943,2.3620605,-0.5302137,7.356546,6.704285,0.758458,-5.738038,4.910726,3.401492
601,1452811478,12.383743,8.652267,27.587006,0.60457706,0.69294375,0.6662999,-0.21834677,1.8712502,-0.4710896,7.366622,6.715834,0.769563,-5.741677,4.941914,3.393641
602,1452828145,12.4811325,8.645126,27.688839,0.60927296,0.6905486,0.67433965,-0.37680614,1.2103925,-0.36864984,7.376777,6.727343,0.780802,-5.747957,4.962087,3.387497
603,1452844812,12.663994,8.634697,27.87357,0.61441517,0.6885827,0.68422234,-0.55767816,0.36557597,-0.22003233,7.387017,6.738819,0.792206,-5.757252,4.96818,3.38383
604,1452861479,13.082893,8.621918,28.298965,0.62298775,0.6854514,0.70305765,-0.8276689,-0.51665056,-0.066110134,7.3974,6.750243,0.803924,-5.771046,4.959569,3.382728
605,1452878146,13.714813,8.606262,28.940338,0.63441944,0.68153393,0.72951037,-1.1735766,-1.4831482,0.106909275,7.407974,6.761602,0.816083,-5.790606,4.93485,3.38451
606,1452894813,14.123001,8.593452,29.356491,0.64156437,0.6789698,0.74776995,-1.3657639,-2.0772429,0.20903444,7.418667,6.772918,0.828546,-5.813369,4.900229,3.387994
607,1452911480,14.291374,8.584061,29.531937,0.644186,0.67775273,0.7574292,-1.3918127,-2.2381535,0.22752488,7.429403,6.784214,0.84117,-5.836566,4.862926,3.391786
608,1452928147,14.417938,8.574791,29.665714,0.6453552,0.6771101,0.7652956,-1.3534579,-2.2147827,0.2149651,7.440159,6.795499,0.853925,-5.859124,4.826013,3.395369
609,1452944814,14.390228,8.567238,29.644463,0.64322186,0.67757696,0.7673377,-1.1890144,-1.872034,0.14487219,7.450879,6.806792,0.866714,-5.878941,4.794812,3.397784
610,1452961481,14.509163,8.558075,29.773586,0.64276886,0.67748237,0.77486134,-1.052919,-1.4388899,0.059425235,7.461592,6.818083,0.879628,-5.89649,4.770831,3.398774
611,1452978148,14.796463,8.546967,30.075012,0.64430714,0.67674226,0.78862345,-0.9538763,-0.928949,-0.037961483,7.47233,6.829362,0.892772,-5.912388,4.755349,3.398141
612,1452994815,15.008003,8.536873,30.30185,0.6437845,0.6766378,0.79962265,-0.76133585,-0.104748845,-0.19219458,7.48306,6.840639,0.906099,-5.925077,4.753603,3.394938
613,1453011482,15.210358,8.527054,30.521717,0.64227676,0.6768085,0.81035256,-0.5073429,0.99232835,-0.39532638,7.493765,6.851919,0.919605,-5.933533,4.770142,3.388349
614,1453028149,15.322578,8.517006,30.645466,0.6410322,0.67596483,0.81573665,-0.3296758,1.6584256,-0.5274359,7.504449,6.863185,0.933201,-5.939028,4.797782,3.379558
615,1453044816,15.306755,8.507072,30.634186,0.63967514,0.67412436,0.81418246,-0.22454306,1.8635309,-0.58409643,7.51511,6.87442,0.946771,-5.94277,4.828841,3.369823
616,1453061483,15.246384,8.496979,30.576065,0.63832855,0.67164296,0.8097835,-0.1473797,1.9202449,-0.61796445,7.525749,6.885614,0.960267,-5.945226,4.860845,3.359524
617,1453078150,15.10878,8.48671,30.436073,0.6371918,0.6681887,0.8007424,-0.13158962,1.6441263,-0.5979039,7.536369,6.89675,0.973613,-5.947419,4.888247,3.349559
618,1453094817,14.879883,8.477303,30.204319,0.6344929,0.66482943,0.787729,-0.06245947,1.5128592,-0.60610414,7.546944,6.90783,0.986742,-5.94846,4.913461,3.339457
619,1453111484,14.561325,8.468773,29.88277,0.63018036,0.66158676,0.7708632,0.0654524,1.5567968,-0.6478459,7.557447,6.918856,0.99959,-5.947369,4.939408,3.32866
620,1453128151,14.127029,8.460663,29.441227,0.62525177,0.6576359,0.74805987,0.1674096,1.3806618,-0.65578014,7.567868,6.929817,1.012058,-5.944579,4.962419,3.31773
621,1453144818,13.569778,8.453224,28.87331,0.6192951,0.65318894,0.719278,0.268461,1.0866978,-0.64762735,7.57819,6.940703,1.024046,-5.940105,4.980531,3.306936
622,1453161485,13.228279,8.443825,28.518463,0.61783504,0.64925313,0.7044755,0.3328715,0.9720305,-0.65651476,7.588487,6.951524,1.035787,-5.934557,4.996732,3.295994
623,1453178152,13.126076,8.432175,28.39959,0.6214838,0.64582264,0.70510364,0.34771073,1.0159844,-0.67729443,7.598845,6.962288,1.047539,-5.928762,5.013665,3.284706
624,1453194819,13.093239,8.419785,28.346912,0.62731266,0.6425563,0.71151686,0.3473605,1.1464281,-0.70621747,7.6093,6.972997,1.059398,-5.922973,5.032772,3.272936
625,1453211486,13.220459,8.405922,28.451008,0.63690567,0.63970816,0.72915107,0.31910533,1.432262,-0.75007725,7.619915,6.983659,1.071551,-5.917655,5.056643,3.260435
626,1453228153,13.300034,8.392052,28.502602,0.64729595,0.63645804,0.7457316,0.26204294,1.5999646,-0.772498,7.630703,6.994267,1.08398,-5.913288,5.083309,3.24756
627,1453244820,13.315681,8.378326,28.485203,0.65829086,0.63277054,0.76045424,0.17788601,1.6394771,-0.77232075,7.641675,7.004813,1.096654,-5.910323,5.110634,3.234688
628,1453261487,13.448418,8.36338,28.58036,0.67277527,0.6292696,0.7841706,0.05496961,1.7432091,-0.7728043,7.652888,7.015301,1.109724,-5.909407,5.139687,3.221808
629,1453278154,13.653458,8.347534,28.742779,0.690176,0.6257807,0.8143431,-0.10776827,1.8516108,-0.7657824,7.664391,7.025731,1.123296,-5.911203,5.170547,3.209045
630,1453294821,13.605194,8.336815,28.67234,0.69902515,0.6233014,0.8296484,-0.31517607,2.0063312,-0.74195194,7.676041,7.036119,1.137123,-5.916456,5.203986,3.196679
631,1453311488,13.294609,8.33165,28.362526,0.6986208,0.6220083,0.8294538,-0.57155466,2.231248,-0.7021742,7.687685,7.046486,1.150947,-5.925982,5.241173,3.184976
632,1453328155,12.845238,8.329407,27.924385,0.6940317,0.62131727,0.822206,-0.8771666,2.464134,-0.64453536,7.699252,7.056841,1.16465,-5.940601,5.282242,3.174234
633,1453344822,12.171173,8.3317795,27.279263,0.6821337,0.6215409,0.8023107,-1.2359018,2.721156,-0.5663423,7.710621,7.0672,1.178022,-5.961199,5.327595,3.164795
634,1453361489,11.505554,8.334991,26.645596,0.67034435,0.6222731,0.7849601,-1.6495147,3.0271273,-0.47835982,7.721793,7.077571,1.191105,-5.988691,5.378047,3.156822
635,1453378156,10.857681,8.33889,26.03189,0.6590376,0.62349486,0.77086943,-2.120676,3.377451,-0.37966216,7.732777,7.087963,1.203953,-6.024036,5.434338,3.150494
636,1453394823,10.036293,8.346886,25.260784,0.64176273,0.625703,0.74762726,-2.653841,3.7746868,-0.26203978,7.743473,7.098391,1.216413,-6.068267,5.497249,3.146127
637,1453411490,9.088486,8.358223,24.376572,0.62000465,0.62883806,0.7183716,-3.2516627,4.224185,-0.12701774,7.753806,7.108872,1.228386,-6.122461,5.567652,3.14401
638,1453428157,8.290619,8.365036,23.63596,0.6083164,0.62960076,0.6951783,-3.680717,4.5271792,-0.047156096,7.763945,7.119365,1.239972,-6.183806,5.643105,3.143224
639,1453444824,7.6447372,8.367004,23.041233,0.6072502,0.6277565,0.6776285,-3.9198637,4.6667686,-0.028446198,7.774066,7.129828,1.251266,-6.249137,5.720884,3.14275
640,1453461491,7.0502625,8.367508,22.49961,0.61086273,0.62484527,0.66204697,-4.0823555,4.741458,-0.037387013,7.784247,7.140242,1.2623,-6.317176,5.799908,3.142127
641,1453478158,6.5777435,8.364456,22.076942,0.62301254,0.61996317,0.65135103,-4.1023846,4.6961946,-0.094386816,7.794631,7.150575,1.273156,-6.385549,5.878178,3.140554
642,1453494825,6.014374,8.363396,21.575851,0.63351536,0.61517394,0.63519263,-4.1184664,4.6454773,-0.15448844,7.80519,7.160828,1.283743,-6.45419,5.955603,3.137979
643,1453511492,5.350334,8.364655,20.987633,0.641881,0.6105957,0.61311936,-4.138148,4.5965686,-0.21557486,7.815888,7.171005,1.293962,-6.523159,6.032212,3.134386
644,1453528159,4.751816,8.363693,20.46703,0.65653515,0.6044053,0.5926999,-4.0336075,4.4438543,-0.31834388,7.82683,7.181078,1.30384,-6.590386,6.106276,3.12908
645,1453544826,4.1738358,8.361687,19.972626,0.6753864,0.59702027,0.5716843,-3.8318515,4.2102175,-0.45409548,7.838086,7.191028,1.313368,-6.65425,6.176446,3.121512
646,1453561493,3.5703583,8.3613205,19.432442,0.6853123,0.5926039,0.5533137,-3.6448889,4.0603113,-0.5041299,7.849508,7.200905,1.32259,-6.714998,6.244118,3.11311
647,1453578160,2.9571762,8.362282,18.858494,0.6861124,0.5913166,0.53874236,-3.464116,3.9948182,-0.46259522,7.860943,7.21076,1.331569,-6.772733,6.310698,3.1054
648,1453594827,2.3260345,8.36409,18.257294,0.682621,0.5914545,0.52486855,-3.251433,3.9493985,-0.38037002,7.87232,7.220618,1.340317,-6.826924,6.376521,3.09906
649,1453611494,1.6701202,8.36731,17.614262,0.671443,0.59412205,0.5128377,-3.0306978,3.9650946,-0.22563028,7.883511,7.23052,1.348864,-6.877436,6.442606,3.095299
650,1453628161,1.0601578,8.369217,17.01247,0.66242886,0.59641886,0.502718,-2.6999216,3.917326,-0.078489065,7.894551,7.24046,1.357243,-6.922435,6.507895,3.093991
651,1453644828,0.4980011,8.369682,16.45454,0.6560116,0.5982053,0.49435192,-2.25112,3.7986455,0.056943417,7.905485,7.25043,1.365482,-6.959954,6.571206,3.09494
652,1453661495,-0.05544281,8.370537,15.888168,0.6443472,0.6018864,0.488794,-1.7522097,3.705172,0.24834585,7.916224,7.260461,1.373629,-6.989157,6.632959,3.099079
653,1453678162,-0.5836029,8.371132,15.332104,0.62948513,0.6068667,0.48613477,-1.1780921,3.609466,0.47931397,7.926715,7.270575,1.381731,-7.008792,6.693117,3.107068
654,1453694829,-1.0673676,8.373322,14.838467,0.6209831,0.60997045,0.48089105,-0.76832855,3.4741697,0.6285018,7.937065,7.280741,1.389746,-7.021597,6.75102,3.117543
655,1453711496,-1.5061951,8.3774185,14.408741,0.6188097,0.61119974,0.47283894,-0.5519623,3.306428,0.69287264,7.947378,7.290928,1.397627,-7.030796,6.806127,3.129091
656,1453728163,-1.8953171,8.382111,14.033134,0.6198139,0.61167157,0.46476316,-0.3964524,3.1045227,0.7191757,7.957708,7.301123,1.405373,-7.037404,6.857869,3.141077
657,1453744830,-2.227768,8.387924,13.726955,0.62642765,0.6105833,0.45528752,-0.3708193,2.860601,0.67567074,7.968148,7.311299,1.412961,-7.043584,6.905546,3.152338
658,1453761497,-2.5223923,8.3942795,13.448357,0.63102436,0.6104239,0.44795388,-0.35032588,2.6199088,0.6507467,7.978665,7.321473,1.420427,-7.049423,6.949211,3.163184
659,1453778164,-2.775795,8.401062,13.199093,0.63332367,0.61130524,0.44311348,-0.32562447,2.3824694,0.6483835,7.98922,7.331661,1.427812,-7.05485,6.988919,3.17399
660,1453794831,-2.9705124,8.409027,13.015106,0.63921547,0.61130595,0.43789077,-0.42052835,2.1192796,0.59707606,7.999874,7.341849,1.43511,-7.061859,7.02424,3.183941
661,1453811498,-3.1077805,8.41806,12.890053,0.64711857,0.61095405,0.43312117,-0.61060727,1.8397079,0.5150875,8.010659,7.352032,1.442329,-7.072036,7.054902,3.192526
662,1453828165,-3.2318497,8.426849,12.761711,0.6521616,0.61154056,0.43064362,-0.65344733,1.5851835,0.48177755,8.021528,7.362224,1.449506,-7.082927,7.081322,3.200556
663,1453844832,-3.3429413,8.435394,12.630234,0.65458107,0.612965,0.43033272,-0.544492,1.3571727,0.4958402,8.032438,7.37244,1.456678,-7.092002,7.103942,3.20882
664,1453861499,-3.4186783,8.444252,12.522835,0.65562344,0.6149771,0.43194324,-0.38482904,1.1429262,0.5317093,8.043365,7.38269,1.463877,-7.098416,7.122991,3.217682
665,1453878166,-3.4693756,8.453117,12.424641,0.6541109,0.61788106,0.43593317,-0.11308676,0.95402986,0.60912764,8.054267,7.392988,1.471143,-7.100301,7.138891,3.227834
666,1453894833,-3.460472,8.462952,12.385029,0.6544533,0.620427,0.44062594,0.09579301,0.7586812,0.6628784,8.065175,7.403328,1.478487,-7.098704,7.151536,3.238882
667,1453911500,-3.388008,8.473801,12.408222,0.6567936,0.62258494,0.4460356,0.2306363,0.556703,0.690271,8.076122,7.413704,1.485921,-7.09486,7.160814,3.250387
668,1453928167,-3.2767868,8.48497,12.458057,0.65794754,0.62523127,0.45340997,0.42984164,0.37465256,0.74046314,8.087088,7.424125,1.493478,-7.087696,7.167058,3.262728
669,1453944834,-3.1178665,8.496643,12.54641,0.6588545,0.6281023,0.4624359,0.65499234,0.20676738,0.79958093,8.098069,7.434593,1.501185,-7.076779,7.170504,3.276054
670,1453961501,-3.0303574,8.506569,12.579163,0.65885067,0.6302283,0.4675626,0.8228971,0.1222142,0.8267373,8.10905,7.445097,1.508978,-7.063064,7.172541,3.289833
671,1453978168,-3.0281982,8.514412,12.54343,0.65751743,0.6316041,0.468391,0.9414213,0.13227361,0.82348716,8.120009,7.455624,1.516785,-7.047374,7.174746,3.303558
672,1453994835,-3.0482864,8.521393,12.492462,0.6558132,0.6324991,0.4673364,1.0229924,0.201742,0.7995211,8.130939,7.466166,1.524574,-7.030324,7.178108,3.316883
673,1454011502,-3.1250992,8.526863,12.398514,0.6534548,0.63265383,0.46284705,1.0482539,0.35258204,0.7446059,8.14183,7.47671,1.532288,-7.012853,7.183984,3.329293
674,1454028169,-3.1944427,8.531967,12.308128,0.64997673,0.6328579,0.45850098,1.099416,0.55392003,0.69513977,8.152663,7.487258,1.53993,-6.994529,7.193216,3.340879
675,1454044836,-3.2522888,8.536766,12.224636,0.64541626,0.6331202,0.45444113,1.1777511,0.80574036,0.6518253,8.16342,7.49781,1.547504,-6.9749,7.206645,3.351743
676,1454061503,-3.3617249,8.540047,12.099709,0.6397257,0.632812,0.44749057,1.2259798,1.1446787,0.5876347,8.174082,7.508357,1.554962,-6.954467,7.225723,3.361537
677,1454078170,-3.5104904,8.542,11.942066,0.63277817,0.63208365,0.43833697,1.2611212,1.5668402,0.50993407,8.184628,7.518892,1.562268,-6.933448,7.251837,3.370036
678,1454094837,-3.5298233,8.548714,11.904354,0.6288023,0.6324705,0.4334461,1.3062998,1.7080159,0.49832904,8.195108,7.529433,1.569492,-6.911676,7.280304,3.378341
679,1454111504,-3.4128418,8.560562,11.993835,0.62814903,0.63404036,0.4329904,1.3575805,1.5387802,0.5576595,8.205577,7.54,1.576709,-6.88905,7.30595,3.387635
680,1454128171,-3.2326431,8.574814,12.142933,0.6286993,0.63615954,0.4343124,1.4157547,1.2300645,0.65545213,8.216055,7.550603,1.583948,-6.865454,7.326451,3.398559
681,1454144838,-2.9448853,8.5931015,12.39209,0.6316166,0.63923967,0.43908376,1.4859334,0.6802553,0.81381214,8.226582,7.561257,1.591266,-6.840688,7.337789,3.412123
682,1454161505,-2.6651611,8.611595,12.639236,0.6344242,0.64220595,0.44264245,1.5389515,0.11185086,0.97941697,8.237156,7.57196,1.598643,-6.815039,7.339653,3.428447
683,1454178172,-2.400299,8.630074,12.878284,0.63694954,0.6450077,0.44472387,1.5747627,-0.46356702,1.1504918,8.247772,7.58271,1.606055,-6.788793,7.331927,3.447622
684,1454194839,-2.0547104,8.651909,13.194939,0.64144707,0.64854026,0.449072,1.6122042,-1.2473477,1.3735069,8.258463,7.593519,1.61354,-6.761923,7.311138,3.470514
685,1454211506,-1.6528397,8.676338,13.567753,0.6474104,0.65258366,0.4546894,1.645235,-2.1958222,1.6382796,8.269253,7.604395,1.621118,-6.734502,7.274541,3.497819
686,1454228173,-1.1848831,8.696312,14.008717,0.64973164,0.65724325,0.4625196,1.6776956,-2.8457408,1.7730044,8.280082,7.615349,1.628827,-6.70654,7.227112,3.527369
687,1454244840,-0.6372528,8.711624,14.530621,0.64822006,0.6626539,0.4731297,1.7118226,-3.1805072,1.7671534,8.290886,7.626393,1.636712,-6.67801,7.174104,3.556822
688,1454261507,-0.030265808,8.7250595,15.114304,0.6449709,0.66863215,0.48541772,1.7415711,-3.3929625,1.6956137,8.301636,7.637537,1.644802,-6.648984,7.117555,3.585082
689,1454278174,0.64334106,8.7348175,15.767464,0.6386328,0.67525536,0.4998127,1.7683941,-3.3614311,1.5113884,8.31228,7.648791,1.653132,-6.619511,7.061531,3.610272
690,1454294841,1.4034729,8.7458725,16.50637,0.63275623,0.68271494,0.51675606,1.795359,-3.4103022,1.3269984,8.322826,7.66017,1.661745,-6.589588,7.004693,3.632389
691,1454311508,2.2512512,8.758484,17.33229,0.62751484,0.69102937,0.53625464,1.8220152,-3.556942,1.1477598,8.333285,7.671687,1.670683,-6.559221,6.945411,3.651518
692,1454328175,3.1853714,8.768562,18.246109,0.61996746,0.70019704,0.5585426,1.8481559,-3.5349798,0.87604606,8.343618,7.683357,1.679992,-6.528418,6.886495,3.666119
693,1454344842,4.212242,8.777115,19.253548,0.6108475,0.7102856,0.5837915,1.8744313,-3.4123735,0.53426707,8.353799,7.695195,1.689722,-6.497177,6.829622,3.675023
694,1454361509,5.0760193,8.780243,20.08654,0.60633945,0.7158153,0.6051159,1.8436276,-3.3021245,0.28023672,8.363905,7.707125,1.699807,-6.46645,6.774587,3.679694
695,1454378176,5.753708,8.776955,20.72107,0.6066847,0.7162617,0.621971,1.7501472,-3.1806407,0.11581731,8.374016,7.719063,1.710173,-6.437281,6.721576,3.681624
696,1454394843,6.372246,8.769791,21.289349,0.6094389,0.71426564,0.63780504,1.6213602,-3.0384321,-0.019916534,8.384173,7.730967,1.720803,-6.410258,6.670935,3.681292
697,1454411510,6.860054,8.75737,21.716274,0.6162596,0.7082649,0.65073705,1.4408592,-2.895918,-0.08683884,8.394444,7.742771,1.731649,-6.386244,6.62267,3.679845
698,1454428177,7.3668213,8.740837,22.15924,0.62279034,0.70143825,0.66489726,1.2413157,-2.61623,-0.20360255,8.404824,7.754462,1.742731,-6.365555,6.579066,3.676452
699,1454444844,7.9017105,8.720192,22.627636,0.62885,0.69393915,0.6805811,1.024161,-2.1931767,-0.376554,8.415305,7.766028,1.754074,-6.348486,6.542513,3.670176
700,1454461511,8.326653,8.693565,22.97636,0.6380663,0.6827726,0.69409597,0.7582152,-1.7082671,-0.5126916,8.425939,7.777408,1.765642,-6.335849,6.514042,3.661631
701,1454478178,8.671417,8.6609955,23.236557,0.6495609,0.6685386,0.70630306,0.44950223,-1.1288759,-0.63752645,8.436765,7.78855,1.777414,-6.328357,6.495227,3.651006
702,1454494845,8.919174,8.639954,23.419804,0.65765476,0.6581183,0.71627176,0.20748675,-0.5484761,-0.6928523,8.447726,7.799519,1.789352,-6.324899,6.486086,3.639458
703,1454511512,9.046822,8.631729,23.50476,0.6622734,0.6517286,0.72337437,0.038184404,0.019320786,-0.6614105,8.458764,7.810381,1.801408,-6.324263,6.486408,3.628434
704,1454528179,9.078468,8.627991,23.502903,0.6655464,0.6464449,0.72856474,-0.10681039,0.64511514,-0.58762115,8.469856,7.821155,1.813551,-6.326043,6.49716,3.61864
705,1454544846,9.000053,8.633476,23.407925,0.6660166,0.64404964,0.7313614,-0.1980417,1.3036705,-0.45104647,8.480956,7.831889,1.82574,-6.329344,6.518888,3.611123
706,1454561513,8.781212,8.637489,23.170944,0.6679783,0.6396861,0.73129135,-0.3079214,2.0327263,-0.26082754,8.492089,7.84255,1.837928,-6.334476,6.552767,3.606776
707,1454578180,8.416496,8.639313,22.78556,0.6716366,0.63305974,0.72827023,-0.4404156,2.8409672,-0.017925978,8.503283,7.853101,1.850066,-6.341816,6.600116,3.606477
708,1454594847,7.90316,8.648521,22.265068,0.6736069,0.6281022,0.7219868,-0.533767,3.6893506,0.3022219,8.51451,7.863569,1.862099,-6.350712,6.661605,3.611514
709,1454611514,7.228676,8.662926,21.59317,0.674798,0.6237689,0.712206,-0.60285443,4.5882444,0.69996965,8.525757,7.873965,1.873969,-6.36076,6.738076,3.62318
710,1454628181,6.611931,8.677742,20.966618,0.6736355,0.62361515,0.6978881,-0.65162724,5.164522,0.98030007,8.536984,7.884359,1.8856,-6.37162,6.824151,3.639518
711,1454644848,6.067322,8.693855,20.3998,0.6695337,0.62850094,0.6787007,-0.67182285,5.37513,1.1301924,8.548143,7.894834,1.896912,-6.382817,6.913737,3.658355
712,1454661515,5.4767685,8.71225,19.782852,0.66382885,0.63607085,0.6548023,-0.6706295,5.402431,1.2444717,8.559207,7.905435,1.907825,-6.393994,7.003778,3.679096
713,1454678182,4.8972015,8.732079,19.167168,0.65592575,0.6475228,0.62571704,-0.64586776,5.1363673,1.2707399,8.570139,7.916227,1.918254,-6.404758,7.089384,3.700275
714,1454694849,4.1924973,8.758766,18.433903,0.6458101,0.6618436,0.5917338,-0.57806575,4.783974,1.3308848,8.580903,7.927258,1.928116,-6.414392,7.169117,3.722456
715,1454711516,3.348648,8.792709,17.569942,0.63349247,0.67899066,0.5526402,-0.46561414,4.3530083,1.4335898,8.591461,7.938575,1.937327,-6.422152,7.241667,3.746349
716,1454728183,2.4802628,8.830734,16.676704,0.6183758,0.70063365,0.5077185,-0.31459457,3.6387796,1.4730257,8.601767,7.950252,1.945789,-6.427395,7.302313,3.770899
717,1454744850,1.5555725,8.874199,15.726131,0.60037136,0.7266907,0.456833,-0.11914849,2.677702,1.4750584,8.611773,7.962364,1.953403,-6.429381,7.346941,3.795483
718,1454761517,0.9301605,8.90654,15.086472,0.58963776,0.74314827,0.42637196,-0.0050351024,1.9899403,1.4580518,8.6216,7.97475,1.960509,-6.429465,7.380107,3.819784
719,1454778184,0.65406036,8.925934,14.807491,0.5870037,0.74898416,0.41876286,0.016508937,1.5926964,1.4093367,8.631383,7.987233,1.967488,-6.42919,7.406652,3.843273
720,1454794851,0.53829193,8.941353,14.696907,0.5875368,0.7508815,0.42137653,0.010390103,1.2570729,1.3365873,8.641175,7.999748,1.974511,-6.429017,7.427603,3.865549
721,1454811518,0.6902771,8.948105,14.865398,0.5940552,0.7450073,0.44169933,-0.05815488,1.1170232,1.2397135,8.651076,8.012165,1.981873,-6.429986,7.44622,3.886211
722,1454828185,0.93216705,8.955208,15.124538,0.60043716,0.7400426,0.46411657,-0.115935504,0.80811644,1.0801102,8.661083,8.024499,1.989608,-6.431918,7.459689,3.904213
723,1454844852,1.2561493,8.963356,15.466373,0.6063185,0.7365241,0.48785695,-0.15754026,0.3057708,0.8553237,8.671188,8.036774,1.997739,-6.434544,7.464785,3.918468
724,1454861519,1.8506775,8.963898,16.08746,0.61722183,0.72677135,0.5274348,-0.2497999,-0.09587526,0.5820056,8.681475,8.048887,2.00653,-6.438707,7.463187,3.928168
725,1454878186,2.6857452,8.958656,16.955692,0.6319208,0.7125607,0.57986504,-0.3775591,-0.476712,0.24962902,8.692007,8.060763,2.016194,-6.445,7.455242,3.932328
726,1454894853,3.1418076,8.955711,17.436829,0.6407852,0.70415837,0.61095756,-0.4304259,-0.67813027,0.00421381,8.702687,8.072499,2.026377,-6.452174,7.44394,3.932398
727,1454911520,3.1905518,8.954514,17.502106,0.64365673,0.70150274,0.61952996,-0.40690672,-0.6479242,-0.14065194,8.713415,8.084191,2.036702,-6.458956,7.433141,3.930054
728,1454928187,3.1122742,8.952301,17.437443,0.64433956,0.70084244,0.6200529,-0.34969157,-0.5146097,-0.2633413,8.724154,8.095872,2.047036,-6.464784,7.424564,3.925665
729,1454944854,2.7443466,8.950813,17.076344,0.640378,0.70471996,0.60360575,-0.23063469,-0.22078764,-0.32366347,8.734827,8.107617,2.057096,-6.468628,7.420884,3.920271
730,1454961521,2.5040436,8.943001,16.846897,0.6388569,0.7051128,0.5941484,-0.13126096,0.21669227,-0.4046005,8.745475,8.119369,2.066998,-6.470816,7.424496,3.913528
731,1454978188,2.4189377,8.928276,16.77716,0.64016914,0.70158947,0.59306747,-0.055825353,0.7951548,-0.5131489,8.756144,8.131062,2.076882,-6.471746,7.437749,3.904976
732,1454994855,2.1426544,8.91153,16.511951,0.63870144,0.70026016,0.5808041,0.06015241,1.5796292,-0.5731633,8.766789,8.142733,2.086562,-6.470743,7.464076,3.895423
733,1455011522,1.7649612,8.891006,16.143234,0.6359749,0.6993724,0.56245184,0.19929034,2.573193,-0.6022438,8.777389,8.154389,2.095936,-6.467421,7.506963,3.885386
734,1455028189,1.4900208,8.874962,15.872749,0.6342287,0.6979267,0.54964995,0.274387,3.1319857,-0.63245237,8.787959,8.166021,2.105097,-6.462848,7.559163,3.874845
735,1455044856,1.2940369,8.864586,15.675293,0.63300514,0.69651634,0.54107445,0.28445935,3.209621,-0.6560728,8.798509,8.17763,2.114115,-6.458107,7.612657,3.86391
736,1455061523,1.1404572,8.854668,15.5167885,0.6322756,0.6943873,0.5346056,0.25870585,3.1191802,-0.668801,8.809047,8.189203,2.123025,-6.453795,7.664643,3.852763
737,1455078190,1.0734024,8.847588,15.44022,0.63247585,0.69143975,0.53277194,0.17429096,2.6858215,-0.6756037,8.819588,8.200727,2.131905,-6.45089,7.709407,3.841503
738,1455094857,0.8860245,8.839554,15.23769,0.6308594,0.6897851,0.52373415,0.09809631,2.3061786,-0.63790613,8.830102,8.212223,2.140634,-6.449255,7.747843,3.830871
