PacketCounter,SampleTimeFine,Euler_X,Euler_Y,Euler_Z,Acc_X,Acc_Y,Acc_Z,Gyr_X,Gyr_Y,Gyr_Z,Velo_X,Velo_Y,Velo_Z,ANG_X,ANG_Y,ANG_Z
0,2095710358,48.318016,-11.765663,-57.655933,-1.3119249,-0.709934,1.1232142,-1.400107,-1.5536234,-0.00555861,0.0,0.0,0.0,0.0,0.0,0.0
1,2095727025,48.28356,-11.776871,-57.624355,-1.0384111,-0.64751816,0.96616554,-1.5787592,-1.6233178,0.086986065,-0.017307,-0.010792,0.016103,-0.026313,-0.027055,0.00145
2,2095743692,48.2472,-11.788681,-57.591686,-0.7412019,-0.5799247,0.7953272,-1.7681932,-1.6944281,0.18607402,-0.02966,-0.020457,0.029358,-0.055783,-0.055295,0.004551
3,2095760359,48.20951,-11.800922,-57.558483,-0.42457676,-0.5081364,0.6131649,-1.9657371,-1.7656667,0.29031718,-0.036736,-0.028926,0.039577,-0.088545,-0.084723,0.00939
4,2095777026,48.15963,-11.817219,-57.51338,-0.0014925003,-0.41215897,0.36957455,-2.22646,-1.8630306,0.42843628,-0.036761,-0.035795,0.045737,-0.125653,-0.115774,0.016531
5,2095793693,48.09986,-11.836781,-57.458904,0.5103612,-0.29608703,0.074715614,-2.538567,-1.980593,0.59440494,-0.028255,-0.04073,0.046982,-0.167962,-0.148784,0.026438
6,2095810360,48.04722,-11.852951,-57.420925,0.8478198,-0.2180605,-0.117144585,-2.769989,-2.0428243,0.6870452,-0.014125,-0.044364,0.04503,-0.214128,-0.182831,0.037889
7,2095827027,48.0017,-11.865589,-57.40038,0.99794626,-0.18083096,-0.1982851,-2.9157424,-2.0458088,0.7005048,0.002507,-0.047378,0.041725,-0.262724,-0.216928,0.049564
8,2095843694,47.956627,-11.877399,-57.386578,1.0749984,-0.15926945,-0.23580217,-3.0313413,-2.0215015,0.67897654,0.020424,-0.050032,0.037795,-0.313246,-0.25062,0.06088
9,2095860361,47.916252,-11.886662,-57.38635,1.0086627,-0.16886914,-0.18842316,-3.0820377,-1.9494818,0.5949898,0.037235,-0.052846,0.034655,-0.364613,-0.283111,0.070796
10,2095877028,47.86767,-11.898315,-57.381504,0.97621393,-0.17024648,-0.1597929,-3.160018,-1.8806175,0.51516604,0.053505,-0.055683,0.031992,-0.41728,-0.314455,0.079382
11,2095893695,47.81002,-11.91264,-57.371136,0.9872775,-0.16125655,-0.1555214,-3.2703075,-1.8172884,0.4428326,0.06996,-0.058371,0.0294,-0.471785,-0.344743,0.086763
12,2095910362,47.753242,-11.925735,-57.37016,0.8924546,-0.1749568,-0.08808756,-3.3370652,-1.7161916,0.32064152,0.084834,-0.061287,0.027932,-0.527403,-0.373346,0.092107
13,2095927029,47.694466,-11.938675,-57.37476,0.7283912,-0.20318317,0.021122456,-3.379634,-1.5875685,0.16202736,0.096974,-0.064673,0.028284,-0.58373,-0.399805,0.094807
14,2095943696,47.63662,-11.9555855,-57.365223,0.6498933,-0.217561,0.076088905,-3.3960936,-1.4533126,0.0499959,0.107806,-0.068299,0.029552,-0.640332,-0.424027,0.09564
15,2095960363,47.5812,-11.976414,-57.341457,0.65229464,-0.21969569,0.079043865,-3.3762186,-1.3094711,-0.015193582,0.118678,-0.071961,0.030869,-0.696602,-0.445852,0.095387
16,2095977030,47.52471,-11.99995,-57.31033,0.68584585,-0.21778071,0.06171894,-3.3332489,-1.1518524,-0.064451456,0.130109,-0.075591,0.031898,-0.752156,-0.46505,0.094313
17,2095993697,47.46833,-12.027252,-57.26679,0.7879071,-0.20523405,0.00071287155,-3.2630656,-0.9843877,-0.076891065,0.143241,-0.079012,0.03191,-0.80654,-0.481456,0.093031
18,2096010364,47.412804,-12.05497,-57.226246,0.8286166,-0.20738924,-0.02479124,-3.146254,-0.7821309,-0.116399646,0.157051,-0.082468,0.031497,-0.858978,-0.494492,0.091091
19,2096027031,47.357964,-12.0830345,-57.189327,0.8017373,-0.22547388,-0.010976315,-2.9817119,-0.54339784,-0.18630683,0.170413,-0.086226,0.031314,-0.908673,-0.503549,0.087986
20,2096043698,47.304604,-12.114014,-57.14401,0.8027091,-0.24159276,-0.016663074,-2.7737677,-0.2830037,-0.23722875,0.183791,-0.090253,0.031036,-0.954902,-0.508266,0.084032
21,2096060365,47.252907,-12.147236,-57.093517,0.80305624,-0.26141274,-0.02457571,-2.5165985,0.005309224,-0.28295588,0.197175,-0.09461,0.030626,-0.996845,-0.508178,0.079316
22,2096077032,47.20957,-12.181656,-57.055195,0.7976775,-0.27566826,-0.02847433,-2.316434,0.22258282,-0.2955699,0.21047,-0.099204,0.030151,-1.035452,-0.504468,0.07439
23,2096093699,47.17556,-12.217495,-57.029285,0.7963147,-0.28167033,-0.034203053,-2.1820517,0.35811818,-0.26635182,0.223742,-0.103899,0.029581,-1.07182,-0.498499,0.069951
24,2096110366,47.148155,-12.254822,-57.009808,0.78112364,-0.2879281,-0.032526493,-2.0575635,0.46353853,-0.21776217,0.236761,-0.108698,0.029039,-1.106113,-0.490773,0.066322
25,2096127033,47.12954,-12.293457,-57.001324,0.75308084,-0.29144335,-0.023280144,-1.9717777,0.5105623,-0.1399368,0.249312,-0.113555,0.028651,-1.138976,-0.482264,0.06399
26,2096143700,47.11628,-12.334759,-56.990635,0.73895407,-0.29324448,-0.024882793,-1.8622525,0.5534643,-0.036112666,0.261628,-0.118442,0.028236,-1.170014,-0.47304,0.063388
27,2096160367,47.10853,-12.378788,-56.9773,0.737494,-0.29399252,-0.036812782,-1.7237048,0.59570205,0.093098044,0.27392,-0.123342,0.027622,-1.198742,-0.463112,0.06494
28,2096177034,47.11019,-12.424751,-56.97188,0.7366195,-0.29048038,-0.050067425,-1.611959,0.58491087,0.2589314,0.286197,-0.128183,0.026788,-1.225608,-0.453363,0.069256
29,2096193701,47.120888,-12.4729805,-56.971737,0.7419324,-0.28290617,-0.0685873,-1.5135435,0.53160894,0.4617393,0.298563,-0.132898,0.025645,-1.250834,-0.444503,0.076952
30,2096210368,47.133873,-12.516319,-56.975704,0.74293756,-0.2798046,-0.078017235,-1.3918891,0.501631,0.61035025,0.310945,-0.137561,0.024345,-1.274032,-0.436142,0.087125
31,2096227035,47.149315,-12.554005,-56.985065,0.73829794,-0.28129756,-0.07657623,-1.250977,0.49321043,0.69870627,0.32325,-0.142249,0.023069,-1.294882,-0.427922,0.09877
32,2096243702,47.170555,-12.589649,-56.998775,0.7373824,-0.28329444,-0.07410288,-1.0993913,0.4808619,0.7712867,0.33554,-0.146971,0.021834,-1.313205,-0.419908,0.111625
33,2096260369,47.196114,-12.621189,-57.017002,0.73770285,-0.2878487,-0.06674433,-0.92940027,0.47992063,0.80363595,0.347835,-0.151768,0.020722,-1.328695,-0.411909,0.125019
34,2096277036,47.231514,-12.652573,-57.043476,0.7419152,-0.2891941,-0.0603652,-0.77637994,0.4371599,0.85261583,0.3602,-0.156588,0.019716,-1.341635,-0.404623,0.139229
35,2096293703,47.277412,-12.684002,-57.078434,0.7514396,-0.28676593,-0.056050777,-0.64215493,0.34861135,0.9223397,0.372724,-0.161367,0.018782,-1.352338,-0.398813,0.154601
36,2096310370,47.330086,-12.7116585,-57.12045,0.76326895,-0.28504884,-0.04771757,-0.50332445,0.2527293,0.96346045,0.385445,-0.166118,0.017987,-1.360727,-0.394601,0.170659
37,2096327037,47.390938,-12.736263,-57.17056,0.7785363,-0.28265738,-0.03682804,-0.3680961,0.1369716,0.98808336,0.398421,-0.170829,0.017373,-1.366862,-0.392318,0.187127
38,2096343704,47.447166,-12.767952,-57.216007,0.7883563,-0.27869654,-0.02959299,-0.26948622,0.09952986,1.0372393,0.41156,-0.175474,0.01688,-1.371353,-0.390659,0.204414
39,2096360371,47.497185,-12.807121,-57.25572,0.7916808,-0.27351737,-0.025829792,-0.20908871,0.1539706,1.1083915,0.424755,-0.180033,0.01645,-1.374838,-0.388093,0.222887
40,2096377038,47.548363,-12.849377,-57.296665,0.7937989,-0.26648343,-0.023649216,-0.177885,0.24475658,1.1900032,0.437985,-0.184474,0.016056,-1.377803,-0.384014,0.24272
41,2096393705,47.597008,-12.897373,-57.335392,0.79221296,-0.2574141,-0.024562836,-0.18550223,0.4008975,1.2915158,0.451189,-0.188764,0.015647,-1.380895,-0.377332,0.264245
42,2096410372,47.650063,-12.944141,-57.3793,0.7921624,-0.24774373,-0.023769379,-0.20799601,0.57436347,1.3764148,0.464392,-0.192893,0.015251,-1.384362,-0.367759,0.287185
43,2096427039,47.708076,-12.989265,-57.42902,0.79419565,-0.23735476,-0.021097183,-0.24593395,0.7617885,1.4429722,0.477629,-0.196849,0.014899,-1.388461,-0.355063,0.311235
44,2096443706,47.764427,-13.038475,-57.478016,0.7935691,-0.22534704,-0.020215034,-0.32051554,1.0134355,1.5169237,0.490855,-0.200605,0.014562,-1.393803,-0.338172,0.336517
45,2096460373,47.820534,-13.0903015,-57.52789,0.7914624,-0.21195567,-0.020124912,-0.42796737,1.3204082,1.5901167,0.504046,-0.204138,0.014227,-1.400936,-0.316165,0.363019
46,2096477040,47.871513,-13.14061,-57.568844,0.7912946,-0.20263696,-0.021782398,-0.47638863,1.5240031,1.5982163,0.517234,-0.207515,0.013864,-1.408876,-0.290765,0.389656
47,2096493707,47.91575,-13.189735,-57.598957,0.7927823,-0.19782865,-0.025740147,-0.4601454,1.616768,1.5370958,0.530447,-0.210812,0.013435,-1.416545,-0.263819,0.415274
48,2096510374,47.956413,-13.238621,-57.623905,0.795115,-0.19509923,-0.03089428,-0.42097256,1.6691664,1.4308195,0.543699,-0.214064,0.01292,-1.423561,-0.236,0.439121
49,2096527041,47.9916,-13.286331,-57.640476,0.7990594,-0.1959908,-0.037668705,-0.33397928,1.639238,1.261075,0.557017,-0.217331,0.012292,-1.429127,-0.208679,0.460139
50,2096543708,48.022346,-13.336746,-57.6527,0.80151796,-0.1970259,-0.04652548,-0.25954708,1.6332728,1.0708363,0.570376,-0.220615,0.011517,-1.433453,-0.181458,0.477986
51,2096560375,48.04847,-13.390011,-57.66064,0.80236673,-0.19806373,-0.057469368,-0.2011525,1.6577183,0.8606479,0.583749,-0.223916,0.010559,-1.436806,-0.153829,0.49233
52,2096577042,48.067543,-13.443432,-57.659245,0.8037658,-0.20222795,-0.07071447,-0.10700101,1.6235546,0.59215236,0.597145,-0.227286,0.00938,-1.438589,-0.12677,0.502199
53,2096593709,48.07937,-13.497871,-57.649036,0.8050351,-0.2088548,-0.086435795,0.010449648,1.5532044,0.27293432,0.610562,-0.230767,0.007939,-1.438415,-0.100883,0.506748
54,2096610376,48.09446,-13.544994,-57.64658,0.8049264,-0.21341562,-0.09686184,0.03964734,1.4629804,0.054169893,0.623977,-0.234324,0.006325,-1.437754,-0.0765,0.507651
55,2096627043,48.11312,-13.583702,-57.65247,0.80352163,-0.21593678,-0.10135174,-0.023614585,1.342656,-0.054997444,0.637369,-0.237923,0.004636,-1.438148,-0.054122,0.506734
56,2096643710,48.12983,-13.6184845,-57.658833,0.8009095,-0.21818936,-0.103768826,-0.13477749,1.1988794,-0.12186408,0.650717,-0.241559,0.002907,-1.440394,-0.034141,0.504703
57,2096660377,48.147194,-13.646873,-57.669872,0.79676485,-0.21906888,-0.10196924,-0.3235438,1.032113,-0.10535276,0.663996,-0.24521,0.001208,-1.445786,-0.016939,0.502947
58,2096677044,48.15795,-13.672966,-57.67419,0.7923331,-0.22211766,-0.10058451,-0.5117445,0.8091625,-0.104690075,0.677202,-0.248912,-0.000468,-1.454315,-0.003453,0.501202
59,2096693711,48.16134,-13.696983,-57.67085,0.7875848,-0.22756875,-0.099923134,-0.6959581,0.52827036,-0.12513399,0.690328,-0.252705,-0.002133,-1.465914,0.005352,0.499116
60,2096710378,48.162895,-13.714619,-57.668964,0.78159475,-0.23276079,-0.09580374,-0.9411157,0.20450222,-0.081211805,0.703355,-0.256584,-0.00373,-1.481599,0.00876,0.497762
61,2096727045,48.160835,-13.726597,-57.66589,0.7745862,-0.23849642,-0.08917236,-1.2313707,-0.17089117,0.006908655,0.716265,-0.260559,-0.005216,-1.502122,0.005912,0.497877
62,2096743712,48.15995,-13.738102,-57.666325,0.7704444,-0.24370265,-0.08444166,-1.4394612,-0.46082586,0.03405881,0.729106,-0.264621,-0.006623,-1.526113,-0.001768,0.498445
63,2096760379,48.161263,-13.748886,-57.671764,0.76943636,-0.2479912,-0.081445694,-1.561321,-0.6520328,0.0016645193,0.74193,-0.268754,-0.00798,-1.552135,-0.012635,0.498473
64,2096777046,48.16111,-13.756767,-57.678135,0.7698636,-0.25244784,-0.07867336,-1.6468427,-0.81677353,-0.053094268,0.754761,-0.272961,-0.009291,-1.579582,-0.026248,0.497588
65,2096793713,48.160896,-13.762871,-57.6871,0.77280664,-0.25669873,-0.07715607,-1.6623871,-0.91683644,-0.15602982,0.767641,-0.277239,-0.010577,-1.607288,-0.041529,0.494988
66,2096810380,48.15896,-13.762867,-57.698055,0.7757249,-0.26073372,-0.07320261,-1.6992409,-1.0294666,-0.22279477,0.78057,-0.281585,-0.011797,-1.635609,-0.058687,0.491275
67,2096827047,48.154915,-13.7563095,-57.710842,0.7785096,-0.2646259,-0.066589355,-1.761435,-1.1604979,-0.24892563,0.793545,-0.285995,-0.012907,-1.664966,-0.078029,0.487126
68,2096843714,48.150932,-13.746155,-57.72726,0.7833886,-0.2680329,-0.059975147,-1.7741928,-1.2379253,-0.29778892,0.806601,-0.290462,-0.013907,-1.694536,-0.098661,0.482163
69,2096860381,48.14663,-13.731285,-57.747295,0.7898631,-0.27094066,-0.05251789,-1.7561967,-1.2775922,-0.35086954,0.819765,-0.294978,-0.014782,-1.723806,-0.119954,0.476315
70,2096877048,48.14324,-13.719734,-57.7634,0.7943454,-0.2742951,-0.046658516,-1.7836106,-1.3352765,-0.36283594,0.833004,-0.29955,-0.01556,-1.753533,-0.142209,0.470268
71,2096893715,48.14129,-13.712482,-57.775272,0.79680204,-0.27809274,-0.042901993,-1.8541229,-1.4058095,-0.33604652,0.846284,-0.304185,-0.016275,-1.784435,-0.165639,0.464667
72,2096910382,48.13996,-13.704861,-57.786694,0.79863787,-0.2818414,-0.039479256,-1.9436882,-1.4721646,-0.27864188,0.859595,-0.308882,-0.016933,-1.81683,-0.190175,0.460023
73,2096927049,48.139793,-13.699154,-57.79571,0.7989459,-0.28575385,-0.03714323,-2.070754,-1.5460287,-0.17922705,0.872911,-0.313645,-0.017552,-1.851343,-0.215942,0.457036
74,2096943716,48.140617,-13.691273,-57.807392,0.8004432,-0.2891785,-0.035107613,-2.170735,-1.5754641,-0.07955134,0.886252,-0.318465,-0.018137,-1.887522,-0.2422,0.45571
75,2096960383,48.14248,-13.680824,-57.822155,0.80328417,-0.29203176,-0.03324604,-2.2406473,-1.5567725,0.020192742,0.89964,-0.323332,-0.018691,-1.924866,-0.268146,0.456047
76,2096977050,48.14611,-13.671871,-57.835995,0.80535936,-0.2947898,-0.03263378,-2.327904,-1.524198,0.15092766,0.913063,-0.328245,-0.019235,-1.963664,-0.293549,0.458562
77,2096993717,48.151604,-13.663563,-57.850094,0.80726194,-0.29728103,-0.033120632,-2.4184003,-1.4651135,0.30452967,0.926517,-0.3332,-0.019787,-2.003971,-0.317968,0.463637
78,2097010384,48.15696,-13.655769,-57.869823,0.8094659,-0.29824698,-0.03105545,-2.4906046,-1.4133418,0.4225645,0.940008,-0.338171,-0.020305,-2.045481,-0.341524,0.47068
79,2097027051,48.162193,-13.649139,-57.89532,0.8117738,-0.29759014,-0.026273727,-2.5474293,-1.3746059,0.5030564,0.953538,-0.343131,-0.020743,-2.087938,-0.364434,0.479064
80,2097043718,48.168495,-13.64323,-57.924915,0.8143687,-0.29575348,-0.020442486,-2.5889573,-1.3228166,0.568362,0.967111,-0.34806,-0.021084,-2.131087,-0.386481,0.488537
81,2097060385,48.175438,-13.638302,-57.96007,0.81731844,-0.2923665,-0.012607098,-2.6101646,-1.267467,0.60287774,0.980733,-0.352933,-0.021294,-2.17459,-0.407605,0.498585
82,2097077052,48.184563,-13.63554,-57.996815,0.81982183,-0.2882185,-0.00517416,-2.6353102,-1.1956408,0.6494771,0.994397,-0.357737,-0.02138,-2.218512,-0.427532,0.50941
83,2097093719,48.196083,-13.635105,-58.035084,0.8218732,-0.2832991,0.0016918182,-2.6641831,-1.1043618,0.7098596,1.008095,-0.362459,-0.021352,-2.262915,-0.445938,0.521241
84,2097110386,48.209007,-13.636787,-58.078213,0.8239169,-0.27686012,0.010001183,-2.6802728,-1.0078968,0.7489648,1.021827,-0.367073,-0.021185,-2.307586,-0.462736,0.533724
85,2097127053,48.223778,-13.641018,-58.12547,0.8257718,-0.26902354,0.019234657,-2.6883378,-0.9028276,0.7754712,1.03559,-0.371557,-0.020864,-2.352392,-0.477783,0.546649
86,2097143720,48.23307,-13.646851,-58.16151,0.82737684,-0.2657585,0.024720192,-2.6801064,-0.78754365,0.7926723,1.04938,-0.375986,-0.020452,-2.39706,-0.490909,0.55986
87,2097160387,48.236107,-13.654388,-58.18526,0.8287492,-0.26753867,0.026237011,-2.6527958,-0.66379774,0.79609144,1.063192,-0.380445,-0.020015,-2.441273,-0.501972,0.573128
88,2097177054,48.236717,-13.664539,-58.203533,0.8297763,-0.27160585,0.025629997,-2.6133425,-0.5298925,0.78948045,1.077022,-0.384972,-0.019588,-2.484829,-0.510804,0.586286
89,2097193721,48.232857,-13.677212,-58.21207,0.8304286,-0.27962697,0.021627426,-2.5587695,-0.38604355,0.771996,1.090862,-0.389632,-0.019228,-2.527475,-0.517238,0.599153
90,2097210388,48.2286,-13.693153,-58.220715,0.8308463,-0.28791177,0.01742506,-2.4887724,-0.2358315,0.73173964,1.104709,-0.394431,-0.018938,-2.568955,-0.521169,0.611349
91,2097227055,48.224266,-13.712639,-58.22994,0.8309951,-0.29627907,0.013133526,-2.4034414,-0.07935202,0.66785336,1.118559,-0.399369,-0.018719,-2.609012,-0.522492,0.62248
92,2097243722,48.215935,-13.735374,-58.23103,0.8307662,-0.308056,0.006029606,-2.2999794,0.084733605,0.58462775,1.132405,-0.404503,-0.018619,-2.647345,-0.52108,0.632224
93,2097260389,48.2044,-13.761677,-58.225925,0.8301673,-0.32252204,-0.0032668114,-2.177928,0.25549316,0.4786358,1.146241,-0.409878,-0.018673,-2.683644,-0.516822,0.640201
94,2097277056,48.200233,-13.785957,-58.22906,0.8290086,-0.3324182,-0.008358002,-2.0664277,0.39217412,0.42486954,1.160058,-0.415418,-0.018812,-2.718084,-0.510286,0.647282
95,2097293723,48.20382,-13.807724,-58.240604,0.82724047,-0.33751237,-0.008989334,-1.9674349,0.49042106,0.4302584,1.173845,-0.421043,-0.018962,-2.750875,-0.502112,0.654453
96,2097310390,48.210747,-13.830017,-58.25488,0.82494307,-0.3408091,-0.0078058243,-1.8664308,0.56839025,0.45628643,1.187594,-0.426723,-0.019092,-2.781982,-0.492639,0.662058
97,2097327057,48.223747,-13.851322,-58.275555,0.8220391,-0.3404144,-0.003109455,-1.7711964,0.61398244,0.5238364,1.201295,-0.432397,-0.019144,-2.811502,-0.482406,0.670789
98,2097343724,48.23574,-13.875046,-58.291767,0.81857634,-0.34146905,0.00062179565,-1.6636674,0.65058124,0.58965206,1.214938,-0.438088,-0.019134,-2.83923,-0.471563,0.680617
99,2097360391,48.246346,-13.901501,-58.302906,0.8145385,-0.34425485,0.0031638145,-1.542437,0.6785892,0.6506965,1.228514,-0.443826,-0.019081,-2.864937,-0.460253,0.691462
100,2097377058,48.261467,-13.927719,-58.317425,0.8098197,-0.34458804,0.008221149,-1.4231465,0.675019,0.7468848,1.242011,-0.449569,-0.018944,-2.888656,-0.449003,0.70391
101,2097393725,48.2797,-13.9544525,-58.33298,0.8044114,-0.34355426,0.01486969,-1.3018899,0.6437422,0.8694103,1.255418,-0.455295,-0.018696,-2.910354,-0.438274,0.7184
102,2097410392,48.297783,-13.981113,-58.347942,0.80078554,-0.34153295,0.0171237,-1.190656,0.6235212,0.933974,1.268764,-0.460987,-0.018411,-2.930198,-0.427882,0.733966
103,2097427059,48.31626,-14.007263,-58.363125,0.7991624,-0.33801997,0.014869213,-1.092777,0.6141193,0.9379413,1.282083,-0.466621,-0.018163,-2.948411,-0.417647,0.749598
104,2097443726,48.335625,-14.0336685,-58.377674,0.7983537,-0.3335427,0.010325432,-1.0001297,0.598681,0.91571116,1.295389,-0.47218,-0.017991,-2.96508,-0.407669,0.76486
105,2097460393,48.35531,-14.060028,-58.391438,0.7990575,-0.32802427,0.0019340515,-0.91696435,0.5863961,0.84524965,1.308707,-0.477647,-0.017959,-2.980363,-0.397896,0.778947
106,2097477060,48.378838,-14.085964,-58.407475,0.79979753,-0.32012844,-0.0058546066,-0.8404551,0.5471735,0.7860037,1.322037,-0.482982,-0.018057,-2.994371,-0.388776,0.792047
107,2097493727,48.406334,-14.111443,-58.42584,0.8004956,-0.30979884,-0.012853622,-0.7706081,0.47841418,0.7410612,1.335379,-0.488145,-0.018271,-3.007214,-0.380802,0.804398
108,2097510394,48.435646,-14.13633,-58.44488,0.8025098,-0.29755247,-0.022630692,-0.71307236,0.40224993,0.66185474,1.348754,-0.493104,-0.018648,-3.019099,-0.374098,0.815429
109,2097527061,48.467567,-14.160461,-58.465313,0.8055539,-0.28303146,-0.034269333,-0.66783506,0.31145155,0.5608214,1.36218,-0.497821,-0.019219,-3.03023,-0.368907,0.824776
110,2097543728,48.494576,-14.181412,-58.480877,0.80773115,-0.2740016,-0.04179716,-0.6279391,0.22911537,0.47881913,1.375642,-0.502388,-0.019916,-3.040696,-0.365088,0.832756
111,2097560395,48.515724,-14.198814,-58.49087,0.8090644,-0.271201,-0.045068264,-0.59424716,0.15958929,0.41365314,1.389126,-0.506908,-0.020667,-3.0506,-0.362428,0.83965
112,2097577062,48.53527,-14.213604,-58.4988,0.8102851,-0.27065396,-0.046295643,-0.57079065,0.08645761,0.35416603,1.402631,-0.511419,-0.021439,-3.060113,-0.360987,0.845553
113,2097593729,48.551003,-14.224968,-58.502888,0.81093454,-0.27453578,-0.043905735,-0.55652285,0.016661763,0.30999994,1.416147,-0.515995,-0.022171,-3.069388,-0.360709,0.85072
114,2097610396,48.566856,-14.23418,-58.50639,0.81250334,-0.27841902,-0.042307854,-0.55789655,-0.058530927,0.24458504,1.429689,-0.520635,-0.022876,-3.078686,-0.361685,0.854796
115,2097627063,48.583107,-14.241131,-58.50957,0.81509066,-0.28200626,-0.041673183,-0.5761505,-0.14046872,0.15642345,1.443274,-0.525335,-0.023571,-3.088289,-0.364026,0.857403
116,2097643730,48.59591,-14.2444,-58.50928,0.8175826,-0.28942716,-0.038429737,-0.6078024,-0.21864843,0.07162464,1.4569,-0.530159,-0.024211,-3.098419,-0.36767,0.858597
117,2097660397,48.60598,-14.244106,-58.506176,0.8203168,-0.2997942,-0.033472538,-0.6549637,-0.29489017,-0.017801046,1.470572,-0.535156,-0.024769,-3.109335,-0.372585,0.8583
118,2097677064,48.617485,-14.24654,-58.50501,0.8220525,-0.30507076,-0.029314518,-0.6982586,-0.3487057,-0.08391762,1.484273,-0.540241,-0.025258,-3.120973,-0.378397,0.856901
119,2097693731,48.63012,-14.25201,-58.505817,0.82254744,-0.3050691,-0.025731087,-0.7359764,-0.3761376,-0.121145725,1.497982,-0.545325,-0.025687,-3.133239,-0.384666,0.854882
120,2097710398,48.64245,-14.257488,-58.506702,0.8226266,-0.3030579,-0.022097588,-0.77932316,-0.38761467,-0.14826578,1.511692,-0.550376,-0.026055,-3.146228,-0.391126,0.852411
121,2097727065,48.65528,-14.264626,-58.508823,0.82190657,-0.29697013,-0.018969059,-0.8231343,-0.37628514,-0.1565538,1.52539,-0.555326,-0.026371,-3.159947,-0.397397,0.849802
122,2097743732,48.665245,-14.269188,-58.508602,0.8208432,-0.29258585,-0.013890743,-0.8788015,-0.35102838,-0.15543246,1.539071,-0.560202,-0.026603,-3.174594,-0.403247,0.847211
123,2097760399,48.672035,-14.270821,-58.505795,0.8194833,-0.2902305,-0.0067396164,-0.94761896,-0.31159693,-0.14591187,1.552729,-0.565039,-0.026715,-3.190388,-0.40844,0.844779
124,2097777066,48.678032,-14.273014,-58.503162,0.817245,-0.28526807,0.00083351135,-1.0196276,-0.24675274,-0.11523485,1.56635,-0.569793,-0.026701,-3.207382,-0.412553,0.842858
125,2097793733,48.68241,-14.274818,-58.499905,0.8142047,-0.27893496,0.009393215,-1.0975009,-0.15737557,-0.06490874,1.57992,-0.574442,-0.026544,-3.225674,-0.415176,0.841776
126,2097810400,48.68525,-14.276291,-58.49535,0.8126941,-0.27541065,0.0132546425,-1.1661168,-0.1254617,-0.04132235,1.593465,-0.579032,-0.026323,-3.245109,-0.417267,0.841087
127,2097827067,48.686745,-14.277866,-58.48971,0.8128352,-0.27454436,0.011696339,-1.2227074,-0.15678644,-0.04657495,1.607012,-0.583608,-0.026128,-3.265487,-0.41988,0.840311
128,2097843734,48.686226,-14.278866,-58.48277,0.8135524,-0.27520108,0.007809162,-1.2762325,-0.21240318,-0.05910027,1.620571,-0.588195,-0.025998,-3.286758,-0.42342,0.839326
129,2097860401,48.683662,-14.27943,-58.474377,0.81546736,-0.2784083,-6.914139e-05,-1.3219132,-0.31465697,-0.09096837,1.634162,-0.592835,-0.025999,-3.30879,-0.428664,0.83781
130,2097877068,48.67948,-14.280357,-58.465603,0.8170581,-0.2805581,-0.009054184,-1.3661811,-0.41198474,-0.11143911,1.64778,-0.597511,-0.02615,-3.33156,-0.43553,0.835953
131,2097893735,48.6735,-14.281662,-58.4564,0.8182235,-0.28153992,-0.018963814,-1.4093608,-0.50115514,-0.11827469,1.661417,-0.602203,-0.026466,-3.355049,-0.443883,0.833982
132,2097910402,48.665565,-14.2831,-58.4462,0.8202529,-0.2840234,-0.03274393,-1.4437383,-0.6273558,-0.1369685,1.675088,-0.606937,-0.027012,-3.379111,-0.454339,0.831699
133,2097927069,48.655617,-14.284897,-58.43517,0.8228202,-0.28725445,-0.04985857,-1.4702907,-0.77994734,-0.16079348,1.688802,-0.611725,-0.027843,-3.403616,-0.467338,0.829019
134,2097943736,48.647453,-14.283535,-58.427433,0.8229232,-0.288854,-0.060007095,-1.5186515,-0.8746443,-0.1695996,1.702517,-0.616539,-0.028843,-3.428927,-0.481915,0.826192
135,2097960403,48.64135,-14.278713,-58.42338,0.82042646,-0.28889132,-0.062644005,-1.5902777,-0.9092401,-0.16453028,1.716191,-0.621354,-0.029887,-3.455432,-0.497069,0.82345
136,2097977070,48.635567,-14.272274,-58.421223,0.8165269,-0.28797352,-0.062352657,-1.6714096,-0.9167403,-0.15049517,1.7298,-0.626154,-0.030926,-3.483289,-0.512348,0.820942
137,2097993737,48.63111,-14.263245,-58.422184,0.81041,-0.28549957,-0.056376934,-1.7698262,-0.87513244,-0.12268555,1.743307,-0.630912,-0.031866,-3.512786,-0.526934,0.818897
138,2098010404,48.62571,-14.253651,-58.423687,0.8041358,-0.28355968,-0.051521778,-1.8658812,-0.84513986,-0.09906089,1.756709,-0.635638,-0.032725,-3.543884,-0.54102,0.817246
139,2098027071,48.61918,-14.243637,-58.42571,0.7977824,-0.28219938,-0.04817581,-1.9581938,-0.8296231,-0.08015835,1.770005,-0.640341,-0.033528,-3.576521,-0.554847,0.81591
140,2098043738,48.613625,-14.231384,-58.43059,0.78960466,-0.2798556,-0.04055786,-2.063155,-0.7793242,-0.05300367,1.783165,-0.645005,-0.034204,-3.610907,-0.567836,0.815027
141,2098060405,48.608604,-14.217323,-58.43791,0.7800069,-0.27695298,-0.030079842,-2.176507,-0.7068389,-0.021388054,1.796165,-0.649621,-0.034705,-3.647182,-0.579617,0.814671
142,2098077072,48.60299,-14.204403,-58.445072,0.7740865,-0.27574754,-0.02557373,-2.266081,-0.6963676,0.016341448,1.809066,-0.654217,-0.035131,-3.68495,-0.591223,0.814943
143,2098093739,48.596992,-14.192661,-58.452244,0.7721114,-0.27627623,-0.027148247,-2.3306756,-0.75006413,0.061810732,1.821935,-0.658822,-0.035583,-3.723795,-0.603724,0.815973
144,2098110406,48.59086,-14.180981,-58.460423,0.771935,-0.27775824,-0.031543255,-2.3825147,-0.8365526,0.11164522,1.834801,-0.663451,-0.036109,-3.763504,-0.617667,0.817834
145,2098127073,48.584435,-14.170116,-58.46906,0.7749343,-0.280787,-0.041030884,-2.4129446,-0.9780494,0.16671395,1.847717,-0.668131,-0.036793,-3.80372,-0.633968,0.820613
146,2098143740,48.578957,-14.157883,-58.480404,0.77767897,-0.28362477,-0.04896927,-2.4445748,-1.1128156,0.22955239,1.860678,-0.672858,-0.037609,-3.844463,-0.652515,0.824439
147,2098160407,48.574486,-14.144169,-58.494663,0.7800126,-0.2862134,-0.05505848,-2.478173,-1.2384579,0.3000443,1.873678,-0.677628,-0.038527,-3.885766,-0.673156,0.82944
148,2098177074,48.570335,-14.130714,-58.51031,0.78486395,-0.28994012,-0.064557076,-2.494797,-1.4051598,0.37782657,1.886759,-0.68246,-0.039603,-3.927346,-0.696575,0.835737
149,2098193741,48.56678,-14.117058,-58.527905,0.7915435,-0.29445374,-0.076072216,-2.4988844,-1.6004115,0.46354687,1.899951,-0.687368,-0.040871,-3.968994,-0.723249,0.843463
150,2098210408,48.565315,-14.101681,-58.549076,0.7957244,-0.2959007,-0.08218622,-2.5363626,-1.7261678,0.5418986,1.913213,-0.6923,-0.042241,-4.011267,-0.752018,0.852495
151,2098227075,48.566063,-14.084629,-58.573887,0.7973819,-0.2940712,-0.08280134,-2.6092079,-1.7791803,0.611568,1.926503,-0.697201,-0.043621,-4.054754,-0.781671,0.862688
152,2098243742,48.56861,-14.06633,-58.602055,0.7981353,-0.29054964,-0.08048773,-2.6984963,-1.7976108,0.6803763,1.939805,-0.702043,-0.044962,-4.099729,-0.811631,0.874028
153,2098260409,48.573402,-14.046394,-58.63406,0.7968936,-0.2842821,-0.07330656,-2.8165052,-1.7554348,0.744112,1.953087,-0.706781,-0.046184,-4.146671,-0.840888,0.88643
154,2098277076,48.579582,-14.026184,-58.66875,0.7969794,-0.27787077,-0.066934586,-2.931328,-1.7230597,0.8116163,1.96637,-0.711412,-0.0473,-4.195526,-0.869606,0.899957
155,2098293743,48.58721,-14.005718,-58.70621,0.7985616,-0.27141774,-0.061566353,-3.0414617,-1.7034539,0.88353205,1.979679,-0.715936,-0.048326,-4.246217,-0.897997,0.914683
156,2098310410,48.597145,-13.984028,-58.7475,0.799067,-0.26268733,-0.052684784,-3.173528,-1.638788,0.95177865,1.992997,-0.720314,-0.049204,-4.299109,-0.92531,0.930546
157,2098327077,48.60932,-13.961391,-58.792477,0.7992101,-0.25218976,-0.04144001,-3.3210173,-1.543371,1.0181787,2.006317,-0.724517,-0.049895,-4.354459,-0.951033,0.947516
158,2098343744,48.615562,-13.942383,-58.829433,0.79959345,-0.24587333,-0.0332551,-3.4050283,-1.453377,1.0505853,2.019644,-0.728615,-0.050449,-4.411209,-0.975256,0.965026
159,2098360411,48.615242,-13.927341,-58.85734,0.7999692,-0.2440182,-0.028084755,-3.4211314,-1.3645922,1.0444896,2.032977,-0.732682,-0.050917,-4.468228,-0.997999,0.982434
160,2098377078,48.612206,-13.914341,-58.88171,0.8005452,-0.24413049,-0.02410841,-3.4022396,-1.2688586,1.0159822,2.046319,-0.736751,-0.051319,-4.524932,-1.019147,0.999367
161,2098393745,48.60415,-13.904667,-58.89922,0.8014045,-0.24780715,-0.022690773,-3.3267648,-1.1737466,0.95520663,2.059676,-0.740881,-0.051697,-4.580378,-1.038709,1.015287
162,2098410412,48.59617,-13.895462,-58.91708,0.8015332,-0.25098097,-0.019435883,-3.247353,-1.0421479,0.87832236,2.073035,-0.745064,-0.052021,-4.634501,-1.056078,1.029926
163,2098427079,48.588493,-13.886642,-58.935604,0.8009229,-0.2534567,-0.014158726,-3.1661453,-0.87207615,0.78568125,2.086384,-0.749288,-0.052257,-4.68727,-1.070613,1.043021
164,2098443746,48.576653,-13.880802,-58.948277,0.80012465,-0.25865746,-0.010200024,-3.0377164,-0.687575,0.6599095,2.099719,-0.753599,-0.052427,-4.737899,-1.082073,1.054019
165,2098460413,48.561607,-13.877426,-58.956463,0.7989049,-0.26575637,-0.006626129,-2.872398,-0.479917,0.50350285,2.113034,-0.758028,-0.052537,-4.785772,-1.090072,1.062411
166,2098477080,48.549294,-13.874908,-58.964832,0.79760885,-0.2715255,-0.0057349205,-2.7465618,-0.31441295,0.4135779,2.126327,-0.762553,-0.052633,-4.831548,-1.095312,1.069304
167,2098493747,48.539604,-13.873489,-58.972775,0.7962918,-0.2761129,-0.008159161,-2.6613073,-0.19946647,0.39669275,2.139599,-0.767155,-0.052769,-4.875903,-1.098636,1.075916
168,2098510414,48.530342,-13.873695,-58.9789,0.7946067,-0.2805277,-0.012195587,-2.5867412,-0.09760523,0.4079268,2.152842,-0.77183,-0.052972,-4.919015,-1.100263,1.082715
169,2098527081,48.522972,-13.875248,-58.984104,0.7926402,-0.28401446,-0.018630028,-2.5423288,-0.027699113,0.47377598,2.166053,-0.776564,-0.053283,-4.961387,-1.100725,1.090611
170,2098543748,48.51278,-13.879917,-58.9838,0.790318,-0.28938854,-0.027036667,-2.4709182,0.04263866,0.53251624,2.179225,-0.781387,-0.053734,-5.002569,-1.100014,1.099486
171,2098560415,48.499474,-13.887871,-58.97758,0.78758574,-0.29679894,-0.037369728,-2.3693864,0.11611247,0.58059657,2.192351,-0.786334,-0.054357,-5.042059,-1.098079,1.109163
172,2098577082,48.486595,-13.898087,-58.96834,0.78453207,-0.30423748,-0.050607204,-2.2826486,0.15976274,0.671994,2.205427,-0.791405,-0.0552,-5.080103,-1.095416,1.120363
173,2098593749,48.473045,-13.911053,-58.954876,0.78111887,-0.31233776,-0.06674099,-2.1983976,0.179963,0.7941294,2.218446,-0.796611,-0.056312,-5.116743,-1.092417,1.133598
174,2098610416,48.46525,-13.921177,-58.950665,0.77851343,-0.31641507,-0.07716608,-2.1209764,0.19860768,0.87087774,2.231421,-0.801885,-0.057598,-5.152093,-1.089107,1.148113
175,2098627083,48.46424,-13.927883,-58.957195,0.776834,-0.315791,-0.08126354,-2.0562785,0.21245682,0.90221906,2.244368,-0.807148,-0.058952,-5.186364,-1.085566,1.16315
176,2098643750,48.46627,-13.934212,-58.96719,0.77549887,-0.31312418,-0.08317566,-1.9939644,0.21442223,0.91630816,2.257293,-0.812367,-0.060338,-5.219597,-1.081992,1.178422
177,2098660417,48.473244,-13.938606,-58.984478,0.774837,-0.30701578,-0.08055925,-1.936985,0.20836592,0.89408207,2.270207,-0.817484,-0.061681,-5.25188,-1.078519,1.193323
178,2098677084,48.482384,-13.944168,-59.001797,0.77416945,-0.29967248,-0.078733444,-1.8944924,0.17218709,0.8942909,2.28311,-0.822479,-0.062993,-5.283455,-1.075649,1.208228
179,2098693751,48.493507,-13.951153,-59.01859,0.77345705,-0.29123938,-0.07804394,-1.8664806,0.10367477,0.920012,2.296001,-0.827333,-0.064294,-5.314563,-1.073921,1.223562
180,2098710418,48.50979,-13.956657,-59.041897,0.7733407,-0.27933586,-0.07380009,-1.8516841,0.015961647,0.92600083,2.30889,-0.831989,-0.065524,-5.345424,-1.073655,1.238995
181,2098727085,48.53074,-13.961304,-59.070248,0.77368784,-0.26435483,-0.067101,-1.8526747,-0.096888304,0.9249716,2.321785,-0.836395,-0.066642,-5.376302,-1.07527,1.254411
182,2098743752,48.54638,-13.964249,-59.08713,0.7740989,-0.25601447,-0.061873436,-1.7882345,-0.17592525,0.89276934,2.334687,-0.840662,-0.067673,-5.406106,-1.078202,1.26929
183,2098760419,48.556282,-13.964962,-59.09196,0.7746358,-0.2548771,-0.05784607,-1.6511146,-0.21488154,0.821599,2.347598,-0.84491,-0.068637,-5.433625,-1.081783,1.282983
184,2098777086,48.564964,-13.964214,-59.091694,0.77541876,-0.2565416,-0.053845406,-1.4820291,-0.24664772,0.73146975,2.360522,-0.849186,-0.069534,-5.458325,-1.085894,1.295174
185,2098793753,48.56983,-13.961575,-59.082005,0.7763753,-0.26362193,-0.050749302,-1.258352,-0.25475883,0.61379933,2.373462,-0.85358,-0.07038,-5.479298,-1.09014,1.305404
186,2098810420,48.57772,-13.956753,-59.07436,0.777925,-0.2698003,-0.045016766,-1.0272498,-0.27151906,0.47079647,2.386427,-0.858077,-0.07113,-5.496419,-1.094665,1.313251
187,2098827087,48.589058,-13.949669,-59.06943,0.78010416,-0.27470815,-0.036443233,-0.7917698,-0.29980803,0.30305254,2.399429,-0.862655,-0.071737,-5.509615,-1.099662,1.318302
188,2098843754,48.598305,-13.939957,-59.05775,0.78266954,-0.28376544,-0.027468681,-0.50843126,-0.30920064,0.10110235,2.412473,-0.867384,-0.072195,-5.518089,-1.104815,1.319987
189,2098860421,48.60688,-13.927437,-59.04176,0.785728,-0.29566646,-0.017272472,-0.186697,-0.3065194,-0.13546598,2.425568,-0.872312,-0.072483,-5.521201,-1.109924,1.317729
190,2098877088,48.618767,-13.921486,-59.029667,0.7878413,-0.3029853,-0.0109324455,0.020833433,-0.266711,-0.25484705,2.438699,-0.877362,-0.072665,-5.520854,-1.114369,1.313482
191,2098893755,48.633675,-13.922855,-59.02109,0.78885794,-0.30571783,-0.009177208,0.10512221,-0.18267834,-0.24428046,2.451847,-0.882457,-0.072818,-5.519102,-1.117414,1.309411
192,2098910422,48.65072,-13.9268875,-59.013744,0.7895484,-0.306538,-0.009004116,0.13224101,-0.0701766,-0.1764077,2.465006,-0.887566,-0.072968,-5.516898,-1.118584,1.306471
193,2098927089,48.67086,-13.936157,-59.00957,0.7895036,-0.30357373,-0.011909008,0.060560584,0.079939604,-0.0088300705,2.478164,-0.892626,-0.073166,-5.515889,-1.117252,1.306324
194,2098943756,48.690407,-13.945019,-59.001354,0.7895236,-0.30257034,-0.015522003,-0.010164976,0.26147032,0.1676358,2.491323,-0.897669,-0.073425,-5.516058,-1.112894,1.309118
195,2098960423,48.709267,-13.953056,-58.988796,0.78966475,-0.303802,-0.019643307,-0.07527751,0.4748963,0.3480171,2.504484,-0.902732,-0.073752,-5.517313,-1.104979,1.314918
196,2098977090,48.73002,-13.965366,-58.97714,0.78917074,-0.30282354,-0.026798248,-0.22127724,0.73265684,0.61528826,2.517637,-0.907779,-0.074199,-5.521001,-1.092768,1.325173
197,2098993757,48.751884,-13.980778,-58.964794,0.7882037,-0.30086112,-0.036536694,-0.42832133,1.0349876,0.9516082,2.530774,-0.912793,-0.074808,-5.52814,-1.075518,1.341033
198,2099010424,48.772743,-13.994896,-58.957996,0.78812075,-0.29736006,-0.046700954,-0.573427,1.1927103,1.1492496,2.543909,-0.917749,-0.075586,-5.537697,-1.055639,1.360187
199,2099027091,48.792686,-14.008003,-58.957935,0.7889447,-0.29172778,-0.057511806,-0.65668786,1.1900002,1.1997199,2.557058,-0.922611,-0.076545,-5.548642,-1.035806,1.380182
200,2099043758,48.812065,-14.021477,-58.960598,0.7901263,-0.28504705,-0.06978083,-0.7242373,1.1173843,1.1904919,2.570227,-0.927362,-0.077708,-5.560713,-1.017183,1.400024
201,2099060425,48.830437,-14.034313,-58.967937,0.7920108,-0.27699232,-0.08308983,-0.7454389,0.9220575,1.0665889,2.583427,-0.931979,-0.079093,-5.573137,-1.001815,1.4178
202,2099077092,48.849648,-14.0504265,-58.977734,0.7936101,-0.26671016,-0.099432945,-0.8158269,0.7181246,0.97126174,2.596654,-0.936424,-0.08075,-5.586734,-0.989846,1.433988
203,2099093759,48.869682,-14.070061,-58.989773,0.79486513,-0.25420296,-0.11901283,-0.9407176,0.51189923,0.91206646,2.609902,-0.940661,-0.082734,-5.602413,-0.981314,1.449189
204,2099110426,48.889153,-14.0905075,-59.007,0.7965598,-0.23954034,-0.1405797,-1.0470228,0.19959748,0.770061,2.623178,-0.944653,-0.085077,-5.619863,-0.977987,1.462023
205,2099127093,48.90841,-14.112663,-59.029064,0.79847765,-0.22247612,-0.16466331,-1.1556623,-0.19625807,0.5749978,2.636486,-0.948361,-0.087821,-5.639124,-0.981258,1.471606
206,2099143760,48.922417,-14.122471,-59.040142,0.8006892,-0.2165991,-0.16802216,-1.2035996,-0.41068316,0.42806613,2.649831,-0.951971,-0.090621,-5.659184,-0.988103,1.47874
207,2099160427,48.930565,-14.118256,-59.039257,0.80329657,-0.2231878,-0.14822531,-1.1760035,-0.43240255,0.32360697,2.663219,-0.955691,-0.093091,-5.678784,-0.99531,1.484133
208,2099177094,48.93531,-14.107281,-59.03375,0.8061204,-0.2356199,-0.11659956,-1.11692,-0.37298286,0.23295903,2.676654,-0.959618,-0.095034,-5.697399,-1.001526,1.488016
209,2099193761,48.935143,-14.085438,-59.019337,0.8092084,-0.25774682,-0.066423416,-1.00569,-0.16205072,0.17972052,2.690141,-0.963914,-0.096141,-5.71416,-1.004227,1.491011
210,2099210428,48.932487,-14.060192,-59.006084,0.8127265,-0.2817055,-0.010835171,-0.8600296,0.018427014,0.07333517,2.703686,-0.968609,-0.096322,-5.728494,-1.00392,1.492233
211,2099227095,48.927376,-14.031929,-58.994587,0.8166747,-0.30708337,0.049579144,-0.6816627,0.15905416,-0.09036648,2.717297,-0.973727,-0.095496,-5.739855,-1.001269,1.490727
212,2099243762,48.91723,-13.993168,-58.976154,0.8210225,-0.34125447,0.12748718,-0.44216728,0.41156054,-0.24723375,2.730981,-0.979415,-0.093371,-5.747224,-0.99441,1.486606
213,2099260429,48.90235,-13.945267,-58.952824,0.8258176,-0.38271236,0.22047806,-0.14362425,0.7383579,-0.41737837,2.744745,-0.985794,-0.089696,-5.749618,-0.982104,1.47965
214,2099277096,48.889793,-13.922443,-58.940296,0.8282733,-0.3973695,0.23676968,-0.19931975,0.6995323,-0.4557202,2.75855,-0.992417,-0.08575,-5.75294,-0.970445,1.472055
215,2099293763,48.879723,-13.926903,-58.938953,0.82811975,-0.38290918,0.16907072,-0.6450811,0.2705288,-0.34097886,2.772352,-0.998799,-0.082932,-5.763691,-0.965936,1.466372
216,2099310430,48.868965,-13.943222,-58.942707,0.82670736,-0.35450423,0.05920124,-1.2864418,-0.3663447,-0.15566677,2.78613,-1.004707,-0.081945,-5.785132,-0.972042,1.463778
217,2099327097,48.859276,-13.980747,-58.955647,0.8232417,-0.3027563,-0.118570805,-2.2399383,-1.3315564,0.14366388,2.799851,-1.009753,-0.083921,-5.822464,-0.994235,1.466172
218,2099343764,48.84565,-14.017548,-58.966427,0.8193288,-0.24939394,-0.30774546,-3.258804,-2.3314214,0.48957777,2.813506,-1.01391,-0.08905,-5.876777,-1.033092,1.474332
219,2099360431,48.82769,-14.05246,-58.97449,0.81504774,-0.19544637,-0.50577736,-4.3311586,-3.3543668,0.8777282,2.82709,-1.017167,-0.09748,-5.948963,-1.088998,1.488961
220,2099377098,48.809395,-14.104645,-58.989063,0.8088794,-0.12173951,-0.7639041,-5.6845994,-4.654002,1.3815627,2.840571,-1.019196,-0.110212,-6.043706,-1.166565,1.511987
221,2099393765,48.789574,-14.169701,-59.007763,0.8011279,-0.032554865,-1.0712686,-7.271861,-6.1729264,1.9892285,2.853923,-1.019739,-0.128066,-6.164904,-1.269447,1.545141
222,2099410432,48.82383,-14.007046,-59.16068,0.7589135,0.041603565,-1.3888946,-9.090989,-9.942056,2.4847498,2.866572,-1.019046,-0.151214,-6.31642,-1.435148,1.586553
223,2099427099,48.918327,-13.59473,-59.462406,0.6786008,0.10048938,-1.7208447,-11.178171,-16.208364,2.8595538,2.877882,-1.017371,-0.179895,-6.502723,-1.705287,1.634212
224,2099443766,49.046288,-13.042637,-59.85065,0.57570505,0.1559794,-2.079681,-13.510172,-23.990593,3.2105775,2.887477,-1.014771,-0.214556,-6.727893,-2.10513,1.687722
225,2099460433,49.22399,-12.281811,-60.363743,0.44053507,0.20039463,-2.4575691,-16.102512,-33.896103,3.481732,2.894819,-1.011431,-0.255515,-6.996268,-2.670065,1.745751
226,2099477100,49.420555,-11.455364,-60.9298,0.29143572,0.25682735,-2.8923016,-19.02522,-44.838547,3.8201509,2.899676,-1.007151,-0.30372,-7.313355,-3.417374,1.80942
227,2099493767,49.63482,-10.56852,-61.54645,0.12895584,0.32659793,-3.387013,-22.289501,-56.78836,4.2358084,2.901825,-1.001708,-0.36017,-7.684847,-4.363847,1.880017
228,2099510434,49.897255,-9.487129,-62.284992,-0.06502962,0.3917799,-3.9176326,-25.883821,-70.854195,4.607995,2.900741,-0.995178,-0.425464,-8.116244,-5.54475,1.956817
229,2099527101,50.202385,-8.237362,-63.13296,-0.28736877,0.4574108,-4.4937224,-29.833755,-86.856255,4.9687,2.895952,-0.987554,-0.500359,-8.613473,-6.992354,2.039629
230,2099543768,50.42231,-6.798851,-64.024704,-0.4686122,0.47154236,-4.9696946,-33.556984,-100.75333,5.7872176,2.888142,-0.979695,-0.583187,-9.172756,-8.671576,2.136083
231,2099560435,50.549294,-5.146988,-64.96625,-0.60487795,0.42672896,-5.3294024,-37.005424,-112.336784,7.0966706,2.878061,-0.972583,-0.67201,-9.789513,-10.543856,2.254361
232,2099577102,50.640938,-3.3033028,-65.98372,-0.72747564,0.35072374,-5.6490035,-40.480892,-123.4407,8.699093,2.865936,-0.966738,-0.76616,-10.464195,-12.601201,2.399346
233,2099593769,50.66256,-1.2514763,-67.06424,-0.8177705,0.22778463,-5.8866916,-43.824722,-132.99203,10.726221,2.852306,-0.962942,-0.864272,-11.194607,-14.817735,2.578116
234,2099610436,50.697365,1.0394287,-68.269,-0.9215393,0.0830977,-6.121919,-47.38479,-143.68143,12.878782,2.836947,-0.961557,-0.966304,-11.984353,-17.212425,2.792762
235,2099627103,50.749992,3.5770073,-69.60457,-1.0414777,-0.082274914,-6.3596587,-51.188908,-155.67917,15.147053,2.819589,-0.962928,-1.072298,-12.837501,-19.807078,3.045213
236,2099643770,50.748634,6.3669624,-71.032455,-1.1386137,-0.29554653,-6.5227923,-54.927006,-166.72278,17.799498,2.800612,-0.967854,-1.181011,-13.752951,-22.585791,3.341871
237,2099660437,50.710304,9.423668,-72.56903,-1.2224689,-0.5525665,-6.626597,-58.67339,-177.3825,20.780247,2.780238,-0.977063,-1.291454,-14.730841,-25.542166,3.688208
238,2099677104,50.664406,12.341499,-74.11612,-1.3619385,-0.7483027,-6.6264215,-60.83009,-185.75893,23.846281,2.757539,-0.989535,-1.401894,-15.744676,-28.638148,4.085646
239,2099693771,50.603737,15.088846,-75.662445,-1.5587277,-0.8771677,-6.5049615,-61.189255,-191.35439,27.015642,2.73156,-1.004154,-1.51031,-16.764497,-31.827388,4.535907
240,2099710438,50.524773,17.873878,-77.26839,-1.7865195,-0.9871428,-6.2906127,-60.54416,-195.42107,30.374096,2.701785,-1.020606,-1.615154,-17.773566,-35.084406,5.042142
241,2099727105,50.432014,20.586788,-78.90689,-2.0633574,-1.0503025,-5.964599,-58.41272,-197.29695,33.86997,2.667396,-1.038111,-1.714564,-18.747111,-38.372689,5.606641
242,2099743772,50.28852,23.474052,-80.62956,-2.3391528,-1.1359403,-5.529364,-55.62763,-197.46664,37.726273,2.62841,-1.057043,-1.80672,-19.674238,-41.6638,6.235412
243,2099760439,50.091743,26.555408,-82.44272,-2.6117315,-1.2484756,-4.981628,-52.212788,-195.93105,41.961414,2.584881,-1.077851,-1.889747,-20.544451,-44.929317,6.934769
244,2099777106,49.862343,29.613766,-84.297775,-2.921699,-1.3293741,-4.2995877,-47.30188,-191.79187,46.427628,2.536186,-1.100007,-1.961407,-21.332816,-48.125848,7.708563
245,2099793773,49.590782,32.70217,-86.206604,-3.2587628,-1.3932996,-3.478952,-41.030964,-185.0628,51.180435,2.481873,-1.123229,-2.01939,-22.016665,-51.210228,8.56157
246,2099810440,49.294014,35.438416,-88.063446,-3.5570903,-1.4356468,-2.8554964,-36.80642,-177.69844,55.279995,2.422588,-1.147156,-2.066982,-22.630105,-54.171869,9.482903
247,2099827107,48.97396,37.75337,-89.85083,-3.8153327,-1.4480755,-2.4550657,-34.814354,-169.65567,58.6206,2.358999,-1.171291,-2.1079,-23.210344,-56.999464,10.459913
248,2099843774,48.614388,39.859375,-91.62607,-4.057822,-1.442065,-2.1121483,-33.500587,-159.91046,61.687504,2.291369,-1.195325,-2.143102,-23.768687,-59.664638,11.488038
249,2099860441,48.219078,41.634014,-93.355896,-4.2673388,-1.4134213,-1.9185128,-33.773827,-148.88213,64.20908,2.220247,-1.218882,-2.175077,-24.331584,-62.146007,12.558189
250,2099877108,47.781075,43.239536,-95.08951,-4.492896,-1.3491652,-1.6682892,-33.38777,-135.06625,66.69736,2.145365,-1.241368,-2.202882,-24.888047,-64.397111,13.669812
251,2099893775,47.297295,44.67926,-96.82822,-4.7364855,-1.2484083,-1.3473492,-32.201714,-118.2576,69.18147,2.066424,-1.262175,-2.225338,-25.424742,-66.368071,14.822837
252,2099910442,46.77346,45.754654,-98.51607,-4.958731,-1.1124887,-1.1381397,-32.11822,-99.485725,71.16077,1.983778,-1.280716,-2.244307,-25.960046,-68.026166,16.00885
253,2099927109,46.206566,46.48709,-100.16029,-5.1696844,-0.93720114,-0.997807,-32.66407,-78.33649,72.7316,1.897617,-1.296336,-2.260937,-26.504447,-69.331774,17.221043
254,2099943776,45.64994,47.11909,-101.75998,-5.366827,-0.76630306,-0.9337802,-32.90119,-60.540222,74.58525,1.80817,-1.309108,-2.2765,-27.0528,-70.340778,18.464131
255,2099960443,45.108757,47.632225,-103.30354,-5.544668,-0.6022351,-0.97295094,-32.990776,-46.73016,76.70859,1.715759,-1.319145,-2.292716,-27.602646,-71.119614,19.742607
256,2099977110,44.555046,47.910248,-104.79207,-5.7106895,-0.4197712,-1.085968,-33.07256,-33.862,78.82352,1.620581,-1.326141,-2.310815,-28.153855,-71.683981,21.056332
257,2099993777,44.003654,47.99976,-106.21916,-5.8622856,-0.22979724,-1.2852621,-32.96775,-23.573193,81.09242,1.522876,-1.329971,-2.332236,-28.703318,-72.076868,22.407872
258,2100010444,43.423317,47.687634,-107.56528,-5.989854,-0.005232811,-1.6164222,-33.72407,-12.701389,82.96648,1.423045,-1.330058,-2.359176,-29.265386,-72.288558,23.790647
259,2100027111,42.811638,46.945026,-108.82451,-6.092767,0.25747013,-2.0842261,-35.39405,-1.0294626,84.40313,1.321499,-1.325767,-2.393913,-29.855287,-72.305716,25.197366
260,2100043778,42.197334,45.904907,-109.99666,-6.1725674,0.53632855,-2.682445,-37.33385,8.406675,85.80256,1.218623,-1.316828,-2.43862,-30.477518,-72.165605,26.627409
261,2100060445,41.573936,44.50683,-111.07257,-6.2262406,0.8382046,-3.4265313,-39.793056,16.230831,87.03508,1.114852,-1.302858,-2.495729,-31.140736,-71.895091,28.077994
262,2100077112,40.97509,43.29812,-112.15549,-6.26141,1.0969977,-3.9034762,-40.92883,23.818293,87.612526,1.010495,-1.284575,-2.560787,-31.822883,-71.498119,29.538203
263,2100093779,40.40856,42.336643,-113.25049,-6.277546,1.3038096,-4.078052,-40.515495,30.824095,87.52108,0.905869,-1.262845,-2.628755,-32.498141,-70.984384,30.996888
264,2100110446,39.85479,41.310932,-114.29776,-6.2677474,1.4949372,-4.1609387,-39.61839,36.930973,86.8893,0.801407,-1.237929,-2.698104,-33.158447,-70.368868,32.445043
265,2100127113,39.325264,40.372807,-115.322556,-6.2330027,1.6507995,-4.0384955,-37.712597,42.32431,85.57949,0.697524,-1.210416,-2.765412,-33.78699,-69.663463,33.871368
266,2100143780,38.808693,39.219185,-116.25743,-6.1677456,1.8052309,-3.9549289,-35.726467,45.332687,83.95532,0.594728,-1.180329,-2.831327,-34.382431,-68.907918,35.270623
267,2100160447,38.305336,37.820686,-117.09331,-6.070005,1.960326,-3.9280858,-33.744865,45.784855,82.01119,0.493561,-1.147657,-2.896795,-34.944845,-68.144837,36.637476
268,2100177114,37.832314,36.459137,-117.88312,-5.942442,2.081381,-3.7372565,-30.842808,44.564407,79.4356,0.39452,-1.112967,-2.959083,-35.458892,-67.402097,37.961403
269,2100193781,37.38894,35.068684,-118.609375,-5.7826896,2.1746151,-3.4332318,-27.209972,41.203915,76.28905,0.298142,-1.076723,-3.016304,-35.912392,-66.715365,39.232887
270,2100210448,37.111885,33.72451,-119.34776,-5.62729,2.271005,-3.2489686,-23.457275,39.483723,73.889084,0.204354,-1.038873,-3.070453,-36.303347,-66.057303,40.464372
271,2100227115,37.01957,32.474564,-120.110504,-5.4793105,2.3676398,-3.176271,-19.500013,39.766525,72.31813,0.113032,-0.999412,-3.123391,-36.628347,-65.394528,41.669674
272,2100243782,37.04978,31.242702,-120.84801,-5.3189783,2.4526536,-3.1365123,-15.15487,39.84454,70.98452,0.024382,-0.958534,-3.175666,-36.880928,-64.730452,42.852749
273,2100260449,37.245018,30.066513,-121.58263,-5.1561575,2.5321462,-3.1846595,-10.534898,40.73715,70.24704,-0.061554,-0.916332,-3.228744,-37.05651,-64.0515,44.023533
274,2100277116,37.5344,28.975267,-122.279816,-4.9686775,2.5775907,-3.1271195,-5.032913,40.32939,69.24148,-0.144365,-0.873372,-3.280863,-37.140392,-63.379343,45.177558
275,2100293783,37.918266,27.974247,-122.93533,-4.754473,2.5860631,-2.9528675,1.4044576,38.381844,67.92118,-0.223606,-0.830271,-3.330077,-37.116984,-62.739646,46.309578
276,2100310450,38.472816,27.090883,-123.586136,-4.5329494,2.5756452,-2.8024883,8.406095,36.803062,67.03148,-0.299155,-0.787344,-3.376785,-36.976882,-62.126262,47.426769
277,2100327117,39.18815,26.34097,-124.22496,-4.2991557,2.5388014,-2.6323438,16.129498,35.106113,66.39637,-0.370808,-0.745031,-3.420657,-36.708057,-61.54116,48.533375
278,2100343784,39.7302,25.341185,-124.9212,-4.1699867,2.4642546,-2.414628,19.947495,34.881947,66.37515,-0.440308,-0.70396,-3.460901,-36.375599,-60.959794,49.639628
279,2100360451,40.080345,24.069023,-125.688,-4.1600046,2.3514879,-2.1605492,19.371897,36.541393,67.11151,-0.509641,-0.664769,-3.49691,-36.052734,-60.350771,50.758153
280,2100377118,40.39422,22.726479,-126.48909,-4.2112656,2.1991742,-1.8510299,16.702898,39.008865,68.33279,-0.579829,-0.628116,-3.52776,-35.774352,-59.700623,51.897033
281,2100393785,40.582985,21.214624,-127.34735,-4.3586993,2.003371,-1.4806857,10.607053,42.83219,70.185646,-0.652474,-0.594726,-3.552438,-35.597568,-58.986753,53.066794
282,2100410452,40.866447,19.775908,-128.23308,-4.540174,1.7728784,-1.0985365,3.6805668,47.54458,72.674805,-0.728144,-0.565178,-3.570747,-35.536225,-58.194343,54.278041
283,2100427119,41.25939,18.434542,-129.14665,-4.75362,1.5059574,-0.701715,-3.9465497,53.127357,75.814445,-0.807371,-0.540079,-3.582442,-35.602001,-57.308887,55.541615
284,2100443786,41.57618,16.988556,-130.12549,-5.0624866,1.1937149,-0.26058865,-14.776329,60.349083,79.75814,-0.891746,-0.520184,-3.586785,-35.848273,-56.303069,56.870917
285,2100460453,41.8637,15.494499,-131.16634,-5.4562874,0.8365319,0.21601486,-28.324652,69.17236,84.537865,-0.982684,-0.506242,-3.583185,-36.320351,-55.150196,58.279881
286,2100477120,42.060432,13.970318,-132.11658,-5.685726,0.54375577,0.5487876,-37.08557,74.646675,87.255745,-1.077446,-0.497179,-3.574039,-36.938444,-53.906085,59.734143
287,2100493787,42.135384,12.39452,-132.9692,-5.736879,0.32428265,0.7226896,-40.706806,76.456055,87.675476,-1.173061,-0.491774,-3.561994,-37.616891,-52.631817,61.195401
288,2100510454,42.14753,10.799347,-133.79716,-5.7228336,0.12586474,0.8161597,-42.47168,76.976166,87.21221,-1.268442,-0.489676,-3.548391,-38.324752,-51.348881,62.648938
289,2100527121,42.070137,9.183483,-134.561,-5.5768223,-0.021086216,0.77794886,-40.387768,74.87981,85.06479,-1.361389,-0.490027,-3.535425,-38.997881,-50.100884,64.066684
290,2100543788,41.88961,7.4914627,-135.36319,-5.4627953,-0.18395686,0.72114086,-39.524544,73.3056,82.98322,-1.452436,-0.493093,-3.523406,-39.656623,-48.879124,65.449738
291,2100560455,41.60441,5.724888,-136.2119,-5.3906565,-0.36659765,0.64947605,-40.173004,72.472084,81.07709,-1.54228,-0.499203,-3.512581,-40.326173,-47.671256,66.801023
292,2100577122,41.19294,3.908722,-137.02313,-5.2209234,-0.50851166,0.45987177,-38.08722,69.67358,77.769554,-1.629295,-0.507678,-3.504916,-40.96096,-46.51003,68.097182
293,2100593789,40.64704,2.0308151,-137.8199,-4.9878426,-0.6231874,0.17323971,-34.327644,65.576294,73.41526,-1.712426,-0.518064,-3.502029,-41.533087,-45.417092,69.32077
294,2100610456,40.36727,0.3387909,-138.63422,-4.627865,-0.7609215,-0.022629738,-32.574463,62.60704,70.06802,-1.789557,-0.530746,-3.502406,-42.075995,-44.373641,70.48857
295,2100627123,40.384056,-1.1417084,-139.45927,-4.115279,-0.9177772,-0.12524557,-32.63271,60.64606,67.703835,-1.858145,-0.546042,-3.504493,-42.619873,-43.362873,71.616967
296,2100643790,40.497612,-2.5364914,-140.29608,-3.5011005,-1.0778495,-0.21231365,-33.44955,58.979553,65.5662,-1.916497,-0.564006,-3.508032,-43.177366,-42.37988,72.709737
297,2100660457,40.816734,-3.7748985,-141.15083,-2.7596521,-1.251996,-0.23673105,-35.887363,58.177677,64.15647,-1.962491,-0.584873,-3.511978,-43.775489,-41.410252,73.779012
298,2100677124,41.097923,-4.9925804,-141.985,-1.8893366,-1.394026,-0.3384447,-36.68746,56.13381,61.85313,-1.99398,-0.608107,-3.517619,-44.386947,-40.474689,74.809898
299,2100693791,41.32345,-6.1973457,-142.79817,-0.888484,-1.5007315,-0.52669525,-35.701733,52.75036,58.561752,-2.008788,-0.633119,-3.526397,-44.981976,-39.595516,75.785927
300,2100710458,41.708946,-7.2581444,-143.61436,0.26907682,-1.603113,-0.69281197,-35.25226,49.539463,55.501106,-2.004303,-0.659838,-3.537944,-45.569514,-38.769858,76.710945
301,2100727125,42.203148,-8.20076,-144.42523,1.5886197,-1.6900644,-0.86800003,-34.618416,46.035927,52.31064,-1.977826,-0.688006,-3.552411,-46.146488,-38.002593,77.582789
302,2100743792,42.459343,-9.12672,-145.23083,2.5685363,-1.7184017,-0.97673035,-34.714443,42.301975,49.220833,-1.935017,-0.716646,-3.56869,-46.725062,-37.29756,78.403136
303,2100760459,42.47236,-10.024742,-146.03316,3.167623,-1.6859012,-0.9989419,-35.868534,38.498722,46.387558,-1.882223,-0.744744,-3.585339,-47.322871,-36.655915,79.176262
304,2100777126,42.372734,-10.859859,-146.826,3.6303372,-1.6038367,-0.99198866,-37.13011,34.26079,43.44549,-1.821717,-0.771475,-3.601872,-47.941706,-36.084902,79.900354
305,2100793793,42.071297,-11.6517105,-147.60947,3.8177638,-1.4594662,-0.93056345,-38.81201,29.63852,40.494045,-1.758088,-0.795799,-3.617381,-48.588573,-35.590927,80.575255
306,2100810460,41.824257,-12.302467,-148.38976,4.0320125,-1.2835696,-0.8315077,-40.96007,24.968067,37.697834,-1.690888,-0.817192,-3.631239,-49.271241,-35.174793,81.203552
307,2100827127,41.643623,-12.802937,-149.16588,4.2916837,-1.0751101,-0.69730043,-43.50566,20.217562,35.035122,-1.61936,-0.835111,-3.642861,-49.996335,-34.837834,81.787471
308,2100843794,41.325172,-13.214241,-149.93465,4.323817,-0.8063415,-0.49552155,-46.71192,15.266123,32.52015,-1.547296,-0.84855,-3.65112,-50.774867,-34.583399,82.329473
309,2100860461,40.922585,-13.510849,-150.6969,4.189344,-0.48187113,-0.22781229,-50.594036,10.179812,30.192764,-1.477474,-0.856581,-3.654917,-51.618101,-34.413735,82.832686
310,2100877128,40.65557,-13.818291,-151.37537,4.178509,-0.23335516,-0.08591509,-51.82592,6.0787344,27.538208,-1.407832,-0.86047,-3.656349,-52.481866,-34.312423,83.291656
311,2100893795,40.520638,-14.151649,-151.96164,4.2801633,-0.06913614,-0.081516266,-50.1446,3.0804582,24.529211,-1.336496,-0.861622,-3.657708,-53.317609,-34.261082,83.700476
312,2100910462,40.449684,-14.430046,-152.49223,4.3932776,0.07115841,-0.12277603,-47.14615,0.7138566,21.449755,-1.263275,-0.860436,-3.659754,-54.103378,-34.249184,84.057972
313,2100927129,40.497932,-14.687805,-152.9444,4.5853744,0.15181184,-0.26080942,-41.911804,-0.68501973,18.170841,-1.186852,-0.857906,-3.664101,-54.801908,-34.260601,84.360819
314,2100943796,40.484093,-14.861504,-153.36072,4.612656,0.25871205,-0.37411642,-36.42301,-1.7980905,14.998743,-1.109974,-0.853594,-3.670336,-55.408958,-34.290569,84.610798
315,2100960463,40.401726,-14.942162,-153.74252,4.459662,0.3968935,-0.45409584,-30.795698,-2.6307397,11.969879,-1.035646,-0.846979,-3.677904,-55.92222,-34.334415,84.810296
316,2100977130,40.388206,-14.990082,-154.04759,4.3010697,0.49240947,-0.60510826,-23.231188,-2.5252695,8.828802,-0.963962,-0.838772,-3.687989,-56.309406,-34.376503,84.957443
317,2100993797,40.405632,-14.9901085,-154.28317,4.0807033,0.56298804,-0.8012314,-14.124462,-1.5930333,5.6500397,-0.89595,-0.829389,-3.701343,-56.544814,-34.403054,85.05161
318,2101010464,40.326927,-14.951504,-154.44974,3.9491334,0.6626353,-0.8924961,-8.451309,-1.5992663,2.5456777,-0.830131,-0.818345,-3.716218,-56.685669,-34.429708,85.094038
319,2101027131,40.15571,-14.88308,-154.53972,3.93815,0.7864928,-0.87758493,-6.4495435,-2.604784,-0.5002807,-0.764495,-0.805237,-3.730844,-56.793161,-34.473121,85.0857
320,2101043798,39.92623,-14.77005,-154.55553,3.9349618,0.92009115,-0.8100848,-6.0129266,-3.8201346,-3.484313,-0.698912,-0.789902,-3.744345,-56.893376,-34.53679,85.027628
321,2101060465,39.606606,-14.617844,-154.49353,3.9857802,1.0751457,-0.65146494,-8.475344,-5.6994305,-6.380285,-0.632482,-0.771983,-3.755203,-57.034632,-34.631781,84.92129
322,2101077132,39.307014,-14.434387,-154.33943,4.043509,1.2002923,-0.51500845,-10.470271,-7.0026464,-9.304268,-0.56509,-0.751978,-3.763786,-57.209137,-34.748492,84.766219
323,2101093799,39.030388,-14.219841,-154.08998,4.0994496,1.2926402,-0.4053831,-11.831588,-7.642311,-12.253052,-0.496766,-0.730434,-3.770542,-57.40633,-34.875864,84.562001
324,2101110466,38.694405,-13.976238,-153.74672,4.2184052,1.3866167,-0.23298931,-15.402345,-8.616286,-15.145081,-0.426459,-0.707324,-3.774425,-57.663036,-35.019469,84.309583
325,2101127133,38.321754,-13.706352,-153.30374,4.390988,1.4702346,-0.021296978,-20.496689,-9.650166,-18.001514,-0.353276,-0.68282,-3.77478,-58.004647,-35.180305,84.009558
326,2101143800,37.878685,-13.469711,-152.93816,4.4183335,1.5031397,0.10271168,-23.471355,-9.949951,-19.55055,-0.279637,-0.657768,-3.773068,-58.395836,-35.346138,83.683715
327,2101160467,37.35166,-13.274612,-152.66504,4.2924113,1.4838738,0.13752174,-24.35067,-9.553521,-19.650303,-0.208097,-0.633037,-3.770776,-58.80168,-35.505363,83.35621
328,2101177134,36.771324,-13.096699,-152.39464,4.102941,1.421927,0.1274314,-24.423676,-8.642888,-18.907284,-0.139715,-0.609338,-3.768652,-59.208741,-35.649411,83.041089
329,2101193801,36.12464,-12.955048,-152.17577,3.7983193,1.3055642,0.039410114,-22.782583,-7.0228667,-16.946936,-0.07641,-0.587579,-3.767995,-59.588451,-35.766459,82.75864
330,2101210468,35.407936,-12.817951,-151.90285,3.5105119,1.1652219,-0.029148579,-22.314302,-5.394107,-14.469437,-0.017901,-0.568159,-3.768481,-59.960356,-35.856361,82.517483
331,2101227135,34.621346,-12.686565,-151.56833,3.248488,0.99993753,-0.07469177,-23.161242,-3.7702446,-11.496979,0.03624,-0.551493,-3.769726,-60.346377,-35.919198,82.325867
332,2101243802,33.75358,-12.595573,-151.26743,2.902824,0.78316426,-0.17446804,-23.124594,-1.6338882,-7.3338885,0.08462,-0.53844,-3.772634,-60.731787,-35.946429,82.203636
333,2101260469,32.801903,-12.541176,-150.97829,2.5020452,0.5196264,-0.30857992,-22.827944,0.8727213,-2.100551,0.126321,-0.52978,-3.777777,-61.112253,-35.931884,82.168627
334,2101277136,32.233437,-12.4613,-151.16768,2.2629094,0.34039998,-0.31818104,-21.045431,2.083294,1.3430347,0.164036,-0.524107,-3.78308,-61.46301,-35.897162,82.191011
335,2101293803,32.091515,-12.35717,-151.8976,2.1936898,0.25417423,-0.19709778,-17.39579,1.889814,2.8281038,0.200597,-0.519871,-3.786365,-61.75294,-35.865665,82.238146
336,2101310470,32.153175,-12.258575,-152.9368,2.2119136,0.20116115,-0.0070695877,-12.880873,0.97902954,3.6476974,0.237462,-0.516518,-3.786483,-61.967621,-35.849348,82.298941
337,2101327137,32.551247,-12.151676,-154.42688,2.3759675,0.21717834,0.2945795,-7.070892,-1.114307,3.0302157,0.277061,-0.512898,-3.781573,-62.085469,-35.86792,82.349445
338,2101343804,33.01232,-12.08606,-156.12698,2.5336642,0.21729946,0.5951648,-0.101109445,-3.2886992,2.8433943,0.319289,-0.509276,-3.771654,-62.087154,-35.922732,82.396835
339,2101360471,33.5234,-12.067379,-158.03098,2.6798682,0.19682622,0.8903785,7.995956,-5.508289,3.1946526,0.363953,-0.505996,-3.756814,-61.953888,-36.014537,82.450079
340,2101377138,34.340508,-12.061081,-160.39203,2.9422555,0.22951841,1.2740309,17.704117,-8.742124,2.4812908,0.412991,-0.502171,-3.73558,-61.658819,-36.160239,82.491434
341,2101393805,35.411827,-12.080101,-163.17157,3.2910018,0.29809403,1.7236507,29.036423,-12.781672,1.0884514,0.467841,-0.497203,-3.706852,-61.174879,-36.373267,82.509575
342,2101410472,36.28689,-12.150341,-163.45891,3.5982566,0.3288455,2.0444083,37.1628,-13.570906,1.3761632,0.527812,-0.491722,-3.672779,-60.555499,-36.599449,82.532511
343,2101427139,36.961113,-12.272404,-161.00325,3.8694577,0.32482195,2.2295713,41.72786,-10.843795,3.3620133,0.592303,-0.486308,-3.635619,-59.860035,-36.780179,82.588545
344,2101443806,37.61959,-12.445164,-157.15556,4.147321,0.31024718,2.3569474,45.065907,-6.387733,6.177085,0.661425,-0.481137,-3.596337,-59.108937,-36.886641,82.691496
345,2101460473,38.149895,-12.676697,-151.09288,4.402083,0.26786637,2.3749769,45.85915,0.9132906,10.422232,0.734793,-0.476673,-3.556754,-58.344618,-36.871419,82.8652
346,2101477140,38.888252,-12.947025,-144.56856,4.744902,0.26067019,2.4224362,47.068336,8.439507,14.302984,0.813875,-0.472328,-3.51638,-57.560146,-36.730761,83.103583
347,2101493807,39.85691,-13.258427,-137.66147,5.182486,0.2922411,2.505738,48.88562,16.068207,17.73419,0.90025,-0.467457,-3.474618,-56.745386,-36.462958,83.399153
348,2101510474,40.795647,-13.629414,-128.75668,5.6359525,0.31743574,2.5108974,48.68601,26.095037,22.120934,0.994183,-0.462166,-3.43277,-55.933953,-36.028041,83.767835
349,2101527141,41.779564,-14.057945,-118.18732,6.1308436,0.35053992,2.4664273,47.079464,38.00218,27.083141,1.096364,-0.456324,-3.391663,-55.149295,-35.394671,84.219221
350,2101543808,42.836678,-14.727066,-108.85193,6.501201,0.3025372,2.3799355,47.443924,47.440723,29.933466,1.204717,-0.451282,-3.351997,-54.358563,-34.603992,84.718112
351,2101560475,43.940605,-15.659748,-100.78912,6.722667,0.15990448,2.236763,49.746895,54.30651,30.569063,1.316761,-0.448617,-3.314718,-53.529448,-33.698883,85.227596
352,2101577142,45.1316,-16.771137,-92.81189,6.892122,-0.025131464,2.0510547,52.772297,60.34125,29.994043,1.43163,-0.449036,-3.280534,-52.64991,-32.693195,85.727497
353,2101593809,46.41004,-18.116905,-85.64914,6.9602284,-0.27924097,1.8193545,57.352795,64.42008,27.481184,1.547634,-0.45369,-3.250211,-51.69403,-31.619527,86.185517
354,2101610476,47.69715,-19.600922,-77.14906,7.004209,-0.5619668,1.5054705,60.828403,69.704124,24.942474,1.664371,-0.463056,-3.22512,-50.680223,-30.457792,86.601225
355,2101627143,48.995125,-21.222252,-67.174484,7.0299573,-0.87031627,1.107002,63.057316,76.36133,22.437122,1.781537,-0.477561,-3.20667,-49.629268,-29.185103,86.975177
356,2101643810,50.342033,-23.081703,-57.4027,6.9541793,-1.2488004,0.6361704,66.05536,81.85686,18.364092,1.89744,-0.498374,-3.196067,-48.528345,-27.820822,87.281245
357,2101660477,51.720955,-25.164696,-47.357555,6.7910733,-1.6901624,0.08254528,69.24068,86.861275,13.095665,2.010625,-0.526543,-3.194691,-47.374334,-26.373134,87.499506
358,2101677144,52.535057,-26.681885,-43.160244,6.6437182,-2.0550046,-0.25933647,73.837975,87.12858,7.365021,2.121354,-0.560793,-3.199013,-46.143701,-24.920991,87.622256
359,2101693811,52.724037,-27.571991,-45.633854,6.507705,-2.337198,-0.3617854,80.20084,81.90026,1.0132098,2.229816,-0.599746,-3.205043,-44.80702,-23.555987,87.639143
360,2101710478,52.55329,-28.201286,-51.58427,6.34045,-2.5993145,-0.37309313,87.350044,73.60098,-6.091735,2.33549,-0.643068,-3.211261,-43.351186,-22.329304,87.537614
361,2101727145,51.847466,-28.350258,-62.84869,6.1646447,-2.804831,-0.21052456,95.70348,60.88655,-13.831095,2.438234,-0.689815,-3.21477,-41.756128,-21.314528,87.307096
362,2101743812,50.95777,-28.506905,-76.3383,5.895572,-3.0475168,-0.043889046,105.0673,45.512325,-23.105228,2.536494,-0.740607,-3.215501,-40.005006,-20.555989,86.922009
363,2101760479,49.892097,-28.69625,-91.92413,5.5253015,-3.3334775,0.116163254,115.40121,27.53816,-33.983463,2.628582,-0.796165,-3.213565,-38.081653,-20.09702,86.355618
364,2101777146,48.31225,-28.479904,-112.8499,5.112494,-3.5848842,0.42768574,127.20094,4.809722,-45.957848,2.71379,-0.855913,-3.206437,-35.961637,-20.016858,85.589654
365,2101793813,46.278496,-27.953934,-138.59329,4.6359277,-3.8218532,0.85700846,140.45937,-22.429638,-59.26294,2.791055,-0.919611,-3.192154,-33.620648,-20.390685,84.601938
366,2101810480,44.939445,-27.433273,-154.05821,4.092301,-3.9795609,1.1992927,148.77719,-40.61409,-70.03957,2.85926,-0.985937,-3.172166,-31.141028,-21.067586,83.434612
367,2101827147,44.353096,-26.883217,-158.2977,3.485273,-4.0412393,1.4581332,151.62897,-48.810535,-77.88488,2.917348,-1.053291,-3.147864,-28.613879,-21.881095,82.136531
368,2101843814,44.00524,-26.20919,-158.20341,2.7989383,-4.0503354,1.7110825,152.05968,-53.37351,-84.81172,2.963997,-1.120797,-3.119346,-26.079551,-22.770653,80.723002
369,2101860481,44.20121,-25.474487,-149.68259,2.0318494,-3.9844842,1.9091191,148.28624,-50.605316,-89.724884,2.997861,-1.187205,-3.087527,-23.608114,-23.614075,79.227587
370,2101877148,44.17034,-24.370049,-142.45398,1.1960845,-3.8604622,2.2153208,144.15746,-49.05314,-94.76926,3.017796,-1.251546,-3.050605,-21.20549,-24.431627,77.648099
371,2101893815,43.865746,-22.872025,-137.07489,0.28776312,-3.678666,2.640452,139.88326,-49.22886,-100.087524,3.022592,-1.312857,-3.006597,-18.874102,-25.252108,75.979974
372,2101910482,43.93444,-21.177261,-125.127075,-0.70196676,-3.4087238,3.0639577,131.961,-43.639454,-103.63583,3.010893,-1.369669,-2.955531,-16.674752,-25.979432,74.25271
373,2101927149,44.214027,-19.20858,-108.60199,-1.7729068,-3.0514166,3.5230958,121.14837,-34.034996,-105.83696,2.981345,-1.420526,-2.896813,-14.655613,-26.546682,72.488761
374,2101943816,43.83393,-17.566624,-98.21338,-2.5730915,-2.894127,3.8224585,113.78563,-27.232155,-109.24429,2.93846,-1.468761,-2.833105,-12.759186,-27.000551,70.668023
375,2101960483,42.79139,-16.323353,-93.86215,-3.0688443,-2.9583726,3.9298322,109.98382,-22.850695,-113.794556,2.887313,-1.518067,-2.767608,-10.926122,-27.381396,68.771447
376,2101977150,41.39019,-15.133205,-91.733444,-3.426412,-3.1065311,3.9641147,107.190796,-18.743427,-118.51601,2.830206,-1.569843,-2.701539,-9.139609,-27.693786,66.79618
377,2101993817,39.408134,-14.166721,-94.4774,-3.5448828,-3.4174232,3.8660278,107.02198,-16.466677,-124.00878,2.771125,-1.6268,-2.637105,-7.355909,-27.968231,64.729367
378,2102010484,37.51705,-13.113319,-93.611176,-3.631895,-3.7139676,3.7197359,104.821945,-10.024888,-128.21568,2.710593,-1.688699,-2.575109,-5.608877,-28.135312,62.592439
379,2102027151,35.7445,-11.944599,-88.697495,-3.6963906,-3.9852448,3.531991,100.32147,0.93173444,-130.99156,2.648986,-1.75512,-2.516242,-3.936852,-28.119783,60.409246
380,2102043818,33.565285,-10.965111,-86.16875,-3.5433106,-4.3885884,3.2065434,97.200745,12.198974,-133.83392,2.589931,-1.828263,-2.4628,-2.31684,-27.916467,58.178681
381,2102060485,31.119438,-10.11063,-84.178055,-3.2113276,-4.8878784,2.7582383,94.4524,25.155159,-136.2642,2.536409,-1.909728,-2.416829,-0.742633,-27.497214,55.907611
382,2102077152,29.151497,-9.325474,-81.306,-3.0136704,-5.127817,2.4395106,91.132965,35.472725,-135.1278,2.486181,-1.995192,-2.37617,0.77625,-26.906002,53.655481
383,2102093819,27.671776,-8.651466,-78.138824,-2.9502869,-5.094898,2.2581022,87.5916,42.32816,-130.24078,2.43701,-2.080107,-2.338535,2.23611,-26.200533,51.484801
384,2102110486,26.423393,-8.078899,-74.0558,-2.8931499,-4.934058,2.1006958,83.587105,48.790726,-122.71515,2.388791,-2.162341,-2.303523,3.629228,-25.387354,49.439549
385,2102127153,25.601234,-7.612053,-68.84395,-2.9187627,-4.551105,2.0315924,78.98256,53.555172,-111.6528,2.340145,-2.238193,-2.269663,4.945604,-24.494768,47.578669
386,2102143820,24.635689,-7.366478,-64.94699,-2.7871742,-4.193509,1.8758254,75.263145,58.156017,-99.186646,2.293692,-2.308085,-2.238399,6.19999,-23.525501,45.925558
387,2102160487,23.507698,-7.3557014,-62.347713,-2.4813738,-3.8730896,1.6206019,72.45199,62.83056,-85.327705,2.252336,-2.372636,-2.211389,7.407523,-22.478325,44.50343
388,2102177154,22.671516,-7.537033,-59.6835,-2.1827588,-3.3846145,1.4065511,69.73021,65.650444,-68.17692,2.215957,-2.429046,-2.187946,8.569693,-21.384151,43.367148
389,2102193821,22.012093,-7.946438,-57.480495,-1.8364553,-2.7788405,1.1946895,67.43734,66.923256,-48.10257,2.185349,-2.47536,-2.168035,9.693649,-20.268763,42.565439
390,2102210488,21.463692,-8.324398,-55.37994,-1.5053267,-2.3488927,1.0218434,64.47424,68.064575,-31.80673,2.16026,-2.514508,-2.151004,10.76822,-19.134353,42.035327
391,2102227155,21.08059,-8.653343,-53.261654,-1.2146907,-2.0968182,0.9084606,60.692585,68.86505,-19.656668,2.140015,-2.549455,-2.135863,11.779763,-17.986602,41.707716
392,2102243822,20.822533,-9.0921135,-51.69868,-0.8948908,-1.9168742,0.81023884,56.88259,68.78737,-8.675158,2.1251,-2.581403,-2.122359,12.727806,-16.840146,41.56313
393,2102260489,20.692543,-9.575848,-50.604977,-0.5683193,-1.8839693,0.7428236,52.748062,68.06841,-0.66367066,2.115628,-2.612802,-2.109979,13.60694,-15.705672,41.552069
394,2102277156,20.85859,-10.260624,-49.835537,-0.2406416,-1.772971,0.71942234,48.740376,65.357,8.856531,2.111617,-2.642352,-2.097989,14.41928,-14.616389,41.699678
395,2102293823,21.330849,-11.169304,-49.481663,0.093173504,-1.5738375,0.73882055,44.95208,60.488678,20.137932,2.11317,-2.668583,-2.085675,15.168481,-13.608244,42.03531
396,2102310490,22.038857,-12.173992,-49.57102,0.41529799,-1.4627385,0.81028605,40.917725,54.250477,29.382622,2.120092,-2.692962,-2.07217,15.850443,-12.704069,42.52502
397,2102327157,23.02845,-13.315372,-50.113888,0.72414446,-1.3923234,0.9385085,36.755272,46.261192,37.51815,2.132161,-2.716167,-2.056528,16.463031,-11.933049,43.150323
398,2102343824,23.579185,-14.551971,-50.04398,1.0548453,-1.2795494,0.97744966,34.52089,43.37431,44.659298,2.149742,-2.737493,-2.040237,17.038379,-11.210144,43.894645
399,2102360491,23.623802,-15.867874,-49.269344,1.4053407,-1.1378582,0.9172969,34.367077,46.291233,50.292286,2.173164,-2.756457,-2.024949,17.611164,-10.438623,44.73285
400,2102377158,23.543266,-17.31519,-48.321026,1.7558379,-0.9749361,0.83272934,35.41924,51.453773,54.934956,2.202428,-2.772706,-2.01107,18.201485,-9.58106,45.648433
401,2102393825,23.138268,-18.88044,-46.90237,2.1129155,-0.7737496,0.68505573,38.256985,60.802193,58.422466,2.237643,-2.785602,-1.999652,18.839101,-8.56769,46.622141
402,2102410492,22.81913,-20.565971,-45.69942,2.4511247,-0.62932277,0.5634031,41.61746,70.46768,59.64233,2.278495,-2.796091,-1.990262,19.532725,-7.393229,47.61618
403,2102427159,22.618279,-22.378265,-44.758396,2.7659497,-0.54449785,0.47539282,45.46272,80.19198,58.507748,2.324594,-2.805166,-1.982339,20.290437,-6.056696,48.591309
404,2102443826,22.1576,-24.30516,-43.477863,3.0736165,-0.45903063,0.3439045,50.94959,93.62702,55.327477,2.375821,-2.812817,-1.976607,21.139597,-4.496246,49.513434
405,2102460493,21.522682,-26.349121,-42.0012,3.3663774,-0.39423418,0.18858624,57.84763,110.00454,49.7639,2.431927,-2.819388,-1.973464,22.103724,-2.662837,50.342832
406,2102477160,20.13099,-28.169525,-39.752842,3.5044885,-0.31474257,0.06566143,61.6974,118.384995,45.954994,2.490335,-2.824634,-1.97237,23.132014,-0.689754,51.108749
407,2102493827,17.866737,-29.729553,-36.58859,3.4734902,-0.21228945,-0.029177666,62.23145,118.21753,44.216812,2.548227,-2.828172,-1.972856,24.169205,1.280538,51.845696
408,2102510494,15.052795,-31.190804,-32.865196,3.331306,-0.11977708,-0.10920811,61.426758,114.20388,42.257473,2.603749,-2.830168,-1.974676,25.192984,3.183936,52.549987
409,2102527161,11.496696,-32.453377,-28.382164,3.0360608,-0.026928902,-0.1615653,58.07176,103.40739,41.16747,2.65435,-2.830617,-1.977369,26.160847,4.907392,53.236111
410,2102543828,7.4288864,-33.712234,-23.305359,2.6681113,0.060141087,-0.23766851,55.087242,93.14387,38.4934,2.698819,-2.829615,-1.98133,27.078968,6.45979,53.877668
411,2102560495,2.8486328,-34.97415,-17.631031,2.2274375,0.13780928,-0.33939648,52.625557,83.78606,33.975807,2.735943,-2.827318,-1.986987,27.956061,7.856224,54.443931
412,2102577162,-2.54747,-36.04995,-11.076195,1.6341777,0.21757293,-0.43071985,48.16779,69.12355,29.74201,2.763179,-2.823692,-1.994166,28.758857,9.008283,54.939631
413,2102593829,-8.735207,-36.97416,-3.6469135,0.90073156,0.29730487,-0.52284575,42.305782,50.64842,25.22439,2.778191,-2.818737,-2.00288,29.463953,9.852423,55.360038
414,2102610496,-12.794739,-37.723625,1.5675392,0.48368788,0.33759093,-0.579957,40.006138,36.601746,20.070328,2.786252,-2.81311,-2.012546,30.130722,10.462452,55.694543
415,2102627163,-14.496941,-38.26284,4.3253403,0.41469336,0.33622098,-0.59473133,41.41749,26.95644,14.505075,2.793164,-2.807506,-2.022458,30.821013,10.911726,55.936294
416,2102643830,-15.221687,-38.616707,6.1039257,0.4832635,0.31013036,-0.5919795,44.56803,18.759457,8.296503,2.801218,-2.802337,-2.032324,31.563814,11.224384,56.074569
417,2102660497,-14.159546,-38.76262,6.049906,0.8145337,0.24863791,-0.56053734,50.761093,14.073588,1.4240792,2.814794,-2.798193,-2.041666,32.409832,11.458944,56.098304
418,2102677164,-13.102432,-38.652275,6.0540924,1.1183677,0.17595553,-0.5118146,56.439774,6.4342732,-5.4236407,2.833433,-2.79526,-2.050196,33.350495,11.566182,56.00791
419,2102693831,-12.150009,-38.27314,6.2280407,1.3786359,0.093135595,-0.44724655,61.43458,-4.4776893,-12.242298,2.85641,-2.793708,-2.05765,34.374405,11.491554,55.803872
420,2102710498,-9.6927185,-37.618927,4.877239,1.8499799,-0.02134943,-0.35088968,68.64492,-13.7085705,-19.367624,2.887243,-2.794064,-2.063498,35.518487,11.263078,55.481078
421,2102727165,-6.0875244,-36.66723,2.382452,2.4737144,-0.1628089,-0.22461128,77.33396,-22.650467,-26.639338,2.928472,-2.796777,-2.067242,36.807386,10.88557,55.037089
422,2102743832,-3.0823898,-35.847824,0.28624916,2.8260226,-0.21799481,-0.105545044,79.4477,-31.839869,-31.618053,2.975572,-2.80041,-2.069001,38.131514,10.354906,54.510121
423,2102760499,-0.6135864,-35.18981,-1.5060043,2.9005551,-0.17857063,0.0058317184,74.543076,-40.749954,-34.055317,3.023915,-2.803386,-2.068904,39.373899,9.67574,53.942532
424,2102777166,1.9362946,-34.463608,-3.4982452,2.8612351,-0.09494662,0.12671709,65.91984,-50.08128,-34.95488,3.071602,-2.804968,-2.066792,40.472563,8.841052,53.359951
425,2102793833,4.159981,-33.781784,-5.3457565,2.5996337,0.06445193,0.24809933,51.370026,-59.82014,-33.586147,3.114929,-2.803894,-2.062657,41.32873,7.84405,52.800182
426,2102810500,7.523628,-32.87667,-8.415039,2.4306455,0.22837925,0.39636564,36.30147,-68.37695,-31.41047,3.15544,-2.800088,-2.056051,41.933755,6.704434,52.276674
427,2102827167,12.122124,-31.721832,-12.795967,2.3705707,0.39374185,0.57389975,20.917507,-75.75273,-28.431938,3.19495,-2.793526,-2.046486,42.28238,5.441888,51.802808
428,2102843834,16.904488,-30.54393,-17.54525,2.1704297,0.62431884,0.7604165,0.55358714,-82.67472,-23.22907,3.231124,-2.783121,-2.033812,42.291606,4.063976,51.415657
429,2102860501,22.20951,-29.281258,-22.98481,1.897306,0.9063618,0.96218157,-23.737843,-88.77147,-16.034525,3.262746,-2.768015,-2.017776,41.895975,2.584452,51.148415
430,2102877168,26.282066,-28.029327,-27.208454,1.7179427,1.0693402,1.171227,-38.992588,-92.68762,-11.902323,3.291378,-2.750193,-1.998256,41.246099,1.039658,50.950043
431,2102893835,28.844048,-26.82518,-29.942902,1.6186156,1.105622,1.3847213,-44.576122,-94.276024,-11.086504,3.318355,-2.731766,-1.975177,40.503164,-0.531609,50.765268
432,2102910502,30.972267,-25.580696,-32.330505,1.5659614,1.0876157,1.6111279,-45.964924,-93.84897,-11.291269,3.344454,-2.713639,-1.948325,39.737082,-2.095758,50.57708
433,2102927169,32.141747,-24.33191,-33.81264,1.5986133,0.96991515,1.8477535,-39.672874,-90.95708,-13.854736,3.371098,-2.697474,-1.917529,39.075867,-3.611709,50.346168
434,2102943836,33.12339,-23.076195,-35.28224,1.5554643,0.86929727,2.094873,-34.513893,-86.51305,-15.379335,3.397022,-2.682986,-1.882614,38.500635,-5.053593,50.089846
435,2102960503,33.986687,-21.810791,-36.82075,1.4319663,0.7918618,2.3532248,-30.915207,-80.435394,-15.645695,3.420888,-2.669788,-1.843394,37.985382,-6.394183,49.829084
436,2102977170,33.872017,-20.572586,-37.48324,1.3402228,0.63999796,2.62027,-21.432886,-71.80159,-17.492624,3.443225,-2.659121,-1.799723,37.628167,-7.590876,49.53754
437,2102993837,32.9228,-19.364685,-37.443886,1.2457252,0.43783212,2.896121,-7.8584037,-60.705738,-20.19495,3.463987,-2.651824,-1.751454,37.497194,-8.602638,49.200957
438,2103010504,32.737755,-18.338493,-37.870567,1.1690316,0.30283213,3.0842826,0.24738687,-51.36222,-21.08239,3.483471,-2.646777,-1.700049,37.501317,-9.458675,48.849584
439,2103027171,33.32511,-17.52155,-38.72129,1.1238389,0.23372602,3.1742082,2.9487596,-43.99576,-20.253351,3.502202,-2.642882,-1.647146,37.550463,-10.191938,48.512028
440,2103043838,33.993477,-16.851395,-39.531322,1.0760846,0.19055247,3.2109094,3.6372676,-36.599144,-18.486717,3.520137,-2.639706,-1.593631,37.611084,-10.801924,48.203916
441,2103060505,35.131676,-16.379955,-40.564747,1.0342612,0.20255995,3.1659207,-0.06781489,-30.281385,-15.135782,3.537375,-2.63633,-1.540866,37.609954,-11.306614,47.951653
442,2103077172,35.563606,-16.03656,-40.87723,1.0158887,0.17553043,3.0938654,-0.58825004,-22.2209,-12.475384,3.554306,-2.633404,-1.489302,37.60015,-11.676962,47.74373
443,2103093839,35.19619,-15.827282,-40.389797,1.018683,0.105170965,2.9962826,2.453281,-12.206611,-10.594015,3.571284,-2.631651,-1.439364,37.641038,-11.880406,47.567163
444,2103110506,34.927147,-15.840748,-39.77183,1.0419097,0.063017845,2.8195329,3.288539,-2.581938,-7.8188405,3.588649,-2.630601,-1.392372,37.695847,-11.923438,47.436849
445,2103127173,34.483498,-16.07209,-38.794228,1.0894961,0.028880835,2.573,3.556954,7.2733936,-4.637022,3.606807,-2.63012,-1.349489,37.75513,-11.802215,47.359565
446,2103143840,34.102745,-16.277058,-38.11355,1.1124873,-0.0015001297,2.391722,3.9769397,15.727333,-1.7799544,3.625348,-2.630145,-1.309627,37.821412,-11.540093,47.329899
447,2103160507,33.9013,-16.452885,-37.850998,1.1077695,-0.020193577,2.2799623,3.9554715,22.317484,0.864789,3.643811,-2.630482,-1.271628,37.887337,-11.168135,47.344312
448,2103177174,33.565758,-16.721783,-37.517715,1.10218,-0.038985968,2.1780567,4.2865725,28.224293,3.30196,3.662181,-2.631132,-1.235327,37.95878,-10.69773,47.399345
449,2103193841,33.18432,-17.025948,-37.30626,1.0831428,-0.056692123,2.1206377,4.990846,32.8759,5.36843,3.680233,-2.632077,-1.199983,38.041961,-10.149798,47.488819
450,2103210508,32.820763,-17.545494,-36.971207,1.0788007,-0.052190542,2.012535,4.1764045,36.61918,7.9198365,3.698213,-2.632947,-1.166441,38.111568,-9.539478,47.620816
451,2103227175,32.44944,-18.300186,-36.46544,1.0922713,-0.025574923,1.8471522,1.855896,39.4738,10.95772,3.716418,-2.633373,-1.135655,38.1425,-8.881581,47.803445
452,2103243842,32.118843,-19.156578,-36.077274,1.0992503,0.014461756,1.700875,-1.062244,40.704987,13.917837,3.734739,-2.633132,-1.107307,38.124796,-8.203165,48.035409
453,2103260509,31.84127,-20.160118,-35.749474,1.1063304,0.07295489,1.5526791,-5.0074673,40.319386,16.975693,3.753178,-2.631916,-1.081429,38.041338,-7.531175,48.318337
454,2103277176,31.399895,-21.076225,-35.194283,1.131392,0.115781784,1.4533002,-6.39389,41.569534,19.03915,3.772035,-2.629986,-1.057207,37.934773,-6.838349,48.635656
455,2103293843,30.791801,-21.870155,-34.42822,1.1733575,0.13985705,1.4171112,-4.841728,44.588627,19.937561,3.791591,-2.627655,-1.033588,37.854078,-6.095205,48.967949
456,2103310510,30.134422,-22.688293,-33.5522,1.2285628,0.16563296,1.4059186,-2.386756,47.76454,20.302551,3.812067,-2.624894,-1.010156,37.814299,-5.299129,49.306325
457,2103327177,29.377861,-23.462112,-32.502617,1.3013396,0.18410754,1.4372644,1.9650142,51.920715,19.80328,3.833756,-2.621826,-0.986202,37.847049,-4.433784,49.63638
458,2103343844,28.656944,-24.30233,-31.51205,1.3760495,0.21340227,1.5010383,6.3577847,54.89037,18.90436,3.85669,-2.618269,-0.961185,37.953012,-3.518945,49.951453
459,2103360511,27.989937,-25.220764,-30.597244,1.4524722,0.25584674,1.5961437,10.613395,56.47366,17.634388,3.880898,-2.614005,-0.934583,38.129902,-2.577717,50.245359
460,2103377178,27.272896,-26.101578,-29.59423,1.5421424,0.29500318,1.7446291,16.517672,58.420723,15.455797,3.9066,-2.609088,-0.905506,38.405197,-1.604038,50.502956
461,2103393845,26.541069,-26.96756,-28.55804,1.641932,0.33518195,1.9461069,23.677553,60.22729,12.44478,3.933966,-2.603502,-0.873071,38.799823,-0.60025,50.710369
462,2103410512,25.479042,-27.795792,-27.177792,1.7156329,0.36728907,2.0449255,27.61761,60.35087,10.202114,3.96256,-2.597381,-0.838989,39.260117,0.405598,50.880404
463,2103427179,24.046059,-28.564949,-25.407612,1.7609601,0.38833904,2.0309806,28.146156,58.8272,8.786421,3.991909,-2.590909,-0.805139,39.72922,1.386051,51.026844
464,2103443846,22.418663,-29.297592,-23.435673,1.792851,0.4056244,1.9794738,27.124323,56.010742,7.4662395,4.02179,-2.584149,-0.772148,40.181292,2.319563,51.151281
465,2103460513,20.504814,-29.978477,-21.17043,1.8012338,0.41583824,1.8486695,23.359854,51.50213,6.652616,4.051811,-2.577218,-0.741337,40.570623,3.177932,51.262158
466,2103477180,18.468513,-30.588715,-18.755672,1.8101954,0.4205947,1.7363803,19.888256,46.574852,5.2499704,4.081981,-2.570208,-0.712397,40.902094,3.95418,51.349658
467,2103493847,16.321892,-31.123032,-16.20472,1.820559,0.42008352,1.6495178,16.855663,41.233376,3.1773133,4.112324,-2.563207,-0.684905,41.183022,4.641403,51.402613
468,2103510514,13.900566,-31.572067,-13.363831,1.8112531,0.41024613,1.5034497,11.709436,34.483597,1.3236265,4.142512,-2.55637,-0.659848,41.378179,5.21613,51.424673
469,2103527181,11.236343,-31.92585,-10.260933,1.7868752,0.39107466,1.3189456,5.0675087,26.564875,-0.5544385,4.172293,-2.549852,-0.637866,41.462637,5.658878,51.415432
470,2103543848,9.4928665,-32.18672,-8.1702385,1.7611403,0.3595159,1.2223375,1.3535213,19.550095,-2.3882072,4.201645,-2.54386,-0.617494,41.485196,5.984713,51.375629
471,2103560515,8.762451,-32.346367,-7.196289,1.7322087,0.3141203,1.2150333,0.66534156,13.510252,-4.063557,4.230515,-2.538625,-0.597243,41.496285,6.209884,51.307903
472,2103577182,8.516624,-32.39,-6.7562466,1.6961036,0.2557702,1.2510753,1.3087833,7.610655,-5.780353,4.258783,-2.534362,-0.576392,41.518098,6.336728,51.211564
473,2103593849,9.081818,-32.31157,-7.2087517,1.6554294,0.18287277,1.362957,4.435577,2.398818,-7.485995,4.286373,-2.531314,-0.553676,41.592024,6.376708,51.086797
474,2103610516,9.743614,-32.097336,-7.7797127,1.5958877,0.09551525,1.455951,6.7934475,-3.6265178,-9.001682,4.312971,-2.529722,-0.52941,41.705248,6.316266,50.936769
475,2103627183,10.470573,-31.737907,-8.4351845,1.5162902,-0.0070209503,1.5260031,8.233387,-10.538675,-10.329868,4.338243,-2.529839,-0.503977,41.842471,6.140621,50.764605
476,2103643850,11.911736,-31.229141,-9.883572,1.425386,-0.12674034,1.6482451,11.369067,-17.115639,-11.500893,4.361999,-2.531951,-0.476506,42.031955,5.85536,50.572923
477,2103660517,13.930412,-30.561127,-11.977585,1.3195014,-0.26430786,1.8030002,15.52448,-23.669712,-12.466661,4.383991,-2.536356,-0.446456,42.290696,5.460865,50.365145
478,2103677184,15.325806,-30.0429,-13.321083,1.269939,-0.34947395,1.9218564,17.654776,-28.493732,-13.124268,4.405157,-2.542181,-0.414425,42.584942,4.985969,50.146407
479,2103693851,16.07708,-29.699028,-13.883667,1.2843423,-0.37598288,2.0074563,17.787897,-31.250402,-13.444317,4.426563,-2.548447,-0.380967,42.881407,4.465129,49.922335
480,2103710518,16.674934,-29.371414,-14.243118,1.3262076,-0.37784314,2.0791304,16.91539,-32.935856,-13.424797,4.448666,-2.554744,-0.346315,43.16333,3.916198,49.698588
481,2103727185,16.814644,-29.144058,-14.0428505,1.4159865,-0.3352964,2.1202643,14.269355,-32.995354,-13.017633,4.472266,-2.560332,-0.310977,43.401153,3.366275,49.481627
482,2103743852,17.380318,-28.827492,-14.297981,1.5141559,-0.2901994,2.1906598,12.309676,-32.07044,-12.273008,4.497502,-2.565169,-0.274466,43.606314,2.831768,49.277077
483,2103760519,18.425987,-28.40686,-15.070423,1.6184115,-0.24485195,2.2925456,11.131241,-30.174894,-11.166748,4.524476,-2.56925,-0.236257,43.791835,2.328853,49.090965
484,2103777186,19.255898,-28.048943,-15.554607,1.7668538,-0.1607678,2.3822353,8.853227,-26.453226,-9.614817,4.553924,-2.571929,-0.196553,43.939389,1.887966,48.930718
485,2103793853,20.063438,-27.713104,-15.971489,1.9519296,-0.046138763,2.4725282,5.991405,-20.979822,-7.606656,4.586456,-2.572698,-0.155344,44.039246,1.538302,48.80394
486,2103810520,20.91053,-27.364014,-16.599522,2.0604377,0.016773462,2.5473845,3.6243067,-17.781662,-5.975074,4.620797,-2.572418,-0.112888,44.099651,1.241941,48.704355
487,2103827187,21.721,-27.021011,-17.370079,2.087008,0.025528193,2.6002908,1.6334591,-17.076138,-4.7750654,4.65558,-2.571993,-0.06955,44.126875,0.957339,48.624771
488,2103843854,22.598778,-26.67492,-18.303425,2.0808702,0.014208555,2.6476197,-0.14352995,-16.948315,-3.5890195,4.690261,-2.571756,-0.025423,44.124483,0.674867,48.564954
489,2103860521,23.537422,-26.324036,-19.450836,2.0119004,-0.038540125,2.6834273,-1.464437,-18.459011,-2.63863,4.723793,-2.572398,0.019301,44.100076,0.367217,48.520977
490,2103877188,24.326225,-26.032196,-20.44823,1.9563746,-0.07428908,2.7054546,-3.4564872,-18.974876,-1.3898839,4.756399,-2.573636,0.064392,44.042468,0.050969,48.497812
491,2103893855,24.965492,-25.803307,-21.28991,1.9185376,-0.08974671,2.7143762,-6.148598,-18.302284,0.20045483,4.788375,-2.575132,0.109632,43.939991,-0.254069,48.501153
492,2103910522,25.5467,-25.607918,-22.194538,1.8343015,-0.1322403,2.7055528,-8.782675,-18.653309,1.6783831,4.818947,-2.577336,0.154725,43.793613,-0.564957,48.529126
493,2103927189,26.019997,-25.463074,-23.081512,1.7195201,-0.1893444,2.677984,-11.6024885,-19.454731,3.1615472,4.847606,-2.580492,0.199358,43.600238,-0.889203,48.581818
494,2103943856,26.486076,-25.30294,-23.835564,1.6536603,-0.22320724,2.6539955,-13.236276,-19.214,4.1187143,4.875167,-2.584212,0.243591,43.379633,-1.209436,48.650463
495,2103960523,26.952553,-25.12239,-24.459988,1.636148,-0.23598099,2.6340437,-13.470377,-18.062666,4.436836,4.902436,-2.588145,0.287492,43.155127,-1.51048,48.72441
496,2103977190,27.328453,-24.968193,-24.946415,1.6397061,-0.23721969,2.6060271,-13.122854,-16.319197,4.442679,4.929764,-2.592099,0.330926,42.936413,-1.782467,48.798455
497,2103993857,27.634651,-24.824547,-25.259785,1.684236,-0.21793604,2.575183,-11.782166,-13.64602,3.9616785,4.957835,-2.595731,0.373846,42.740044,-2.009901,48.864483
498,2104010524,27.82946,-24.727081,-25.518692,1.7067027,-0.21231174,2.5266478,-10.039034,-11.460627,3.1843386,4.98628,-2.59927,0.415957,42.572727,-2.200911,48.917555
499,2104027191,27.895287,-24.68332,-25.713139,1.7042794,-0.22152078,2.4585035,-7.939378,-9.811848,2.117242,5.014685,-2.602962,0.456932,42.440404,-2.364442,48.952842
500,2104043858,27.86419,-24.664215,-25.747192,1.7251897,-0.22108328,2.3820522,-4.8128123,-7.7215624,0.49707365,5.043438,-2.606647,0.496633,42.36019,-2.493135,48.961127
501,2104060525,27.718727,-24.68032,-25.636955,1.7560039,-0.21833229,2.2934308,-0.7634259,-5.4993496,-1.6540643,5.072705,-2.610286,0.534857,42.347466,-2.584791,48.933559
502,2104077192,27.691582,-24.675148,-25.648891,1.7517829,-0.21424711,2.220639,1.6969943,-3.6312747,-2.8103657,5.101901,-2.613857,0.571868,42.375749,-2.645312,48.88672
503,2104093859,27.80497,-24.641083,-25.79221,1.7136474,-0.20629275,2.1674414,2.436628,-2.0715847,-2.8757899,5.130462,-2.617295,0.607992,42.416359,-2.679838,48.83879
504,2104110526,27.931374,-24.613953,-25.945412,1.6535373,-0.19915318,2.1175737,2.596355,-0.8178545,-2.5740418,5.158021,-2.620614,0.643285,42.459632,-2.693469,48.795889
505,2104127193,28.13488,-24.577713,-26.17678,1.5600877,-0.19247651,2.0791929,1.5084894,0.00556314,-1.4954733,5.184022,-2.623822,0.677938,42.484773,-2.693376,48.770964
506,2104143860,28.276558,-24.562027,-26.293293,1.4717412,-0.17932653,2.0381017,0.82318074,0.92213976,-0.6133037,5.208551,-2.626811,0.711906,42.498493,-2.678007,48.760742
507,2104160527,28.343834,-24.570503,-26.280357,1.3893762,-0.15998709,1.9930985,0.6436996,1.917621,0.0071759224,5.231707,-2.629477,0.745124,42.509221,-2.646047,48.760862
508,2104177194,28.460976,-24.574615,-26.290699,1.2839503,-0.13748324,1.9585364,-0.42693782,2.6144452,1.2042408,5.253106,-2.631768,0.777766,42.502105,-2.602473,48.780933
509,2104193861,28.597542,-24.581093,-26.280678,1.1632485,-0.110325456,1.9315975,-2.0410843,3.1068568,2.7725644,5.272493,-2.633607,0.809959,42.468087,-2.550692,48.827142
510,2104210528,28.620644,-24.638107,-26.217693,1.0999637,-0.09281957,1.8916693,-2.892244,3.9364815,3.7658944,5.290826,-2.635154,0.841487,42.419883,-2.485084,48.889907
511,2104227195,28.533531,-24.74659,-26.115685,1.0979037,-0.08645129,1.8389966,-3.0350952,5.1061687,4.2020564,5.309124,-2.636595,0.872137,42.369298,-2.399981,48.959941
512,2104243862,28.378746,-24.888374,-25.958866,1.1280513,-0.083312154,1.7817922,-2.8607733,6.4145393,4.3947268,5.327925,-2.637984,0.901834,42.321618,-2.293072,49.033186
513,2104260529,28.123833,-25.075935,-25.742382,1.2103562,-0.08738351,1.7151244,-2.0579515,7.9988785,4.111267,5.348098,-2.63944,0.930419,42.287319,-2.159757,49.101707
514,2104277196,27.87629,-25.274849,-25.52103,1.2948852,-0.09125745,1.6549172,-1.7492838,9.420902,4.117647,5.369679,-2.640961,0.958001,42.258164,-2.002742,49.170334
515,2104293863,27.640709,-25.483635,-25.29388,1.3799071,-0.09429157,1.6023145,-1.9850876,10.657392,4.44891,5.392677,-2.642533,0.984706,42.225079,-1.825119,49.244483
516,2104310530,27.336433,-25.73027,-25.030212,1.5081439,-0.10365212,1.54545,-1.9508111,12.041986,4.529172,5.417813,-2.644261,1.010463,42.192565,-1.624419,49.319969
517,2104327197,26.986488,-26.007683,-24.7415,1.6699042,-0.11781454,1.487998,-1.8921566,13.479054,4.523474,5.445645,-2.646225,1.035263,42.161029,-1.399768,49.39536
518,2104343864,26.660286,-26.252007,-24.454304,1.7741189,-0.106594205,1.4573221,-1.8754532,14.23676,4.4076133,5.475214,-2.648002,1.059552,42.129771,-1.162489,49.46882
519,2104360531,26.35569,-26.460396,-24.16922,1.8178058,-0.06799722,1.4550567,-1.8213012,14.277824,4.1131663,5.505511,-2.649135,1.083803,42.099416,-0.924525,49.537373
520,2104377198,26.056038,-26.658333,-23.882439,1.8381505,-0.015277624,1.4711478,-1.8738704,13.877794,3.7653122,5.536147,-2.64939,1.108322,42.068185,-0.693228,49.600128
521,2104393865,25.778893,-26.828568,-23.601887,1.8112712,0.059880972,1.513344,-2.032639,12.833916,3.3387094,5.566335,-2.648392,1.133544,42.034308,-0.479329,49.655773
522,2104410532,25.463493,-27.015503,-23.303963,1.8021169,0.13823271,1.5633278,-2.055586,11.649245,2.698335,5.59637,-2.646088,1.159599,42.000048,-0.285175,49.700745
523,2104427199,25.108849,-27.220879,-22.989716,1.8140597,0.2189095,1.6208849,-1.9543235,10.335572,1.8478332,5.626604,-2.64244,1.186614,41.967476,-0.112915,49.731542
524,2104443866,24.760704,-27.407356,-22.678806,1.7941623,0.31890273,1.7023046,-1.8467836,8.458325,0.8262104,5.656507,-2.637125,1.214986,41.936696,0.028057,49.745312
525,2104460533,24.406944,-27.583733,-22.367588,1.7560372,0.4344449,1.8043561,-1.6837595,6.1113954,-0.3995123,5.685774,-2.629884,1.245059,41.908633,0.129914,49.738653
526,2104477200,24.142128,-27.659271,-22.063393,1.7262502,0.50757766,1.8960652,-0.71379834,3.9275203,-1.9283099,5.714545,-2.621424,1.27666,41.896736,0.195373,49.706515
527,2104493867,23.98191,-27.619232,-21.770458,1.7005925,0.53491616,1.9769654,1.1348705,1.9039229,-3.7780604,5.742888,-2.612509,1.309609,41.915651,0.227105,49.643547
528,2104510534,23.874535,-27.511208,-21.484169,1.6753564,0.541481,2.0600958,3.5483909,-0.20690596,-5.9339457,5.770811,-2.603484,1.343944,41.974791,0.223657,49.544648
529,2104527201,23.849525,-27.306602,-21.208359,1.6558461,0.511472,2.1376877,6.748613,-2.250075,-8.433938,5.798408,-2.594959,1.379572,42.087268,0.186156,49.404082
530,2104543868,23.866234,-27.046448,-20.946354,1.6125064,0.48308897,2.2328775,10.27059,-4.7243805,-11.218138,5.825283,-2.586908,1.416787,42.258444,0.107416,49.217113
531,2104560535,23.92353,-26.731316,-20.699581,1.544086,0.4581213,2.3472557,14.108184,-7.662437,-14.298702,5.851018,-2.579273,1.455908,42.49358,-0.020291,48.978801
532,2104577202,24.069786,-26.313416,-20.471004,1.4691367,0.40358138,2.4628937,18.701,-10.68978,-17.74818,5.875504,-2.572547,1.496956,42.805263,-0.198454,48.682998
533,2104593869,24.299263,-25.798347,-20.262848,1.3808007,0.32709098,2.5849912,23.970457,-13.919371,-21.565908,5.898517,-2.567095,1.540039,43.204771,-0.430444,48.323566
534,2104610536,24.430504,-25.378105,-19.986614,1.318645,0.2714789,2.6623363,27.269533,-15.819143,-23.937565,5.920494,-2.56257,1.584411,43.659263,-0.694096,47.924607
535,2104627203,24.45507,-25.062263,-19.635338,1.2879796,0.2363205,2.687663,28.404076,-16.192202,-24.696941,5.94196,-2.558631,1.629205,44.132664,-0.963966,47.512991
536,2104643870,24.457878,-24.76088,-19.253624,1.2648683,0.20599294,2.6886165,28.5823,-15.836946,-24.70376,5.963041,-2.555198,1.674015,44.609036,-1.227915,47.101262
537,2104660537,24.39161,-24.524307,-18.817352,1.2606635,0.1910193,2.64976,27.07111,-14.298349,-23.442337,5.984052,-2.552014,1.718178,45.060221,-1.466221,46.710556
538,2104677204,24.377754,-24.224922,-18.380482,1.2566934,0.15733337,2.5961096,25.535046,-12.365215,-21.989946,6.004997,-2.549392,1.761446,45.485805,-1.672308,46.344057
539,2104693871,24.425331,-23.853508,-17.94701,1.2510381,0.10302448,2.5288627,24.057575,-10.074301,-20.397064,6.025848,-2.547675,1.803594,45.886765,-1.840213,46.004106
540,2104710538,24.433983,-23.516273,-17.469189,1.2630019,0.053743124,2.4212508,21.158236,-6.6134315,-17.661892,6.046898,-2.546779,1.843948,46.239402,-1.950437,45.709741
541,2104727205,24.430367,-23.185394,-16.958412,1.2887588,0.0019595623,2.2775154,17.165817,-2.120489,-13.988802,6.068377,-2.546746,1.881907,46.525499,-1.985778,45.476594
542,2104743872,24.403374,-22.941086,-16.492527,1.3031135,-0.0375216,2.1699393,14.666912,1.095353,-11.297636,6.090096,-2.547371,1.918073,46.769948,-1.967522,45.2883
543,2104760539,24.339287,-22.805107,-16.072807,1.3066192,-0.060358286,2.100923,13.703503,2.9440832,-9.623644,6.111873,-2.548377,1.953088,46.99834,-1.918454,45.127906
544,2104777206,24.261406,-22.721428,-15.669933,1.3090396,-0.0788095,2.0379803,13.249223,4.4549766,-8.1713,6.13369,-2.54969,1.987054,47.21916,-1.844204,44.991718
545,2104793873,24.162392,-22.717934,-15.303989,1.3044448,-0.08785069,1.9996243,13.963641,5.0280304,-7.4271884,6.155431,-2.551154,2.020381,47.451887,-1.760403,44.867932
546,2104810540,24.023643,-22.775703,-14.917698,1.3126035,-0.08963251,1.9356205,13.933197,6.2489424,-5.986703,6.177308,-2.552648,2.052641,47.684107,-1.656254,44.768154
547,2104827207,23.844963,-22.893951,-14.508442,1.334929,-0.08475208,1.8423488,13.05089,8.223541,-3.7610686,6.199557,-2.554061,2.083347,47.901622,-1.519195,44.70547
548,2104843874,23.627403,-23.10952,-14.122036,1.3569055,-0.06738567,1.7602811,12.826871,9.654281,-1.8564752,6.222172,-2.555184,2.112685,48.115403,-1.35829,44.674529
549,2104860541,23.365456,-23.421753,-13.746532,1.3831201,-0.037647724,1.678267,12.848688,10.885522,0.03578627,6.245224,-2.555811,2.140656,48.329548,-1.176865,44.675125
550,2104877208,23.218285,-23.64795,-13.429485,1.4025521,-0.010817528,1.6030495,12.528395,11.781915,1.732919,6.2686,-2.555991,2.167373,48.538355,-0.9805,44.704007
551,2104893875,23.199364,-23.779243,-13.181725,1.4126735,0.013073683,1.5401597,11.989268,12.166529,3.085711,6.292145,-2.555773,2.193042,48.738176,-0.777725,44.755436
552,2104910542,23.228142,-23.905258,-12.973351,1.4220967,0.04174471,1.4787383,11.22791,12.332842,4.392849,6.315847,-2.555077,2.217688,48.925308,-0.572178,44.82865
553,2104927209,23.348396,-23.978844,-12.820274,1.427383,0.07167721,1.4222014,10.130243,12.187996,5.562861,6.339637,-2.553882,2.241391,49.094145,-0.369045,44.921364
554,2104943876,23.466743,-24.119827,-12.707832,1.4316392,0.113725185,1.3766274,9.4232645,11.477834,6.4241157,6.363498,-2.551987,2.264335,49.251199,-0.177748,45.028433
555,2104960543,23.5765,-24.338387,-12.6357,1.4355264,0.16916442,1.3417962,9.121455,10.197485,6.983764,6.387423,-2.549168,2.286698,49.403223,-0.00779,45.144829
556,2104977210,23.76258,-24.535698,-12.626675,1.4344077,0.22998929,1.3182709,8.777525,8.368017,7.231793,6.41133,-2.545335,2.308669,49.549515,0.131677,45.265359
557,2104993877,24.005669,-24.738853,-12.679523,1.4288955,0.29898858,1.3078477,8.552539,5.9131966,7.118855,6.435145,-2.540352,2.330466,49.692057,0.23023,45.384007
558,2105010544,24.220924,-24.92949,-12.71035,1.4329705,0.34457278,1.3153605,8.419271,4.371604,7.1260457,6.459028,-2.534609,2.352389,49.832378,0.30309,45.502774
559,2105027211,24.412148,-25.093872,-12.71619,1.4471459,0.36289144,1.3424797,8.34188,3.8638191,7.2722583,6.483147,-2.528561,2.374764,49.971409,0.367487,45.623978
560,2105043878,24.607674,-25.259544,-12.73801,1.4650617,0.37100458,1.3890307,8.456628,3.5858412,7.276304,6.507565,-2.522378,2.397915,50.112353,0.427251,45.74525
561,2105060545,24.787926,-25.41761,-12.754738,1.490313,0.35973144,1.4573874,8.756868,3.9521127,7.2528033,6.532404,-2.516382,2.422205,50.258301,0.49312,45.86613
562,2105077212,25.024956,-25.555115,-12.823544,1.513598,0.34582686,1.5457704,9.15046,4.05114,6.9025607,6.557631,-2.510618,2.447968,50.410809,0.560639,45.981173
563,2105093879,25.323112,-25.672752,-12.94965,1.5342422,0.3303914,1.6553781,9.660731,3.8053036,6.1820784,6.583202,-2.505111,2.475558,50.571821,0.624061,46.084208
564,2105110546,25.631035,-25.767746,-13.087505,1.559897,0.29680443,1.7900374,10.335598,4.0228086,5.3259406,6.6092,-2.500164,2.505392,50.744081,0.691108,46.172974
565,2105127213,25.965218,-25.836136,-13.250488,1.5885196,0.24826312,1.9504354,11.167127,4.505751,4.2547626,6.635675,-2.496026,2.537899,50.9302,0.766204,46.243887
566,2105143880,26.225426,-25.935516,-13.350578,1.6012053,0.20486856,2.0622773,11.291005,4.785802,3.588358,6.662362,-2.492612,2.57227,51.118383,0.845967,46.303693
567,2105160547,26.396461,-26.068817,-13.373783,1.5969653,0.16589761,2.1194377,10.628266,4.925203,3.4091039,6.688978,-2.489847,2.607594,51.295521,0.928054,46.360511
568,2105177214,26.537712,-26.204376,-13.371082,1.5832543,0.1234746,2.1581864,9.584934,5.016188,3.3615994,6.715366,-2.487789,2.643564,51.45527,1.011657,46.416538
569,2105193881,26.61921,-26.356575,-13.315651,1.5548682,0.08216643,2.157938,7.9147515,4.9631705,3.6265974,6.74128,-2.48642,2.67953,51.587183,1.094377,46.476981
570,2105210548,26.68679,-26.489754,-13.247799,1.5245442,0.025467634,2.163981,6.144327,5.241223,3.885367,6.766689,-2.485996,2.715596,51.689588,1.181731,46.541737
571,2105227215,26.744087,-26.599716,-13.170048,1.4926734,-0.047960997,2.1791368,4.297772,5.873483,4.1122065,6.791567,-2.486795,2.751915,51.761218,1.279622,46.610274
572,2105243882,26.74105,-26.71563,-13.037518,1.448236,-0.12643754,2.1627147,1.8904357,6.553501,4.627668,6.815704,-2.488902,2.78796,51.792725,1.388847,46.687402
573,2105260549,26.686089,-26.82875,-12.85709,1.3936582,-0.2139467,2.1239016,-0.9773042,7.391903,5.3689218,6.838932,-2.492468,2.823358,51.776437,1.512045,46.776884
574,2105277216,26.660103,-26.953552,-12.737026,1.3669572,-0.3037691,2.1137693,-2.6138687,7.9476843,5.7950854,6.861715,-2.497531,2.858587,51.732873,1.644506,46.873469
575,2105293883,26.6623,-27.094543,-12.679901,1.3703532,-0.3942678,2.131521,-2.9228425,8.15358,5.903459,6.884554,-2.504102,2.894112,51.684159,1.780399,46.97186
576,2105310550,26.65812,-27.238281,-12.637161,1.3873668,-0.49173665,2.158576,-2.6439717,8.303142,5.915424,6.907677,-2.512298,2.930088,51.640093,1.918785,47.07045
577,2105327217,26.666634,-27.389587,-12.63599,1.4283538,-0.5941869,2.2073271,-1.3189068,8.269502,5.697493,6.931483,-2.522201,2.966877,51.618111,2.05661,47.165408
578,2105343884,26.626137,-27.546013,-12.599808,1.4681783,-0.7031598,2.2370474,-0.06303793,8.239814,5.6522117,6.955953,-2.53392,3.004161,51.61706,2.19394,47.259612
579,2105360551,26.53138,-27.706474,-12.522728,1.5056357,-0.819371,2.2453601,1.0669997,8.240298,5.8069067,6.981047,-2.547576,3.041584,51.634843,2.331278,47.356394
580,2105377218,26.428078,-27.876625,-12.465195,1.5623794,-0.940411,2.2626731,3.029277,8.067486,5.851813,7.007087,-2.56325,3.079295,51.685331,2.465736,47.453924
581,2105393885,26.30143,-28.055946,-12.409832,1.6333747,-1.0667807,2.279897,5.598064,7.7620945,5.877498,7.03431,-2.58103,3.117293,51.778632,2.595104,47.551882
582,2105410552,26.314156,-28.226807,-12.542179,1.6443524,-0.96663725,2.1356833,5.2655315,6.565207,6.044774,7.061716,-2.597141,3.152888,51.866391,2.704524,47.652628
583,2105427219,26.48713,-28.38861,-12.88813,1.5908198,-0.6157594,1.8166678,1.8082316,4.366016,6.3361416,7.08823,-2.607404,3.183166,51.896528,2.777291,47.75823
584,2105443886,26.732979,-28.549675,-13.348511,1.504561,-0.12287772,1.391727,-3.267702,1.5419933,6.741315,7.113306,-2.609452,3.206361,51.842066,2.802991,47.870585
585,2105460553,27.099663,-28.705513,-13.979172,1.3652024,0.5796933,0.8146138,-10.929838,-2.1423852,7.2985663,7.136059,-2.59979,3.219938,51.659902,2.767285,47.992228
586,2105477220,27.503471,-28.867783,-14.688133,1.2214742,1.3596647,0.18497562,-18.898651,-6.305249,7.842158,7.156417,-2.577129,3.223021,51.344924,2.662198,48.122931
587,2105493887,27.939613,-29.037445,-15.471142,1.0754905,2.212612,-0.49458504,-27.078794,-10.940746,8.373163,7.174342,-2.540252,3.214778,50.893611,2.479852,48.262484
588,2105510554,28.493492,-29.205055,-16.425758,0.8848672,3.2667987,-1.3161983,-37.46917,-16.463604,9.007971,7.18909,-2.485805,3.192841,50.269125,2.205459,48.412617
589,2105527221,29.149803,-29.373207,-17.536346,0.65919065,4.4988804,-2.2620173,-49.62572,-22.816801,9.714409,7.200077,-2.410824,3.155141,49.44203,1.825179,48.574524
590,2105543888,29.575905,-28.938705,-18.608604,0.6513953,5.478051,-3.0881543,-58.512947,-32.69628,5.978813,7.210934,-2.319523,3.103672,48.466814,1.280241,48.674171
591,2105560555,29.752617,-27.838303,-19.640808,0.8811822,6.182457,-3.785071,-63.916042,-46.463184,-2.6490378,7.22562,-2.216482,3.040587,47.401547,0.505855,48.63002
592,2105577222,29.829124,-26.35585,-20.718842,1.2357001,6.804019,-4.458862,-67.94517,-62.84955,-14.079596,7.246215,-2.103082,2.966273,46.269128,-0.541637,48.39536
593,2105593889,29.715752,-24.315247,-21.795296,1.7860198,7.228015,-5.0457177,-69.260925,-82.68505,-29.62318,7.275982,-1.982615,2.882178,45.114779,-1.919721,47.90164
594,2105610556,29.6296,-22.05941,-23.01368,2.3749251,7.7428207,-5.7151093,-71.340935,-104.57731,-46.661575,7.315564,-1.853568,2.786926,43.925763,-3.662676,47.123947
595,2105627223,29.582832,-19.59999,-24.38575,2.995996,8.365561,-6.4774327,-74.36177,-128.51686,-65.10672,7.365497,-1.714142,2.678969,42.6864,-5.804624,46.038835
596,2105643890,29.389122,-16.604008,-25.802116,3.791576,8.853507,-7.1938434,-75.42705,-155.98988,-87.46703,7.42869,-1.566584,2.559072,41.429283,-8.404455,44.581051
597,2105660557,29.093102,-13.132,-27.296337,4.731789,9.267124,-7.90062,-75.25403,-186.79126,-113.27576,7.507553,-1.412132,2.427395,40.175049,-11.517643,42.693122
598,2105677224,28.740532,-9.470001,-28.52621,5.3752723,9.547446,-8.530928,-75.02575,-210.2418,-133.74985,7.597141,-1.253008,2.285213,38.92462,-15.021673,40.463958
599,2105693891,28.309853,-5.589016,-29.44548,5.699221,9.655533,-9.06008,-74.46807,-225.54207,-148.41917,7.692128,-1.092082,2.134212,37.683485,-18.780707,37.990305
600,2105710558,27.806618,-1.379818,-30.239197,5.89465,9.6570015,-9.543127,-73.47212,-237.65651,-161.19249,7.790372,-0.931132,1.97516,36.45895,-22.741649,35.303764
601,2105727225,27.233955,3.102295,-30.80547,5.842933,9.522624,-9.954557,-72.23548,-243.63274,-169.7168,7.887754,-0.772422,1.809251,35.255025,-26.802195,32.475151
602,2105743892,26.513725,8.129665,-31.316212,5.8401647,9.220449,-10.296251,-69.27751,-250.12492,-179.83057,7.98509,-0.618748,1.637647,34.1004,-30.970944,29.477975
603,2105760559,25.640205,13.730783,-31.780811,5.9017425,8.747151,-10.568167,-64.515305,-257.49097,-191.86841,8.083452,-0.472962,1.461511,33.025145,-35.26246,26.280168
604,2105777226,24.650352,19.736044,-32.020153,5.7765803,8.086273,-10.743467,-58.79966,-259.80228,-200.87968,8.179728,-0.338191,1.282453,32.045151,-39.592498,22.932173
605,2105793893,23.522911,26.218155,-32.06472,5.5252824,7.2239113,-10.818716,-51.76425,-258.38498,-208.07657,8.271816,-0.217792,1.102141,31.182413,-43.898914,19.46423
606,2105810560,22.502174,32.19824,-32.401894,5.1747556,6.50611,-10.782633,-47.890305,-258.3788,-213.49265,8.358062,-0.109357,0.92243,30.384241,-48.205228,15.906019
607,2105827227,21.611366,37.5707,-33.04936,4.692551,5.955779,-10.624559,-47.66518,-259.4212,-216.44827,8.436271,-0.010094,0.745354,29.589821,-52.528915,12.298548
608,2105843894,20.716148,42.85747,-33.790707,4.102816,5.392397,-10.342079,-48.680717,-259.85645,-217.67722,8.504651,0.079779,0.572986,28.778476,-56.859856,8.670594
609,2105860561,19.883522,47.78059,-34.75199,3.3998733,4.906955,-9.925547,-52.20817,-260.8112,-216.93246,8.561316,0.161562,0.40756,27.90834,-61.206709,5.055053
610,2105877228,18.975716,52.879738,-35.596912,2.497933,4.2853165,-9.367952,-55.82372,-257.62787,-212.83527,8.602948,0.232984,0.251427,26.977945,-65.500507,1.507799
611,2105893895,17.980217,58.193604,-36.3028,1.3902097,3.5077078,-8.661901,-59.349277,-249.98808,-205.27765,8.626118,0.291446,0.107062,25.98879,-69.666975,-1.913495
612,2105910562,17.023155,63.206573,-37.143475,0.10765886,2.7569015,-7.797336,-65.12013,-241.05324,-194.59853,8.627912,0.337394,-0.022894,24.903454,-73.684529,-5.156804
613,2105927229,16.074791,68.02635,-38.045578,-1.374753,1.9845021,-6.7665906,-72.653114,-229.71149,-180.37276,8.604999,0.370469,-0.135671,23.692569,-77.513054,-8.163017
614,2105943896,14.93824,72.829575,-39.288776,-2.5367632,1.1596653,-5.849254,-71.92391,-221.61758,-169.53322,8.56272,0.389797,-0.233159,22.493837,-81.20668,-10.988571
615,2105960563,13.6111145,77.55287,-40.935856,-3.330718,0.30201554,-5.0665717,-62.27256,-217.59239,-162.64113,8.507208,0.394831,-0.317602,21.455961,-84.83322,-13.699256
616,2105977230,12.166878,82.17134,-42.80666,-4.0252457,-0.60723877,-4.2763295,-48.128143,-214.10948,-155.99889,8.440121,0.38471,-0.388874,20.653825,-88.401711,-16.299237
617,2105993897,10.555023,86.7008,-44.993595,-4.475914,-1.5697242,-3.5541453,-26.733759,-212.81032,-151.47264,8.365522,0.358548,-0.44811,20.208262,-91.94855,-18.823781
618,2106010564,8.920822,90.89203,-47.40607,-4.9834394,-2.5241628,-2.7271419,-4.4960837,-211.09506,-144.9667,8.282465,0.316479,-0.493562,20.133327,-95.466801,-21.239893
619,2106027231,7.2709274,94.718475,-50.03979,-5.569621,-3.4695475,-1.781704,18.28475,-208.68002,-136.1116,8.189638,0.258653,-0.523257,20.438073,-98.944801,-23.50842
620,2106043898,5.4898148,98.29936,-53.028866,-5.9580436,-4.4353466,-0.86884975,47.247963,-208.31024,-128.5352,8.090337,0.184731,-0.537738,21.225539,-102.416638,-25.650673
621,2106060565,3.6078491,101.56258,-56.363476,-6.210465,-5.40689,0.04869795,81.13107,-209.45209,-121.336266,7.986829,0.094616,-0.536926,22.577724,-105.907506,-27.672944
622,2106077232,1.3308258,104.38265,-60.226833,-6.526284,-5.8000727,1.1375871,103.54469,-206.58887,-110.80824,7.878058,-0.002052,-0.517966,24.303469,-109.350654,-29.519748
623,2106093899,-1.3863449,106.7378,-64.66963,-6.8846507,-5.554631,2.394462,113.6511,-199.60596,-97.05705,7.763314,-0.094629,-0.478058,26.197654,-112.67742,-31.137366
624,2106110566,-4.3865128,108.616234,-69.61307,-7.2280445,-4.930803,3.765269,118.40701,-190.8059,-81.22795,7.642847,-0.176809,-0.415304,28.171104,-115.857518,-32.491165
625,2106127233,-7.760414,109.96576,-75.12892,-7.5974717,-3.7563486,5.291029,113.39152,-178.78703,-62.417183,7.516222,-0.239415,-0.32712,30.060963,-118.837302,-33.531451
626,2106143900,-11.371162,110.858,-81.16354,-7.8020525,-2.3705142,6.837268,109.639946,-167.46413,-43.65518,7.386188,-0.278924,-0.213166,31.888295,-121.628371,-34.259037
627,2106160567,-15.214355,111.26625,-87.732574,-7.8284183,-0.7802713,8.398211,107.68124,-157.08183,-25.064844,7.255714,-0.291929,-0.073196,33.682982,-124.246402,-34.676784
628,2106177234,-19.443787,111.09181,-94.941345,-7.8005695,1.3440411,10.075263,98.1373,-144.5142,-4.3799543,7.125705,-0.269528,0.094725,35.318604,-126.654972,-34.749783
629,2106193901,-24.038536,110.327,-102.79782,-7.6719456,3.9450648,11.8397045,83.239136,-130.61353,17.753487,6.997839,-0.203777,0.292053,36.705923,-128.831864,-34.453892
630,2106210568,-27.570953,109.94983,-108.735886,-7.8554435,5.658744,12.923145,71.483604,-116.88619,32.946507,6.866915,-0.109465,0.507439,37.897316,-130.779967,-33.904784
631,2106227235,-29.925125,110.02764,-112.526184,-8.401206,6.404189,13.25831,62.409306,-103.10699,40.597744,6.726895,-0.002729,0.728411,38.937471,-132.498417,-33.228155
632,2106243902,-31.765236,110.07571,-115.39502,-9.078069,6.798546,13.184765,53.370605,-89.150444,44.18691,6.575594,0.11058,0.948157,39.826981,-133.984258,-32.491707
633,2106260569,-32.691803,110.356735,-116.61781,-10.004608,6.473625,12.482056,46.319996,-75.33732,41.344387,6.408851,0.218474,1.156191,40.598981,-135.23988,-31.802634
634,2106277236,-33.575897,110.24704,-117.72275,-10.967506,6.3216515,11.616425,33.721493,-60.011517,37.466763,6.226059,0.323835,1.349798,41.161006,-136.240072,-31.178188
635,2106293903,-34.460464,109.69925,-118.78764,-11.949846,6.394006,10.602364,15.149012,-43.13994,32.70727,6.026895,0.430402,1.526504,41.41349,-136.959071,-30.633067
636,2106310570,-34.55449,109.24897,-118.40134,-13.163438,5.9254084,9.005712,-4.106631,-25.802643,22.21804,5.807504,0.529159,1.676599,41.345046,-137.389115,-30.262766
637,2106327237,-34.027184,108.761314,-116.85858,-14.566004,5.0999365,6.910795,-25.76965,-7.641747,6.9934754,5.564737,0.614158,1.791779,40.915552,-137.516477,-30.146208
638,2106343904,-34.12323,108.28536,-116.37891,-15.563886,4.5638523,5.6031027,-40.29574,5.1654873,-1.5402322,5.305339,0.690222,1.885164,40.243956,-137.430386,-30.171879
639,2106360571,-34.847176,107.89741,-116.96625,-16.130545,4.276188,5.141828,-46.22015,11.885647,-2.993744,5.036497,0.761492,1.970861,39.47362,-137.232292,-30.221775
640,2106377238,-35.70716,107.487076,-117.73575,-16.52184,4.0469,4.964026,-49.306503,15.668568,-2.2259417,4.761133,0.82894,2.053595,38.651845,-136.971149,-30.258874
641,2106393905,-37.012375,107.094086,-119.23526,-16.580359,4.022957,5.410274,-46.712578,14.702456,3.738575,4.484794,0.895989,2.143766,37.873302,-136.726108,-30.196564
642,2106410572,-37.814743,106.82846,-119.77133,-16.706932,3.62263,5.605572,-42.699947,12.244854,6.824779,4.206345,0.956366,2.237192,37.161636,-136.522027,-30.082818
643,2106427239,-38.055122,106.6967,-119.23384,-16.923649,2.814624,5.4987826,-37.63692,8.448267,6.552314,3.924284,1.003276,2.328838,36.534354,-136.381223,-29.973613
644,2106443906,-38.46096,106.69145,-118.91547,-16.894667,2.0040672,5.819207,-26.826593,0.029635191,9.478378,3.642706,1.036677,2.425825,36.087244,-136.380729,-29.81564
645,2106460573,-38.821472,106.84837,-118.43623,-16.7033,1.0582602,6.3827715,-11.06119,-12.430826,13.873877,3.364318,1.054315,2.532205,35.902891,-136.587909,-29.584409
646,2106477240,-39.10012,106.802,-118.12807,-16.633118,0.47017074,6.6373315,-1.7073646,-19.375126,15.7424965,3.087099,1.062151,2.642827,35.874435,-136.910828,-29.322034
647,2106493907,-39.37442,106.53328,-118.166275,-16.667562,0.32715178,6.623459,0.9147038,-20.403185,15.505472,2.809306,1.067604,2.753218,35.88968,-137.250881,-29.063609
648,2106510574,-39.512207,106.25389,-118.12341,-16.726057,0.29852676,6.482196,1.8051877,-19.753351,13.89016,2.530538,1.072579,2.861255,35.919766,-137.580104,-28.832106
649,2106527241,-39.52413,105.8738,-118.131165,-16.874302,0.53236914,6.087726,-1.9313109,-14.923749,10.010225,2.2493,1.081452,2.962717,35.887577,-137.828833,-28.665269
650,2106543908,-39.60845,105.62053,-118.30896,-16.857973,0.8389697,5.9523296,-2.3593953,-12.438433,7.868242,1.968334,1.095435,3.061922,35.848254,-138.03614,-28.534132
651,2106560575,-39.758102,105.52466,-118.6322,-16.664982,1.194438,6.098442,1.0753932,-12.713484,7.5942683,1.690584,1.115342,3.163563,35.866177,-138.248031,-28.407561
652,2106577242,-39.888527,105.4034,-119.168045,-16.474703,1.8261638,6.1705565,2.0050945,-10.367376,6.4877844,1.416006,1.145778,3.266406,35.899595,-138.420821,-28.299431
653,2106593909,-40.043106,105.3151,-119.948944,-16.230328,2.6974785,6.2829046,2.1850288,-6.799936,5.427892,1.145501,1.190736,3.371121,35.936012,-138.534153,-28.208966
654,2106610576,-40.092888,105.242386,-120.29115,-15.892532,3.3240173,6.524244,2.0888116,-3.4915938,4.4161887,0.880625,1.246136,3.479858,35.970826,-138.592346,-28.135363
655,2106627243,-40.02526,105.16684,-120.1606,-15.4746685,3.697749,6.8700895,1.0041027,0.09854686,3.2020698,0.622714,1.307765,3.594359,35.987561,-138.590704,-28.081995
656,2106643910,-39.936836,105.14318,-119.918655,-14.953277,4.0307236,7.363471,-0.07962763,3.7442799,2.4322293,0.373493,1.374944,3.717084,35.986234,-138.528299,-28.041458
657,2106660577,-39.796173,105.16437,-119.39259,-14.319904,4.2025213,8.025026,-1.2530978,7.2508106,2.0711904,0.134828,1.444986,3.850834,35.965349,-138.407452,-28.006938
658,2106677244,-39.656715,105.20853,-119.00316,-13.640017,4.5565243,8.71864,-4.3600416,12.869008,1.4494061,-0.092506,1.520928,3.996145,35.892682,-138.192969,-27.982781
659,2106693911,-39.532593,105.28392,-118.79501,-12.909557,5.118558,9.453027,-9.396965,20.68084,0.6477474,-0.307665,1.606237,4.153695,35.736066,-137.848288,-27.971985
660,2106710578,-39.37413,105.39694,-118.418976,-12.087496,5.6191044,10.316801,-15.599719,29.481462,-0.017315626,-0.509123,1.699889,4.325642,35.476071,-137.35693,-27.972274
661,2106727245,-39.19786,105.54648,-117.97475,-11.185284,6.136009,11.28679,-23.40943,39.81655,-0.65668297,-0.695544,1.802156,4.513755,35.085914,-136.693321,-27.983219
662,2106743912,-38.251106,105.74154,-116.5361,-10.468422,6.399949,11.8105135,-29.267323,51.06778,-1.7113576,-0.870018,1.908822,4.710597,34.598125,-135.842191,-28.011742
663,2106760579,-36.452507,105.984604,-113.96864,-9.959066,6.3531256,11.843166,-32.84399,63.14824,-3.1974182,-1.036002,2.014707,4.907983,34.050725,-134.78972,-28.065032
664,2106777246,-34.16832,106.27263,-110.77821,-9.53966,6.177164,11.630629,-36.197815,76.81525,-4.9756346,-1.194996,2.11766,5.101827,33.447428,-133.509466,-28.147959
665,2106793913,-31.179321,106.60921,-106.684814,-9.285801,5.7857637,11.016487,-38.374012,91.94869,-7.1697526,-1.349759,2.214089,5.285435,32.807861,-131.976988,-28.267455
666,2106810580,-27.911568,106.99676,-102.143005,-9.030619,5.269704,10.349903,-41.28771,108.69462,-9.391085,-1.500269,2.301917,5.457933,32.119733,-130.165411,-28.423973
667,2106827247,-24.38295,107.43685,-97.175674,-8.76807,4.637438,9.644573,-45.154182,127.208176,-11.631847,-1.646404,2.379208,5.618676,31.367163,-128.045275,-28.617837
668,2106843914,-20.18058,107.93244,-91.29701,-8.649977,3.7628453,8.585121,-48.217182,147.37425,-14.198263,-1.79057,2.441922,5.761761,30.563543,-125.589037,-28.854475
669,2106860581,-15.381706,108.485565,-84.58478,-8.645151,2.6592815,7.237722,-50.91244,169.30498,-17.013985,-1.934656,2.486243,5.88239,29.715002,-122.767287,-29.138041
670,2106877248,-11.090569,108.45622,-78.54614,-8.553007,1.7778661,6.0246625,-53.026134,185.86375,-17.516014,-2.077206,2.515874,5.982801,28.831233,-119.669558,-29.429975
671,2106893915,-7.349777,107.78055,-73.2453,-8.377454,1.1376309,4.939245,-54.301613,196.35474,-15.482597,-2.21683,2.534835,6.065122,27.926206,-116.396979,-29.688018
672,2106910582,-3.6766357,106.76077,-68.00253,-8.196874,0.5268221,3.8178222,-55.129284,204.25427,-12.066193,-2.353445,2.543615,6.128752,27.007385,-112.992741,-29.889121
673,2106927249,-0.35935974,105.212006,-63.211147,-7.963818,0.06175804,2.7613246,-55.362965,207.52504,-6.5359073,-2.486175,2.544644,6.174774,26.084669,-109.53399,-29.998053
674,2106943916,3.3653336,103.50372,-57.848934,-7.8403864,-0.55891633,1.4312327,-54.70768,210.35425,-0.44979984,-2.616848,2.535329,6.198628,25.172874,-106.028086,-30.00555
675,2106960583,7.545212,101.65042,-51.84712,-7.838386,-1.3584518,-0.19598341,-53.147472,212.95479,6.135274,-2.747488,2.512688,6.195362,24.287083,-102.47884,-29.903295
676,2106977250,11.554756,99.29912,-46.04852,-7.8396893,-2.089549,-1.8712535,-50.660442,211.40488,14.660488,-2.878149,2.477862,6.164174,23.442742,-98.955425,-29.658954
677,2106993917,15.557838,96.516975,-40.231785,-7.882197,-2.8192637,-3.672751,-47.145695,206.50397,24.83798,-3.009519,2.430874,6.102961,22.65698,-95.513692,-29.244988
678,2107010584,18.853966,93.84293,-35.420166,-7.857911,-3.2872272,-5.0871224,-42.3595,203.93214,35.07817,-3.140484,2.376087,6.018176,21.950988,-92.114823,-28.660352
679,2107027251,21.291054,91.27232,-31.82621,-7.744713,-3.4365273,-6.037269,-36.21235,203.63881,45.45524,-3.269563,2.318812,5.917555,21.347449,-88.720843,-27.902765
680,2107043918,23.304497,88.58299,-28.82473,-7.621911,-3.434937,-6.821691,-28.697088,203.36986,56.575672,-3.396595,2.261563,5.80386,20.869164,-85.331345,-26.959837
681,2107060585,24.66323,85.90378,-26.749683,-7.4564786,-3.197257,-7.2866235,-19.688856,204.49579,68.08471,-3.52087,2.208275,5.682416,20.541016,-81.923082,-25.825092
682,2107077252,25.605034,82.813934,-25.232166,-7.284622,-2.8119285,-7.670096,-9.257797,202.57764,81.3455,-3.64228,2.16141,5.554581,20.386719,-78.546788,-24.469334
683,2107093919,26.137856,79.28108,-24.258934,-7.112479,-2.283945,-7.989159,2.6662133,197.305,96.46967,-3.760821,2.123344,5.421428,20.431156,-75.258371,-22.861506
684,2107110586,25.919884,75.616714,-24.335098,-6.8924723,-1.48775,-7.984756,16.276033,191.98932,112.514656,-3.875696,2.098548,5.288349,20.702423,-72.058549,-20.986262
685,2107127253,24.976524,71.722244,-25.416904,-6.631851,-0.43417692,-7.6996894,31.617556,185.61124,129.81346,-3.986227,2.091312,5.160021,21.229382,-68.965028,-18.822704
686,2107143920,24.990715,67.515,-25.611317,-6.144677,0.3704648,-7.6750484,43.15363,186.86812,144.05533,-4.088638,2.097486,5.032104,21.948609,-65.850559,-16.421782
687,2107160587,26.054558,63.016193,-24.839714,-5.402871,0.90289974,-7.919,50.397846,196.98917,154.72699,-4.178686,2.112534,4.900121,22.788573,-62.567406,-13.842999
688,2107177254,27.364006,58.189728,-24.00547,-4.496073,1.4041214,-8.194263,56.030785,211.15404,164.11153,-4.253621,2.135936,4.76355,23.722419,-59.048172,-11.107807
689,2107193921,29.36245,53.016243,-22.623268,-3.3656278,1.7430236,-8.634943,58.498585,231.96236,170.95631,-4.309715,2.164986,4.619634,24.697395,-55.182133,-8.258535
690,2107210588,30.954979,47.61033,-21.967434,-2.1045718,2.2557547,-8.849941,61.12123,255.18982,177.5497,-4.344791,2.202582,4.472135,25.716082,-50.928969,-5.299373
691,2107227255,32.06025,41.963585,-22.142345,-0.71290255,2.9687254,-8.809248,64.084404,280.5876,184.03014,-4.356673,2.252061,4.325314,26.784155,-46.252509,-2.232204
692,2107243922,33.599937,35.999275,-22.11121,0.91239977,3.6048281,-8.816772,64.35019,312.64697,188.12456,-4.341466,2.312141,4.178368,27.856658,-41.041726,0.903205
693,2107260589,35.335533,29.735983,-22.162247,2.7585187,4.2389374,-8.783054,62.572327,350.62198,190.26279,-4.295491,2.38279,4.031984,28.89953,-35.198026,4.074251
694,2107277256,36.44497,23.554855,-21.994663,4.1340365,4.8156586,-8.798178,61.1748,371.581,190.8711,-4.22659,2.463051,3.885348,29.91911,-29.005009,7.255436
695,2107293923,36.962547,17.483799,-21.455608,4.9893956,5.295414,-8.904333,59.935665,373.98767,189.60667,-4.143433,2.551308,3.736942,30.918038,-22.771881,10.415547
696,2107310590,37.114876,11.353504,-20.888245,5.647619,5.755495,-8.994482,58.075478,368.29376,186.46713,-4.049306,2.647233,3.587034,31.885963,-16.633652,13.523333
697,2107327257,36.70304,5.2703247,-20.169525,5.918999,6.16918,-9.1028385,56.09801,348.22684,181.39607,-3.950656,2.750053,3.43532,32.82093,-10.829871,16.546601
698,2107343924,36.431984,-1.0137177,-19.225754,6.2379613,6.50045,-9.247858,51.725418,328.34833,173.45361,-3.84669,2.858394,3.281189,33.68302,-5.357399,19.437495
699,2107360591,36.325996,-7.5097504,-18.06847,6.6294236,6.7502365,-9.422842,44.781536,309.4431,162.49434,-3.7362,2.970898,3.124142,34.429379,-0.200014,22.145734
700,2107377258,35.86715,-13.999165,-16.611485,6.710138,6.9083614,-9.651041,36.754456,278.7341,148.8291,-3.624364,3.086037,2.963291,35.041953,4.445554,24.626219
701,2107393925,35.20469,-20.530533,-14.826138,6.5680995,6.962965,-9.937777,27.080593,239.15314,132.14044,-3.514896,3.202086,2.797661,35.493296,8.43144,26.82856
702,2107410592,35.088753,-25.753532,-14.262768,6.4113965,6.9953747,-9.883007,19.623188,206.44398,117.85904,-3.408039,3.318676,2.632944,35.820349,11.872173,28.792877
703,2107427259,35.537376,-29.496025,-15.040939,6.205191,7.004383,-9.454807,14.868114,180.34833,106.443344,-3.304619,3.435416,2.475364,36.068151,14.877978,30.566933
704,2107443926,36.302025,-32.41591,-16.39344,5.903397,6.9372025,-8.848251,10.543115,155.20311,95.00977,-3.206229,3.551036,2.327893,36.24387,17.464696,32.150429
705,2107460593,37.584846,-34.105858,-18.743408,5.5438657,6.8099957,-7.953151,7.750034,134.83278,85.03296,-3.113831,3.664536,2.19534,36.373037,19.711909,33.567645
706,2107477260,38.818626,-35.273598,-21.159512,4.898807,6.5665693,-7.0068583,4.541029,106.57444,73.29309,-3.032184,3.773979,2.078559,36.448721,21.48815,34.789197
707,2107493927,39.991325,-35.93644,-23.577328,3.95182,6.1954803,-6.0242543,0.72847325,69.704216,59.511333,-2.96632,3.877237,1.978155,36.460862,22.649887,35.781053
708,2107510594,41.56707,-35.359413,-26.829239,2.8395534,5.7337875,-4.790194,-1.7491925,33.657825,46.554756,-2.918994,3.9728,1.898318,36.431709,23.210851,36.556966
709,2107527261,43.43679,-33.656662,-30.722172,1.5045075,5.1637487,-3.3525834,-3.295595,-4.385358,33.723385,-2.893919,4.058862,1.842442,36.376782,23.137762,37.119022
710,2107543928,46.659065,-32.843124,-33.94505,0.6823249,4.5414658,-2.198515,-10.590846,-32.903633,23.878012,-2.882547,4.134553,1.8058,36.200268,22.589368,37.516989
711,2107560595,51.410393,-32.985725,-36.483517,0.45353937,3.8724687,-1.3457336,-24.01718,-49.704113,17.705938,-2.874988,4.199094,1.783371,35.799982,21.760966,37.812088
712,2107577262,57.134605,-33.172943,-38.8351,0.4248824,3.1133735,-0.5937662,-40.675396,-62.198425,13.422377,-2.867907,4.250984,1.773475,35.122059,20.724326,38.035794
713,2107593929,64.16729,-33.920044,-40.665867,0.805676,2.2778022,-0.07104492,-62.378986,-66.79397,12.006535,-2.854479,4.288947,1.772291,34.082409,19.611093,38.235903
714,2107610596,72.04496,-33.819374,-42.95451,1.1961951,1.3338342,0.5622983,-84.77556,-67.79667,12.5553055,-2.834542,4.311178,1.781663,32.669483,18.481149,38.445158
