PacketCounter,SampleTimeFine,Euler_X,Euler_Y,Euler_Z,Acc_X,Acc_Y,Acc_Z,Gyr_X,Gyr_Y,Gyr_Z,Velo_X,Velo_Y,Velo_Z,ANG_X,ANG_Y,ANG_Z
0,1474744516,-19.81102,54.775543,9.919732,-8.62066,1.8903346,3.028598,-4.480773,-1.0533416,0.13056181,0.0,0.0,0.0,0.0,0.0,0.0
1,1474761183,-19.76654,54.78394,9.914586,-8.71625,2.195385,3.0209925,-4.3417683,-1.0589353,0.17299382,-0.145271,0.03659,0.05035,-0.072363,-0.017649,0.002883
2,1474777850,-19.720078,54.79258,9.909347,-8.820215,2.5255704,3.0120857,-4.1949477,-1.0630559,0.21761283,-0.292275,0.078683,0.100551,-0.142279,-0.035367,0.00651
3,1474794517,-19.67237,54.801285,9.904105,-8.931077,2.876009,3.001934,-4.0424047,-1.0654352,0.26377437,-0.441126,0.126616,0.150583,-0.209652,-0.053124,0.010906
4,1474811184,-19.608437,54.81352,9.896905,-9.078906,3.3457165,2.9893181,-3.8409977,-1.0711253,0.32482395,-0.592441,0.182378,0.200405,-0.273669,-0.070976,0.01632
5,1474827851,-19.53157,54.8285,9.888196,-9.2576065,3.91438,2.9743893,-3.60004,-1.0788112,0.39785457,-0.746734,0.247618,0.249978,-0.33367,-0.088956,0.022951
6,1474844518,-19.472328,54.83451,9.882609,-9.376469,4.290906,2.964571,-3.454638,-1.116954,0.4683493,-0.903008,0.319133,0.299388,-0.391247,-0.107572,0.030757
7,1474861185,-19.43155,54.83087,9.880326,-9.431053,4.461317,2.960374,-3.4119952,-1.1891392,0.53687286,-1.060192,0.393488,0.348728,-0.448114,-0.127391,0.039705
8,1474877852,-19.396759,54.82262,9.879436,-9.460756,4.551505,2.9583397,-3.4139147,-1.2812244,0.60864943,-1.217871,0.469346,0.398034,-0.505013,-0.148745,0.049849
9,1474894519,-19.3759,54.806564,9.881169,-9.441353,4.4838057,2.9604943,-3.4968722,-1.4017279,0.68032956,-1.375227,0.544076,0.447376,-0.563294,-0.172107,0.061188
10,1474911186,-19.346977,54.790436,9.882304,-9.433977,4.4550447,2.9621665,-3.5705824,-1.5357636,0.7642262,-1.53246,0.618327,0.496745,-0.622804,-0.197703,0.073925
11,1474927853,-19.308838,54.77459,9.882676,-9.441961,4.4758844,2.9630837,-3.630549,-1.6828521,0.86118895,-1.689826,0.692925,0.54613,-0.683313,-0.225751,0.088278
12,1474944520,-19.27919,54.752342,9.884967,-9.413816,4.3808403,2.9673498,-3.7537336,-1.8583486,0.9624833,-1.846723,0.765939,0.595586,-0.745875,-0.256723,0.104319
13,1474961187,-19.253357,54.72524,9.888505,-9.36219,4.2106447,2.9740129,-3.9218254,-2.0597725,1.0709971,-2.00276,0.836116,0.645153,-0.811239,-0.291053,0.122169
14,1474977854,-19.23278,54.70513,9.883531,-9.339382,4.1301374,2.9795067,-4.0668077,-2.246604,1.1375766,-2.158416,0.904952,0.694811,-0.879019,-0.328496,0.141129
15,1474994521,-19.219872,54.692253,9.869401,-9.343687,4.133545,2.9840615,-4.192637,-2.4175458,1.1563965,-2.314144,0.973844,0.744545,-0.948896,-0.368788,0.160402
16,1475011188,-19.210922,54.68196,9.850272,-9.358475,4.1690245,2.9887843,-4.3201904,-2.590776,1.1526566,-2.470119,1.043328,0.794358,-1.020899,-0.411968,0.179613
17,1475027855,-19.2071,54.677296,9.823432,-9.396326,4.2760944,2.9928753,-4.4339366,-2.7559366,1.1119617,-2.626724,1.114596,0.844239,-1.094798,-0.4579,0.198146
18,1475044522,-19.212288,54.669548,9.795217,-9.413106,4.3147764,2.9995313,-4.5946383,-2.9414134,1.0605693,-2.783609,1.186509,0.894231,-1.171375,-0.506924,0.215822
19,1475061189,-19.2266,54.65826,9.765864,-9.406701,4.2783785,3.008946,-4.8057346,-3.1492639,0.9997777,-2.940387,1.257815,0.94438,-1.251471,-0.559412,0.232485
20,1475077856,-19.249504,54.65039,9.729789,-9.409428,4.2690325,3.018912,-5.0247865,-3.356721,0.9033526,-3.097211,1.328966,0.994695,-1.335217,-0.615357,0.247541
21,1475094523,-19.282196,54.64408,9.688209,-9.411596,4.2559576,3.0301738,-5.265731,-3.5701075,0.77604353,-3.254071,1.399899,1.045198,-1.422979,-0.674859,0.260475
22,1475111190,-19.304718,54.638382,9.653256,-9.414314,4.243293,3.042205,-5.2998767,-3.6790147,0.69227445,-3.410976,1.470621,1.095901,-1.51131,-0.736176,0.272013
23,1475127857,-19.315575,54.63408,9.6253195,-9.421145,4.2422724,3.0547655,-5.0998783,-3.6693878,0.6551095,-3.567995,1.541326,1.146814,-1.596308,-0.797332,0.282931
24,1475144524,-19.325325,54.63039,9.599374,-9.4246645,4.2289553,3.0686758,-4.7831993,-3.5972276,0.6317374,-3.725073,1.611809,1.197959,-1.676028,-0.857286,0.29346
25,1475161191,-19.328667,54.62733,9.578584,-9.426004,4.2070312,3.0837698,-4.2827735,-3.4295774,0.6416402,-3.882173,1.681926,1.249355,-1.747408,-0.914446,0.304154
26,1475177858,-19.337418,54.627296,9.554315,-9.432579,4.1994867,3.0998704,-3.7198873,-3.2240515,0.6339094,-4.039383,1.751917,1.30102,-1.809406,-0.96818,0.314719
27,1475194525,-19.352638,54.630356,9.526088,-9.443878,4.204585,3.1170847,-3.1004927,-2.982859,0.60534585,-4.196781,1.821993,1.352971,-1.861081,-1.017894,0.324808
28,1475211192,-19.363953,54.63544,9.500922,-9.45735,4.21453,3.1353757,-2.3028185,-2.6467319,0.5979224,-4.354403,1.892235,1.405227,-1.899461,-1.062006,0.334773
29,1475227859,-19.373993,54.643158,9.476981,-9.474574,4.234149,3.1547432,-1.3486896,-2.2254882,0.6007392,-4.512313,1.962804,1.457806,-1.921939,-1.099097,0.344785
30,1475244526,-19.348274,54.640175,9.463002,-9.483881,4.240142,3.1605945,-0.5843682,-1.8998151,0.7085229,-4.670378,2.033473,1.510483,-1.931678,-1.130761,0.356594
31,1475261193,-19.281898,54.625168,9.4607935,-9.48423,4.2305927,3.1514225,-0.02403307,-1.6773734,0.9364434,-4.828449,2.103983,1.563007,-1.932079,-1.158717,0.372201
32,1475277860,-19.192688,54.60492,9.465081,-9.482424,4.2204847,3.1340618,0.48526287,-1.4769946,1.2330933,-4.986489,2.174324,1.615241,-1.923991,-1.183334,0.392753
33,1475294527,-19.070122,54.575657,9.478715,-9.475364,4.203946,3.1042595,0.8529625,-1.34587,1.6279244,-5.144412,2.24439,1.666979,-1.909775,-1.205765,0.419885
34,1475311194,-18.931335,54.544884,9.498574,-9.469057,4.1921453,3.0704165,1.3159919,-1.160894,2.0777316,-5.30223,2.314259,1.718153,-1.887842,-1.225113,0.454514
35,1475327861,-18.776894,54.51306,9.524558,-9.464215,4.1870003,3.0328212,1.8893738,-0.9138754,2.5811312,-5.459967,2.384042,1.7687,-1.856352,-1.240344,0.497533
36,1475344528,-18.588387,54.47309,9.5609865,-9.455264,4.1783466,2.983376,2.3779511,-0.7061938,3.1875134,-5.617555,2.453681,1.818423,-1.816719,-1.252114,0.550658
37,1475361195,-18.36853,54.426434,9.607497,-9.443577,4.169098,2.9235752,2.83255,-0.51122355,3.8903992,-5.774948,2.523166,1.867149,-1.76951,-1.260634,0.615498
38,1475377862,-18.211037,54.374268,9.642158,-9.429339,4.166465,2.879739,2.9648604,-0.36772752,4.410886,-5.932104,2.592607,1.915145,-1.720096,-1.266763,0.689013
39,1475394529,-18.121971,54.315575,9.663705,-9.411821,4.170086,2.853169,2.7200937,-0.29259413,4.7303724,-6.088968,2.662108,1.962698,-1.674761,-1.27164,0.767853
40,1475411196,-18.058205,54.250557,9.682582,-9.391857,4.1788435,2.832183,2.2663713,-0.2500518,4.978507,-6.245499,2.731755,2.009901,-1.636988,-1.275808,0.850828
41,1475427863,-18.045158,54.17907,9.692971,-9.369231,4.1945744,2.8237782,1.5111494,-0.25570786,5.07943,-6.401653,2.801665,2.056964,-1.611802,-1.28007,0.935485
42,1475444530,-18.02282,54.098347,9.709081,-9.34253,4.2113647,2.810267,0.56845236,-0.3134808,5.2102747,-6.557362,2.871854,2.103802,-1.602328,-1.285295,1.022323
43,1475461197,-17.987717,54.00802,9.731933,-9.311686,4.2293224,2.7905993,-0.5580864,-0.42340994,5.381547,-6.712557,2.942343,2.150312,-1.611629,-1.292352,1.112015
44,1475477864,-17.991997,53.909035,9.749478,-9.277094,4.253084,2.7796245,-2.0139077,-0.5995915,5.4386954,-6.867175,3.013228,2.196639,-1.645194,-1.302345,1.20266
45,1475494531,-18.023346,53.800503,9.764787,-9.238351,4.2816076,2.7736278,-3.7841558,-0.8453169,5.418039,-7.021148,3.084588,2.242866,-1.708263,-1.316434,1.292961
46,1475511198,-18.026772,53.711502,9.777337,-9.21832,4.3019705,2.7690132,-4.9198403,-1.0500102,5.3199277,-7.174787,3.156288,2.289016,-1.79026,-1.333934,1.381626
47,1475527865,-18.004105,53.644753,9.785499,-9.219232,4.313552,2.7674124,-5.3554716,-1.2081261,5.1222067,-7.328441,3.228181,2.33514,-1.879518,-1.354069,1.466996
48,1475544532,-17.973671,53.585716,9.791497,-9.229981,4.321884,2.7681608,-5.5374117,-1.3770869,4.8463907,-7.482274,3.300212,2.381276,-1.971808,-1.37702,1.547769
49,1475561199,-17.92237,53.54258,9.794623,-9.257099,4.323511,2.7709398,-5.207156,-1.5287492,4.483826,-7.636559,3.372271,2.427458,-2.058594,-1.402499,1.622499
50,1475577866,-17.896233,53.49846,9.792047,-9.287435,4.3274164,2.7818174,-4.9617295,-1.7341886,3.9911654,-7.79135,3.444395,2.473822,-2.141289,-1.431402,1.689018
51,1475594533,-17.89775,53.452316,9.7836275,-9.320345,4.3340826,2.8011246,-4.837448,-2.000535,3.364031,-7.946689,3.51663,2.520507,-2.221913,-1.464744,1.745085
52,1475611200,-17.893417,53.419853,9.769891,-9.368277,4.3360224,2.8258743,-4.3109636,-2.2695065,2.6117013,-8.102827,3.588897,2.567605,-2.293762,-1.502569,1.788613
53,1475627867,-17.89354,53.397724,9.749972,-9.428753,4.335102,2.8576372,-3.5048332,-2.5578299,1.7200681,-8.259973,3.661149,2.615232,-2.352176,-1.545199,1.817281
54,1475644534,-17.891655,53.375984,9.734229,-9.462624,4.334214,2.8789167,-3.0884523,-2.7538795,1.0910974,-8.417683,3.733386,2.663214,-2.40365,-1.591097,1.835466
55,1475661201,-17.883682,53.356064,9.723374,-9.467911,4.3326406,2.8879845,-3.05537,-2.839672,0.7605207,-8.575482,3.805597,2.711347,-2.454573,-1.638425,1.848141
56,1475677868,-17.880135,53.34082,9.711648,-9.461717,4.3301954,2.8944511,-3.1657495,-2.879601,0.5248578,-8.733177,3.877767,2.759588,-2.507335,-1.686418,1.856889
57,1475694535,-17.87844,53.328415,9.701724,-9.433567,4.327346,2.8934803,-3.5847857,-2.8394697,0.49574065,-8.890403,3.949889,2.807813,-2.567081,-1.733742,1.865151
58,1475711202,-17.87423,53.329124,9.687398,-9.409687,4.320387,2.8947558,-3.7836618,-2.7703922,0.43753445,-9.047231,4.021895,2.856059,-2.630142,-1.779915,1.872443
59,1475727869,-17.868378,53.343822,9.667975,-9.391512,4.3091135,2.8991346,-3.7345338,-2.675377,0.3341717,-9.203756,4.093714,2.904378,-2.692384,-1.824505,1.878013
60,1475744536,-17.860664,53.366287,9.648744,-9.356876,4.295637,2.897603,-3.8380375,-2.4972248,0.40117168,-9.359704,4.165308,2.952671,-2.756351,-1.866125,1.884699
61,1475761203,-17.85022,53.39917,9.628222,-9.311197,4.2790394,2.892218,-3.9786725,-2.2445402,0.59053826,-9.514891,4.236625,3.000875,-2.822662,-1.903534,1.894541
62,1475777870,-17.844162,53.417934,9.609862,-9.284305,4.267502,2.890179,-4.0442276,-2.1279116,0.6728143,-9.669629,4.30775,3.049045,-2.890066,-1.938999,1.905755
63,1475794537,-17.842712,53.419857,9.594621,-9.276199,4.2619267,2.8909087,-4.068471,-2.158002,0.6567722,-9.824232,4.378782,3.097227,-2.957874,-1.974966,1.916701
64,1475811204,-17.841667,53.418736,9.579829,-9.276273,4.2577,2.8922822,-4.023211,-2.2387252,0.62219566,-9.978837,4.449744,3.145432,-3.024928,-2.012278,1.927071
65,1475827871,-17.84269,53.407665,9.566659,-9.29206,4.257119,2.8958678,-3.8879898,-2.4257874,0.51567584,-10.133705,4.520696,3.193696,-3.089728,-2.052708,1.935666
66,1475844538,-17.841713,53.399834,9.554288,-9.300364,4.2558517,2.8951573,-3.8280044,-2.5798035,0.5290454,-10.288711,4.591627,3.241949,-3.153528,-2.095705,1.944483
67,1475861205,-17.838066,53.396416,9.542592,-9.300117,4.2535076,2.8897524,-3.8422303,-2.6917133,0.6743908,-10.443713,4.662519,3.290112,-3.217565,-2.140567,1.955723
68,1475877872,-17.835007,53.384808,9.533107,-9.309258,4.2542467,2.8840759,-3.8324819,-2.8786814,0.81399643,-10.598867,4.733423,3.33818,-3.28144,-2.188545,1.96929
69,1475894539,-17.831436,53.367764,9.525729,-9.322862,4.257167,2.8766012,-3.833503,-3.1110315,0.9919777,-10.754248,4.804376,3.386123,-3.345332,-2.240396,1.985823
70,1475911206,-17.828392,53.358124,9.512095,-9.329693,4.259185,2.873385,-3.8319492,-3.2577996,1.1013279,-10.909743,4.875362,3.434013,-3.409198,-2.294693,2.004178
71,1475927873,-17.826263,53.355293,9.491712,-9.330772,4.2606173,2.8754032,-3.818651,-3.321055,1.1180878,-11.065256,4.946372,3.481936,-3.472842,-2.350044,2.022813
72,1475944540,-17.8236,53.354866,9.468581,-9.328052,4.2623863,2.8786306,-3.8254828,-3.3429346,1.1254925,-11.220724,5.017412,3.529913,-3.5366,-2.40576,2.041571
73,1475961207,-17.820755,53.35978,9.440482,-9.318932,4.263859,2.8848395,-3.8483486,-3.2908235,1.0904334,-11.37604,5.088476,3.577994,-3.600739,-2.460607,2.059745
74,1475977874,-17.81752,53.35927,9.412755,-9.314597,4.2679253,2.8914979,-3.8682303,-3.2706065,1.043194,-11.531283,5.159608,3.626186,-3.66521,-2.515117,2.077132
75,1475994541,-17.813705,53.352646,9.385787,-9.315312,4.274802,2.8982708,-3.8893616,-3.2865052,0.9902737,-11.686538,5.230855,3.674491,-3.730033,-2.569892,2.093637
76,1476011208,-17.809593,53.347557,9.355014,-9.313354,4.2826004,2.90798,-3.9187212,-3.2581482,0.88697857,-11.841761,5.302232,3.722957,-3.795345,-2.624194,2.10842
77,1476027875,-17.8051,53.34151,9.321584,-9.311096,4.292033,2.920095,-3.953915,-3.2078958,0.73939395,-11.996946,5.373766,3.771625,-3.861244,-2.677659,2.120743
78,1476044542,-17.80355,53.33865,9.291327,-9.311796,4.2973757,2.9267917,-3.958286,-3.2033887,0.6626038,-12.152143,5.445389,3.820405,-3.927215,-2.731049,2.131786
79,1476061209,-17.805328,53.340088,9.264241,-9.314987,4.297921,2.9277387,-3.9288497,-3.2419724,0.65967625,-12.307393,5.517021,3.869201,-3.992696,-2.785082,2.142781
80,1476077876,-17.808685,53.341995,9.2383375,-9.320822,4.2969313,2.926323,-3.88178,-3.3070316,0.6786978,-12.46274,5.588637,3.917973,-4.057392,-2.840199,2.154093
81,1476094543,-17.814621,53.345657,9.215095,-9.330072,4.2927675,2.920483,-3.8066375,-3.415359,0.748663,-12.618241,5.660183,3.966648,-4.120836,-2.897122,2.166571
82,1476111210,-17.82109,53.350388,9.18999,-9.338827,4.2883606,2.9154568,-3.7290049,-3.506721,0.79131705,-12.773888,5.731656,4.015239,-4.182986,-2.955567,2.17976
83,1476127877,-17.827972,53.35583,9.162841,-9.347145,4.2839613,2.911543,-3.6499643,-3.5797086,0.80070883,-12.929674,5.803055,4.063765,-4.243819,-3.015229,2.193105
84,1476144544,-17.837143,53.36344,9.137172,-9.357672,4.2766514,2.904357,-3.547371,-3.678794,0.8397566,-13.085635,5.874333,4.112171,-4.302942,-3.076542,2.207101
85,1476161211,-17.848183,53.37304,9.112042,-9.369648,4.267024,2.894994,-3.4262648,-3.7916126,0.89090747,-13.241796,5.94545,4.160421,-4.360046,-3.139736,2.221949
86,1476177878,-17.848747,53.373505,9.08985,-9.375463,4.26035,2.8924298,-3.3307073,-3.7926588,0.9907659,-13.398054,6.016456,4.208628,-4.415558,-3.202947,2.238462
87,1476194545,-17.83789,53.36398,9.071288,-9.374647,4.2567024,2.896996,-3.261942,-3.6743822,1.1504784,-13.554298,6.087401,4.256911,-4.469924,-3.264187,2.257637
88,1476211212,-17.821121,53.349583,9.054616,-9.370278,4.2539253,2.9051852,-3.2022123,-3.48733,1.3406447,-13.710469,6.1583,4.305331,-4.523294,-3.322309,2.279981
89,1476227879,-17.79499,53.32722,9.040681,-9.360233,4.2533464,2.919396,-3.1630015,-3.1965961,1.5740647,-13.866473,6.229189,4.353988,-4.576011,-3.375586,2.306215
90,1476244546,-17.767113,53.303577,9.029082,-9.349691,4.2511234,2.933301,-3.1125658,-2.8865032,1.8449293,-14.022301,6.300041,4.402876,-4.627887,-3.423694,2.336964
91,1476261213,-17.737785,53.278976,9.019803,-9.3388195,4.247013,2.9466476,-3.0492594,-2.5596642,2.1522,-14.177948,6.370825,4.451987,-4.678708,-3.466355,2.372834
92,1476277880,-17.70008,53.24732,9.013879,-9.323118,4.2440376,2.964697,-2.99875,-2.1425564,2.5111406,-14.333333,6.441559,4.501399,-4.728687,-3.502064,2.414686
93,1476294547,-17.655472,53.209908,9.011336,-9.3035755,4.241352,2.9861803,-2.954358,-1.6511695,2.9216864,-14.488393,6.512248,4.551169,-4.777926,-3.529583,2.463381
94,1476311214,-17.632484,53.173065,9.007979,-9.291245,4.2410555,2.997908,-3.040115,-1.373602,3.2154713,-14.643247,6.582932,4.601134,-4.828595,-3.552476,2.516972
95,1476327881,-17.632988,53.136494,9.003673,-9.2865715,4.2437153,2.9992652,-3.2721066,-1.3281076,3.3793652,-14.798023,6.653661,4.651122,-4.88313,-3.574611,2.573295
96,1476344548,-17.64434,53.097904,9.000554,-9.284915,4.2477694,2.9956608,-3.588042,-1.3884244,3.49394,-14.952772,6.724457,4.70105,-4.942931,-3.597751,2.631527
97,1476361215,-17.674393,53.058723,8.997592,-9.2892,4.253935,2.9835396,-4.025196,-1.6335816,3.5127323,-15.107592,6.795356,4.750776,-5.010018,-3.624977,2.690073
98,1476377882,-17.704674,53.013504,8.997647,-9.291723,4.2617636,2.9719682,-4.519523,-1.8760622,3.538053,-15.262454,6.866385,4.800309,-5.085343,-3.656245,2.749041
99,1476394549,-17.734314,52.961838,9.001014,-9.292078,4.271206,2.9613423,-5.0689425,-2.1070313,3.5759485,-15.417322,6.937572,4.849665,-5.169825,-3.691362,2.80864
100,1476411216,-17.779404,52.907528,9.005462,-9.296631,4.2831717,2.944015,-5.7401495,-2.489922,3.5344822,-15.572266,7.008958,4.898732,-5.265494,-3.732861,2.867548
101,1476427883,-17.836311,52.849266,9.01168,-9.303777,4.297632,2.9218068,-6.5225563,-2.9875112,3.4342234,-15.727329,7.080585,4.947429,-5.374203,-3.782653,2.924785
102,1476444550,-17.880013,52.8018,9.007297,-9.306696,4.3072147,2.9083736,-6.9545975,-3.308145,3.3343084,-15.882441,7.152372,4.995902,-5.490113,-3.837789,2.980357
103,1476461217,-17.910316,52.76695,8.990825,-9.305538,4.3113976,2.9040306,-7.001352,-3.4460473,3.2270246,-16.037533,7.224229,5.044303,-5.606802,-3.895223,3.034141
104,1476477884,-17.936852,52.736794,8.968574,-9.302482,4.313715,2.9034708,-6.875462,-3.5163941,3.0964055,-16.192574,7.296124,5.092694,-5.721393,-3.95383,3.085748
105,1476494551,-17.9533,52.71563,8.936902,-9.295845,4.3121586,2.9102452,-6.4488344,-3.4441562,2.9539573,-16.347505,7.367993,5.141198,-5.828874,-4.011233,3.134981
106,1476511218,-17.978645,52.695805,8.902453,-9.291275,4.311303,2.9143379,-6.0082283,-3.4438658,2.7395415,-16.50236,7.439848,5.18977,-5.929011,-4.068631,3.18064
107,1476527885,-18.01397,52.67683,8.865533,-9.289012,4.3114424,2.915268,-5.5681934,-3.5268822,2.4486928,-16.657177,7.511705,5.238358,-6.021814,-4.127412,3.221452
108,1476544552,-18.044495,52.66643,8.819495,-9.284838,4.308552,2.921079,-4.871984,-3.5224805,2.1189551,-16.811924,7.583514,5.287043,-6.103014,-4.18612,3.256768
109,1476561219,-18.074387,52.66317,8.765525,-9.2799635,4.3035774,2.9296763,-3.9760833,-3.4763422,1.735292,-16.96659,7.65524,5.335871,-6.169282,-4.244059,3.28569
110,1476577886,-18.096413,52.656616,8.726769,-9.277601,4.3004665,2.9380803,-3.420577,-3.4307432,1.4399058,-17.121217,7.726914,5.384839,-6.226292,-4.301238,3.309688
111,1476594553,-18.108124,52.64702,8.704434,-9.277599,4.2990437,2.9470258,-3.2218633,-3.368681,1.2491918,-17.275844,7.798565,5.433956,-6.27999,-4.357383,3.330508
112,1476611220,-18.115692,52.63862,8.688176,-9.279289,4.2980366,2.9565563,-3.1585732,-3.300633,1.0839789,-17.430499,7.870199,5.483232,-6.332633,-4.412394,3.348574
113,1476627887,-18.116539,52.629005,8.684184,-9.283474,4.2983646,2.9661627,-3.3714929,-3.2319493,0.98469853,-17.585224,7.941838,5.532668,-6.388825,-4.46626,3.364986
114,1476644554,-18.110947,52.62652,8.677083,-9.287217,4.2966623,2.979737,-3.4761958,-3.0933456,0.87620175,-17.740011,8.013449,5.58233,-6.446762,-4.517816,3.379589
115,1476661221,-18.099144,52.63185,8.665967,-9.290478,4.292741,2.997436,-3.4520154,-2.882901,0.7523405,-17.894852,8.084995,5.632287,-6.504296,-4.565864,3.392128
116,1476677888,-18.07837,52.638992,8.663835,-9.295423,4.289016,3.0170026,-3.6111317,-2.6373944,0.6862849,-18.049776,8.156479,5.68257,-6.564482,-4.609821,3.403566
117,1476694555,-18.048454,52.64994,8.667481,-9.301464,4.284726,3.039363,-3.8724456,-2.340312,0.66282284,-18.2048,8.227891,5.733226,-6.629023,-4.648826,3.414613
118,1476711222,-18.031036,52.657795,8.6669855,-9.304164,4.281434,3.0544071,-3.9767747,-2.1165733,0.6420718,-18.359869,8.299248,5.784133,-6.695303,-4.684102,3.425314
119,1476727889,-18.027504,52.66134,8.663098,-9.303335,4.2795353,3.0609958,-3.937877,-1.9798546,0.63150907,-18.514925,8.370574,5.83515,-6.760934,-4.7171,3.435839
120,1476744556,-18.027122,52.66536,8.6584635,-9.300681,4.277733,3.0646234,-3.8243985,-1.8577447,0.6415567,-18.669936,8.44187,5.886227,-6.824674,-4.748062,3.446532
121,1476761223,-18.03566,52.66781,8.650847,-9.294997,4.2765293,3.0624099,-3.57476,-1.7849,0.6656559,-18.824853,8.513145,5.937267,-6.884253,-4.77781,3.457626
122,1476777890,-18.039513,52.67143,8.649465,-9.289458,4.27559,3.0597053,-3.4209661,-1.6966383,0.7472684,-18.979677,8.584405,5.988262,-6.941269,-4.806087,3.47008
123,1476794557,-18.037598,52.67661,8.654765,-9.284174,4.2748203,3.0569074,-3.3716807,-1.5863681,0.89039665,-19.134413,8.655652,6.03921,-6.997464,-4.832526,3.48492
124,1476811224,-18.041595,52.680195,8.660413,-9.276492,4.2748337,3.0487916,-3.260464,-1.5162238,1.0701092,-19.289021,8.726899,6.090023,-7.051805,-4.857796,3.502755
125,1476827891,-18.04853,52.682755,8.668496,-9.267038,4.27557,3.036416,-3.1374247,-1.4722774,1.2980226,-19.443472,8.798158,6.14063,-7.104095,-4.882334,3.524389
126,1476844558,-18.048874,52.681755,8.683141,-9.262726,4.276354,3.0297055,-3.1195285,-1.3764282,1.4788572,-19.597851,8.869431,6.191125,-7.156087,-4.905274,3.549037
127,1476861225,-18.04322,52.676395,8.704204,-9.263883,4.277252,3.0288365,-3.2010667,-1.2298337,1.6026157,-19.752249,8.940719,6.241606,-7.209438,-4.925771,3.575747
128,1476877892,-18.034042,52.66814,8.731339,-9.267639,4.278573,3.0297182,-3.3627505,-1.0606103,1.7243239,-19.90671,9.012029,6.292101,-7.265484,-4.943448,3.604486
129,1476894559,-18.019142,52.656006,8.765676,-9.275856,4.2802,3.0348651,-3.6344795,-0.8497459,1.8177295,-20.061308,9.083366,6.342682,-7.326059,-4.95761,3.634781
130,1476911226,-18.00689,52.640594,8.803393,-9.283794,4.282688,3.0370858,-3.9065495,-0.6580758,1.9346893,-20.216038,9.154744,6.3933,-7.391168,-4.968578,3.667026
131,1476927893,-17.99762,52.62178,8.844642,-9.291237,4.2861176,3.035933,-4.179043,-0.48896503,2.0805557,-20.370892,9.226179,6.443899,-7.460819,-4.976727,3.701702
132,1476944560,-17.985329,52.598206,8.89243,-9.302181,4.2901382,3.0370946,-4.5335517,-0.2964667,2.2070181,-20.525928,9.297681,6.494517,-7.536378,-4.981668,3.738486
133,1476961227,-17.971825,52.56978,8.946128,-9.315667,4.294915,3.0389974,-4.949099,-0.09397483,2.325507,-20.681189,9.369263,6.545167,-7.618863,-4.983234,3.777244
134,1476977894,-17.969872,52.549644,8.981854,-9.321622,4.29922,3.038093,-5.204323,-0.06253898,2.367715,-20.836549,9.440917,6.595802,-7.705602,-4.984276,3.816706
135,1476994561,-17.980156,52.538727,8.997647,-9.319574,4.30293,3.0346954,-5.287384,-0.21568978,2.3198123,-20.991875,9.512632,6.64638,-7.793725,-4.987871,3.85537
136,1477011228,-17.997978,52.530563,9.004407,-9.313662,4.3067617,3.029385,-5.2893014,-0.478253,2.2209778,-21.147103,9.584411,6.69687,-7.88188,-4.995842,3.892386
137,1477027895,-18.026917,52.528694,8.995393,-9.301169,4.310383,3.0213323,-5.1495824,-0.9016511,2.048706,-21.302122,9.656251,6.747226,-7.967706,-5.01087,3.926531
138,1477044562,-18.058136,52.524883,8.985387,-9.289003,4.3144674,3.014001,-5.0203924,-1.3709038,1.8299587,-21.456939,9.728159,6.797459,-8.051379,-5.033718,3.95703
139,1477061229,-18.091492,52.51853,8.975038,-9.277467,4.319091,3.0074515,-4.9079,-1.8830224,1.5650374,-21.611563,9.800144,6.847583,-8.133177,-5.065102,3.983114
140,1477077896,-18.134666,52.5168,8.950919,-9.260728,4.323634,2.9992595,-4.68258,-2.5423508,1.2185996,-21.765908,9.872205,6.897571,-8.21122,-5.107475,4.003424
141,1477094563,-18.186043,52.517925,8.915866,-9.240172,4.328251,2.9901438,-4.3745546,-3.328011,0.7937128,-21.919911,9.944343,6.947407,-8.284129,-5.162942,4.016653
142,1477111230,-18.218239,52.521507,8.893767,-9.230466,4.3303003,2.9870296,-4.1320024,-3.8000717,0.5101172,-22.073752,10.016515,6.997191,-8.352996,-5.226277,4.025155
143,1477127897,-18.229713,52.52848,8.88495,-9.232285,4.329427,2.9903617,-3.9512758,-3.9304967,0.38227242,-22.227623,10.088672,7.04703,-8.418851,-5.291785,4.031526
144,1477144564,-18.232414,52.53793,8.87972,-9.239593,4.3269663,2.9973946,-3.780427,-3.9152002,0.30606434,-22.381616,10.160788,7.096987,-8.481858,-5.357038,4.036627
145,1477161231,-18.21894,52.550095,8.884097,-9.256336,4.3221207,3.0100765,-3.6550126,-3.6338935,0.340853,-22.535888,10.232823,7.147155,-8.542775,-5.417603,4.042308
146,1477177898,-18.207405,52.56711,8.880345,-9.272444,4.31625,3.023775,-3.4522443,-3.3718247,0.3471367,-22.690429,10.30476,7.197551,-8.600312,-5.4738,4.048094
147,1477194565,-18.198746,52.589115,8.867366,-9.287468,4.3093967,3.038374,-3.1650107,-3.1434617,0.3158479,-22.84522,10.376583,7.248191,-8.653062,-5.526191,4.053358
148,1477211232,-18.177414,52.615444,8.859031,-9.309891,4.3001375,3.057958,-2.8832686,-2.7006006,0.36795282,-23.000385,10.448252,7.299157,-8.701116,-5.571201,4.059491
149,1477227899,-18.147064,52.64672,8.851426,-9.337685,4.2886934,3.0816698,-2.5793867,-2.10049,0.47429872,-23.156013,10.51973,7.350518,-8.744106,-5.606209,4.067396
150,1477244566,-18.12667,52.671146,8.84599,-9.354396,4.280633,3.096025,-2.3803396,-1.7353537,0.5316647,-23.31192,10.591074,7.402118,-8.783778,-5.635132,4.076257
151,1477261233,-18.11596,52.68769,8.844483,-9.359537,4.2762623,3.100288,-2.3083646,-1.6092002,0.5463421,-23.467912,10.662345,7.453789,-8.822251,-5.661952,4.085363
152,1477277900,-18.108246,52.7025,8.843528,-9.35959,4.273037,3.1003366,-2.2839115,-1.5718311,0.54862726,-23.623905,10.733562,7.505461,-8.860316,-5.688149,4.094507
153,1477294567,-18.108192,52.712334,8.84401,-9.350231,4.272441,3.0925314,-2.3458498,-1.722817,0.51490813,-23.779742,10.804769,7.557003,-8.899413,-5.716863,4.103089
154,1477311234,-18.100502,52.72405,8.848563,-9.343309,4.2708035,3.0858827,-2.442829,-1.7663896,0.53711194,-23.935464,10.875949,7.608434,-8.940127,-5.746303,4.112041
155,1477327901,-18.084381,52.738182,8.857102,-9.339373,4.267892,3.080858,-2.570423,-1.6869121,0.62002885,-24.09112,10.947081,7.659782,-8.982967,-5.774418,4.122375
156,1477344568,-18.071266,52.748497,8.8692465,-9.328774,4.2668133,3.0697846,-2.7899356,-1.7158118,0.6991999,-24.2466,11.018195,7.710945,-9.029466,-5.803015,4.134028
157,1477361235,-18.05783,52.75644,8.885686,-9.313963,4.266797,3.054502,-3.0925245,-1.7895395,0.7954432,-24.401833,11.089308,7.761853,-9.081008,-5.832841,4.147285
158,1477377902,-18.046196,52.763927,8.898057,-9.305996,4.2657633,3.0438492,-3.276431,-1.8092563,0.9001426,-24.556933,11.160404,7.812584,-9.135615,-5.862995,4.162287
159,1477394569,-18.037895,52.770256,8.905772,-9.304728,4.263919,3.0376527,-3.3328514,-1.7927951,1.0064089,-24.712012,11.231469,7.863212,-9.191163,-5.892875,4.17906
160,1477411236,-18.029533,52.77539,8.913466,-9.306525,4.2617455,3.0328877,-3.3537865,-1.7434689,1.1338499,-24.867121,11.302498,7.91376,-9.247059,-5.921933,4.197957
161,1477427903,-18.022087,52.77954,8.918967,-9.31415,4.25879,3.0317104,-3.2866378,-1.6411184,1.2790935,-25.022357,11.373478,7.964289,-9.301836,-5.949285,4.219275
162,1477444570,-18.017113,52.779922,8.92718,-9.318602,4.257078,3.026904,-3.2665076,-1.6024742,1.432114,-25.177667,11.444429,8.014737,-9.356278,-5.975993,4.243144
163,1477461237,-18.014442,52.77633,8.938647,-9.3195,4.2567034,3.0180986,-3.3027275,-1.6298048,1.5951438,-25.332992,11.515374,8.065039,-9.411323,-6.003156,4.26973
164,1477477904,-18.014244,52.770138,8.949138,-9.323662,4.2563114,3.0106676,-3.283451,-1.6493632,1.7704902,-25.488386,11.586313,8.115217,-9.466047,-6.030645,4.299238
165,1477494571,-18.016922,52.76061,8.9598,-9.329173,4.256365,3.003026,-3.237997,-1.6866947,1.9566934,-25.643872,11.657252,8.165267,-9.520014,-6.058757,4.33185
166,1477511238,-18.015892,52.75324,8.969043,-9.332466,4.256694,2.998566,-3.2143035,-1.7171593,2.0873802,-25.799413,11.728197,8.215243,-9.573586,-6.087376,4.36664
167,1477527905,-18.010757,52.748547,8.976195,-9.333977,4.2571726,2.9982243,-3.2030563,-1.7321911,2.1556356,-25.954979,11.79915,8.265213,-9.62697,-6.116246,4.402567
168,1477544572,-18.005035,52.743263,8.98282,-9.334078,4.2582293,2.9992936,-3.201315,-1.7625024,2.191562,-26.110547,11.87012,8.315201,-9.680325,-6.145621,4.439093
169,1477561239,-17.99704,52.738853,8.988301,-9.331965,4.2598114,3.0029092,-3.2182717,-1.8006269,2.1756127,-26.26608,11.941117,8.365249,-9.733963,-6.175631,4.475353
170,1477577906,-17.99067,52.732285,8.99261,-9.331486,4.261709,3.0084696,-3.1978726,-1.8423297,2.147496,-26.421605,12.012145,8.41539,-9.787261,-6.206336,4.511145
171,1477594573,-17.986351,52.723183,8.995803,-9.332701,4.2639866,3.0158436,-3.1383362,-1.891145,2.1082823,-26.57715,12.083211,8.465654,-9.839567,-6.237855,4.546283
172,1477611240,-17.980705,52.714283,8.997285,-9.333033,4.266714,3.026401,-3.0741885,-1.9432507,2.0200632,-26.732701,12.154323,8.516094,-9.890803,-6.270243,4.579951
173,1477627907,-17.974655,52.70487,8.996987,-9.333293,4.2698727,3.0400913,-2.9926546,-1.9987364,1.8897955,-26.888256,12.225488,8.566762,-9.940681,-6.303555,4.611448
174,1477644574,-17.97036,52.697746,8.999314,-9.334005,4.272853,3.046599,-2.9462268,-2.0252209,1.8026102,-27.043823,12.296702,8.617539,-9.989785,-6.337309,4.641492
175,1477661241,-17.967628,52.693542,9.004514,-9.334965,4.2756014,3.045212,-2.9426336,-2.0185118,1.7606444,-27.199406,12.367962,8.668293,-10.038829,-6.370951,4.670836
176,1477677908,-17.966087,52.690453,9.010379,-9.336505,4.278409,3.040862,-2.9472888,-1.9939702,1.7269181,-27.355014,12.439269,8.718974,-10.08795,-6.404184,4.699618
177,1477694575,-17.966232,52.689396,9.018058,-9.338727,4.281102,3.0307527,-2.9751883,-1.9416997,1.7230629,-27.510659,12.510621,8.769487,-10.137536,-6.436546,4.728336
178,1477711242,-17.966087,52.689384,9.024777,-9.340641,4.284091,3.0212758,-3.0040193,-1.8808715,1.6878659,-27.666336,12.582023,8.819842,-10.187603,-6.467894,4.756467
179,1477727909,-17.965645,52.69037,9.030297,-9.342289,4.287401,3.0128462,-3.0306845,-1.811934,1.6170808,-27.822041,12.65348,8.870056,-10.238114,-6.498093,4.783418
180,1477744576,-17.966293,52.693726,9.03696,-9.344257,4.290674,2.999847,-3.0792983,-1.7160168,1.559189,-27.977779,12.724991,8.920053,-10.289436,-6.526693,4.809404
181,1477761243,-17.967667,52.699337,9.044143,-9.346357,4.293993,2.983602,-3.1450024,-1.5963604,1.5005689,-28.133552,12.796558,8.96978,-10.341853,-6.553299,4.834413
182,1477777910,-17.964088,52.70314,9.05486,-9.347303,4.2925873,2.9738705,-3.1718209,-1.4963648,1.4648983,-28.28934,12.868101,9.019345,-10.394717,-6.578238,4.858828
183,1477794577,-17.955154,52.70503,9.069713,-9.347021,4.2859135,2.970854,-3.1578493,-1.4170685,1.4602603,-28.445124,12.939533,9.068859,-10.447348,-6.601856,4.883166
184,1477811244,-17.943253,52.70695,9.086871,-9.345987,4.276252,2.97079,-3.1265173,-1.3393146,1.4660716,-28.60089,13.010804,9.118372,-10.499457,-6.624178,4.907601
185,1477827911,-17.926788,52.707897,9.1073065,-9.343839,4.26219,2.976207,-3.0632124,-1.2740568,1.4908441,-28.756621,13.08184,9.167975,-10.550511,-6.645412,4.932448
186,1477844578,-17.909363,52.71071,9.129863,-9.341499,4.2463617,2.9799767,-3.0061476,-1.1900746,1.5328639,-28.912313,13.152613,9.217641,-10.600613,-6.665247,4.957996
187,1477861245,-17.89109,52.715645,9.154489,-9.338987,4.2288465,2.9817603,-2.9574127,-1.0850712,1.5914019,-29.067963,13.223094,9.267337,-10.649903,-6.683332,4.984519
188,1477877912,-17.868729,52.720486,9.182691,-9.335511,4.2070227,2.987282,-2.8854196,-0.98363215,1.6755857,-29.223555,13.293211,9.317125,-10.697993,-6.699726,5.012445
189,1477894579,-17.842934,52.725903,9.214313,-9.331242,4.181344,2.9950528,-2.7981644,-0.8787171,1.7858491,-29.379076,13.3629,9.367043,-10.744629,-6.714371,5.042209
190,1477911246,-17.829567,52.72823,9.230439,-9.327906,4.169465,2.9980009,-2.7825382,-0.9243151,1.861587,-29.534541,13.432391,9.41701,-10.791005,-6.729776,5.073235
191,1477927913,-17.829758,52.72686,9.229457,-9.325555,4.1727266,2.9961407,-2.843274,-1.1390574,1.8993374,-29.689967,13.501936,9.466946,-10.838393,-6.74876,5.104891
192,1477944580,-17.836388,52.724007,9.220235,-9.323473,4.1830378,2.9918206,-2.94483,-1.4459655,1.9290679,-29.845358,13.571653,9.51681,-10.887473,-6.772859,5.137042
193,1477961247,-17.85389,52.71856,9.197446,-9.322107,4.205308,2.9832363,-3.1110086,-1.8906484,1.9348946,-30.000726,13.641741,9.566531,-10.939323,-6.80437,5.16929
194,1477977914,-17.872116,52.712135,9.172463,-9.32022,4.228566,2.975994,-3.2835226,-2.3908503,1.9552327,-30.156063,13.712217,9.616131,-10.994048,-6.844218,5.201877
195,1477994581,-17.890602,52.70486,9.145829,-9.31774,4.252269,2.9703016,-3.460187,-2.9433637,1.993231,-30.311359,13.783088,9.665636,-11.051718,-6.893274,5.235098
196,1478011248,-17.918312,52.6949,9.107102,-9.315669,4.2862597,2.9618146,-3.691278,-3.6313086,2.0163844,-30.46662,13.854526,9.715,-11.113239,-6.953796,5.268704
197,1478027915,-17.95324,52.68254,9.058471,-9.313742,4.328392,2.9516957,-3.9654558,-4.4404163,2.033198,-30.621849,13.926666,9.764195,-11.17933,-7.027803,5.302591
198,1478044582,-17.978722,52.67539,9.022275,-9.313601,4.35303,2.9474418,-4.127756,-4.9069653,2.0442114,-30.777076,13.999217,9.813319,-11.248126,-7.109586,5.336661
199,1478061249,-17.994408,52.67388,8.999156,-9.31554,4.35905,2.949278,-4.169775,-4.998274,2.0453506,-30.932335,14.071868,9.862474,-11.317622,-7.192891,5.37075
200,1478077916,-18.00698,52.67456,8.9797945,-9.318622,4.3572617,2.954454,-4.157665,-4.925889,2.042083,-31.087645,14.144489,9.911715,-11.386916,-7.274989,5.404785
201,1478094583,-18.012169,52.67946,8.969972,-9.323363,4.3408403,2.9649727,-4.0494156,-4.562105,2.0331907,-31.243034,14.216836,9.961131,-11.454406,-7.351024,5.438672
202,1478111250,-18.022125,52.683647,8.953753,-9.32909,4.327362,2.975345,-3.948748,-4.1995835,2.0103178,-31.398519,14.288959,10.01072,-11.520218,-7.421017,5.472177
203,1478127917,-18.037514,52.68683,8.930207,-9.335776,4.317729,2.9853864,-3.8605633,-3.853499,1.9732573,-31.554115,14.360921,10.060476,-11.584561,-7.485242,5.505065
204,1478144584,-18.048637,52.693233,8.912181,-9.344257,4.2972527,2.9996026,-3.6962028,-3.2650561,1.9245317,-31.709853,14.432542,10.110469,-11.646164,-7.53966,5.537141
205,1478161251,-18.058128,52.701836,8.896266,-9.354437,4.269554,3.0169034,-3.4765215,-2.4925568,1.8618807,-31.86576,14.503701,10.160751,-11.704106,-7.581203,5.568172
206,1478177918,-18.068718,52.706074,8.879123,-9.359089,4.2525606,3.0279038,-3.3489542,-2.0437384,1.8265017,-32.021745,14.574577,10.211216,-11.759922,-7.615265,5.598614
207,1478194585,-18.079514,52.705856,8.862033,-9.357646,4.2460985,3.032273,-3.3159065,-1.932159,1.8220446,-32.177706,14.645345,10.261754,-11.815187,-7.647468,5.628981
208,1478211252,-18.090942,52.703625,8.844281,-9.353495,4.244027,3.033752,-3.3207126,-1.9534751,1.8269922,-32.333598,14.716079,10.312317,-11.870532,-7.680026,5.659431
209,1478227919,-18.103432,52.697693,8.825425,-9.344626,4.2508125,3.0298524,-3.4012623,-2.2396078,1.8526727,-32.489342,14.786926,10.362815,-11.92722,-7.717353,5.690309
210,1478244586,-18.112831,52.69297,8.810739,-9.335482,4.252123,3.0272644,-3.4477396,-2.4250345,1.875382,-32.644933,14.857795,10.413269,-11.984682,-7.75777,5.721565
211,1478261253,-18.119041,52.689693,8.800372,-9.326296,4.2472935,3.0262923,-3.4546533,-2.490628,1.8932678,-32.800371,14.928583,10.463707,-12.04226,-7.79928,5.753119
212,1478277920,-18.124367,52.683952,8.791497,-9.313076,4.2472296,3.021435,-3.5090227,-2.731485,1.9279872,-32.955589,14.99937,10.514064,-12.100744,-7.844805,5.785252
213,1478294587,-18.12783,52.67678,8.785363,-9.296698,4.2488565,3.0140636,-3.5875878,-3.0705247,1.9745793,-33.110534,15.070184,10.564298,-12.160537,-7.89598,5.818162
214,1478311254,-18.140411,52.668106,8.780204,-9.284956,4.2488346,3.012968,-3.7282424,-3.2136908,2.0842168,-33.265283,15.140998,10.614514,-12.222674,-7.949542,5.852899
215,1478327921,-18.163353,52.65742,8.775754,-9.278042,4.2480946,3.018304,-3.9457984,-3.1687183,2.2653325,-33.419917,15.2118,10.664819,-12.288437,-8.002354,5.890655
216,1478344588,-18.190697,52.64543,8.773913,-9.272797,4.2461033,3.0268116,-4.2072144,-3.0230243,2.4910467,-33.574464,15.282568,10.715266,-12.358557,-8.052738,5.932172
217,1478361255,-18.225594,52.63194,8.77428,-9.2712345,4.242257,3.0407746,-4.527104,-2.7039208,2.77754,-33.728985,15.353272,10.765946,-12.434009,-8.097803,5.978464
218,1478377922,-18.2622,52.61594,8.77736,-9.267727,4.241317,3.0536222,-4.9069796,-2.4588404,3.1014018,-33.883447,15.423961,10.81684,-12.515792,-8.138784,6.030154
219,1478394589,-18.300102,52.597397,8.783496,-9.261967,4.2433186,3.0650733,-5.346737,-2.2966924,3.4622927,-34.037813,15.494683,10.867925,-12.604904,-8.177062,6.087859
220,1478411256,-18.344963,52.57657,8.792224,-9.258471,4.2454557,3.080374,-5.860461,-2.03267,3.8874042,-34.192121,15.565441,10.919265,-12.702578,-8.21094,6.152649
221,1478427923,-18.395645,52.553158,8.803811,-9.256041,4.248764,3.0981643,-6.450639,-1.7189523,4.3735137,-34.346388,15.636254,10.970901,-12.810089,-8.239589,6.225541
222,1478444590,-18.448639,52.512856,8.796105,-9.246185,4.2470665,3.1122117,-6.8423305,-1.7093992,4.8909235,-34.500491,15.707038,11.022771,-12.924128,-8.268079,6.307056
223,1478461257,-18.504517,52.45409,8.766868,-9.228601,4.2395277,3.1225586,-7.0126033,-2.018721,5.442357,-34.654301,15.777697,11.074814,-13.041005,-8.301724,6.397762
224,1478477924,-18.564323,52.383263,8.726754,-9.206468,4.2298393,3.1312516,-7.094758,-2.5167315,6.0417743,-34.807742,15.848194,11.127002,-13.159251,-8.34367,6.498458
225,1478494591,-18.627434,52.296097,8.669387,-9.177501,4.21622,3.1367133,-7.0123672,-3.300161,6.6836805,-34.9607,15.918464,11.179281,-13.276124,-8.398673,6.609853
226,1478511258,-18.69751,52.20074,8.607598,-9.147749,4.2015114,3.1439605,-6.9300475,-4.116901,7.395182,-35.113162,15.988489,11.23168,-13.391625,-8.467288,6.733106
227,1478527925,-18.774895,52.097313,8.541955,-9.117413,4.1859865,3.153186,-6.857521,-4.9602985,8.17998,-35.265119,16.058255,11.284233,-13.505917,-8.54996,6.869439
228,1478544592,-18.85743,51.977753,8.460252,-9.081447,4.1666517,3.1605427,-6.645137,-6.0429473,9.021608,-35.416476,16.127699,11.336909,-13.616669,-8.650676,7.019799
229,1478561259,-18.946106,51.843388,8.364869,-9.041039,4.144065,3.1670797,-6.325732,-7.3166084,9.927837,-35.56716,16.196767,11.389694,-13.722098,-8.772619,7.185263
230,1478577926,-19.034729,51.689896,8.273793,-9.002766,4.1286592,3.1859121,-6.1888003,-8.14857,10.92844,-35.717206,16.265578,11.442793,-13.825245,-8.908429,7.367404
231,1478594593,-19.12268,51.515327,8.186833,-8.966576,4.1209955,3.2179172,-6.241301,-8.505573,12.026458,-35.866649,16.334261,11.496425,-13.929267,-9.050189,7.567845
232,1478611260,-19.213676,51.322113,8.096684,-8.930076,4.116475,3.257658,-6.3661733,-8.656952,13.2152195,-36.015484,16.402869,11.550719,-14.03537,-9.194472,7.788099
233,1478627927,-19.306046,51.108246,8.007646,-8.89489,4.117898,3.3088055,-6.6381187,-8.43162,14.50449,-36.163732,16.471501,11.605866,-14.146005,-9.334999,8.02984
234,1478644594,-19.403084,50.873398,7.905608,-8.85576,4.1184435,3.3628097,-6.8483033,-8.256775,15.876213,-36.311328,16.540142,11.661913,-14.260143,-9.472612,8.294444
235,1478661261,-19.505188,50.616974,7.7895155,-8.812393,4.1177416,3.4193983,-6.985294,-8.152895,17.33237,-36.458201,16.608771,11.718903,-14.376565,-9.608494,8.583317
236,1478677928,-19.609299,50.336815,7.669799,-8.768759,4.1216345,3.4861531,-7.216735,-7.7568383,18.892164,-36.604347,16.677465,11.777006,-14.496844,-9.737775,8.898186
237,1478694595,-19.716171,50.03218,7.5431623,-8.723696,4.128726,3.5614681,-7.498171,-7.1549654,20.554075,-36.749742,16.746277,11.836364,-14.621814,-9.857024,9.240754
238,1478711262,-19.815155,49.71243,7.40092,-8.665669,4.141246,3.6086893,-7.6405687,-7.1642036,21.978458,-36.89417,16.815298,11.896509,-14.749157,-9.976427,9.607062
239,1478727929,-19.90474,49.37747,7.243182,-8.593931,4.1602516,3.6252444,-7.6456547,-7.816891,23.13497,-37.037402,16.884636,11.95693,-14.876585,-10.106709,9.992645
240,1478744596,-19.990402,49.021664,7.071515,-8.513056,4.18386,3.627447,-7.5724983,-8.782498,24.1837,-37.179286,16.954367,12.017387,-15.002793,-10.253084,10.395707
241,1478761263,-20.068909,48.64697,6.883561,-8.419793,4.2130413,3.6051452,-7.3730507,-10.278759,25.028399,-37.319616,17.024584,12.077473,-15.125677,-10.424397,10.812847
242,1478777930,-20.145676,48.246346,6.6865587,-8.321729,4.2481604,3.5816681,-7.1997614,-11.734706,25.87233,-37.458311,17.095387,12.137167,-15.245673,-10.619975,11.244052
243,1478794597,-20.220871,47.818592,6.4803457,-8.21904,4.2893267,3.5580885,-7.057581,-13.124443,26.725069,-37.595295,17.166876,12.196468,-15.363299,-10.838716,11.68947
244,1478811264,-20.288742,47.36843,6.259082,-8.10498,4.337412,3.5137374,-6.8290873,-14.922729,27.398682,-37.730378,17.239166,12.25503,-15.477117,-11.087428,12.146115
245,1478827931,-20.350182,46.89378,6.024001,-7.980939,4.3927126,3.4531817,-6.545605,-17.013378,27.931917,-37.863394,17.312378,12.312583,-15.58621,-11.370984,12.611647
246,1478844598,-20.428612,46.42813,5.7234592,-7.8676167,4.4053297,3.4080057,-6.143441,-19.26244,28.573292,-37.994521,17.3858,12.369383,-15.688601,-11.692025,13.087869
247,1478861265,-20.52536,45.975018,5.351201,-7.7660494,4.3705463,3.3783123,-5.6011667,-21.721954,29.318157,-38.123955,17.458642,12.425688,-15.781954,-12.054058,13.576505
248,1478877932,-20.62967,45.516846,4.9319124,-7.667229,4.312171,3.3518436,-4.968707,-24.383896,30.06995,-38.251742,17.530512,12.481552,-15.864766,-12.460456,14.077671
249,1478894599,-20.747818,45.063126,4.4501266,-7.576695,4.215969,3.3364735,-4.2225394,-27.234167,30.887629,-38.37802,17.600778,12.53716,-15.935142,-12.914359,14.592465
250,1478911266,-20.864433,44.59497,3.9333324,-7.4804416,4.1110897,3.308005,-3.3661962,-30.483805,31.571844,-38.502694,17.669296,12.592293,-15.991245,-13.422422,15.118662
251,1478927933,-20.97853,44.11109,3.3821812,-7.3777056,3.9988794,3.265002,-2.3996556,-34.14663,32.108383,-38.625656,17.735944,12.64671,-16.031239,-13.991532,15.653802
252,1478944600,-21.10321,43.629337,2.7684832,-7.2802773,3.8519478,3.2260492,-1.2974532,-38.116535,32.64322,-38.746994,17.800143,12.700477,-16.052863,-14.626808,16.197856
253,1478961267,-21.235222,43.145947,2.0967083,-7.1852574,3.6757736,3.1858096,-0.056865692,-42.449078,33.13002,-38.866748,17.861406,12.753574,-16.053811,-15.334293,16.750023
254,1478977934,-21.235008,42.590675,1.3718309,-7.044687,3.5823317,3.1351233,1.8327947,-46.171932,34.298748,-38.984159,17.921112,12.805826,-16.023264,-16.103825,17.321669
255,1478994601,-21.090027,41.9591,0.5890274,-6.8552494,3.5786448,3.0751548,4.432796,-49.187546,36.23844,-39.098413,17.980756,12.857079,-15.949384,-16.923617,17.925643
256,1479011268,-20.863403,41.282024,-0.25275803,-6.63757,3.6150255,3.0064418,7.511129,-52.001427,38.572926,-39.209039,18.041006,12.907186,-15.824199,-17.790307,18.568525
257,1479027935,-20.515182,40.5402,-1.1547852,-6.378283,3.7220554,2.926887,11.222345,-54.33955,41.517056,-39.315344,18.10304,12.955967,-15.63716,-18.695966,19.260476
258,1479044602,-20.1287,39.778965,-2.1296291,-6.1080804,3.8272219,2.8463328,15.286793,-56.747826,44.68531,-39.417145,18.166827,13.003406,-15.38238,-19.641763,20.005231
259,1479061269,-19.70691,39.00045,-3.179823,-5.8281355,3.926877,2.7648008,19.70151,-59.26358,48.059048,-39.514281,18.232275,13.049486,-15.054022,-20.629489,20.806215
260,1479077936,-19.171745,38.16502,-4.3019686,-5.511142,4.0841084,2.675592,24.7523,-61.371998,52.027233,-39.606133,18.300343,13.094079,-14.641484,-21.652356,21.673336
261,1479094603,-18.53843,37.28166,-5.500749,-5.162959,4.284383,2.580696,30.3955,-63.182026,56.520924,-39.692182,18.371749,13.137091,-14.134892,-22.70539,22.615351
262,1479111270,-18.015694,36.40536,-6.564862,-4.928238,4.4135647,2.4752462,33.37125,-63.47383,59.525745,-39.774319,18.445308,13.178345,-13.578704,-23.763287,23.607447
263,1479127937,-17.611908,35.53589,-7.474388,-4.817598,4.469162,2.357996,33.39921,-62.041164,60.903366,-39.854612,18.519794,13.217645,-13.02205,-24.797306,24.622503
264,1479144604,-17.236443,34.652603,-8.333428,-4.7664948,4.4961195,2.2325525,31.992828,-59.513096,61.56785,-39.934054,18.594729,13.254854,-12.488836,-25.789191,25.648634
265,1479161271,-16.944046,33.76909,-9.082233,-4.815221,4.4649334,2.0973012,28.230831,-55.49934,60.96568,-40.014308,18.669145,13.289809,-12.018322,-26.71418,26.664729
266,1479177938,-16.590408,32.842297,-9.844127,-4.872683,4.4590664,1.9530803,24.080114,-50.549603,60.37396,-40.095519,18.743463,13.32236,-11.616987,-27.556673,27.670962
267,1479194605,-16.16687,31.869732,-10.626034,-4.9348545,4.482787,1.8000104,19.629684,-44.665012,59.858677,-40.177767,18.818176,13.35236,-11.289826,-28.30109,28.668607
268,1479211272,-15.7921295,30.884075,-11.313086,-5.083171,4.469288,1.636133,13.069939,-37.19338,58.294388,-40.262487,18.892664,13.379629,-11.071994,-28.92098,29.64018
269,1479227939,-15.435463,29.875809,-11.929279,-5.2999983,4.4361973,1.4614766,4.7751746,-28.204582,55.935936,-40.35082,18.966601,13.403987,-10.992408,-29.391056,30.572446
270,1479244606,-15.105667,28.94627,-12.514773,-5.4139414,4.422598,1.3495547,-0.5013075,-21.869598,54.247868,-40.441052,19.040311,13.42648,-11.000763,-29.755549,31.476577
271,1479261273,-14.819077,28.10952,-13.055457,-5.419977,4.4240093,1.3074064,-2.5606887,-18.474567,53.21334,-40.531385,19.114044,13.44827,-11.043441,-30.063458,32.363466
272,1479277940,-14.551567,27.311466,-13.545091,-5.388792,4.4336815,1.3004509,-3.4353662,-16.058264,52.292744,-40.621198,19.187939,13.469944,-11.100697,-30.331096,33.235012
273,1479294607,-14.311028,26.58257,-13.987361,-5.27587,4.460149,1.349783,-1.8695073,-15.756169,51.843803,-40.709129,19.262275,13.49244,-11.131855,-30.593699,34.099075
274,1479311274,-14.123764,25.87291,-14.325188,-5.20371,4.463168,1.4125775,-1.1346178,-14.93125,50.702988,-40.795858,19.336661,13.515983,-11.150765,-30.842553,34.944125
275,1479327941,-13.99099,25.18018,-14.552397,-5.179147,4.4413643,1.4870732,-1.4126151,-13.422249,48.802277,-40.882177,19.410684,13.540768,-11.174309,-31.066257,35.757496
276,1479344608,-13.909012,24.55748,-14.696362,-5.103153,4.421489,1.6137972,0.009224415,-13.53443,47.014473,-40.96723,19.484375,13.567665,-11.174155,-31.291831,36.541071
277,1479361275,-13.88591,23.996353,-14.740522,-5.0017767,4.3946056,1.7848642,2.445714,-14.72503,45.08042,-41.050593,19.557618,13.597413,-11.133393,-31.537248,37.292411
278,1479377942,-13.786255,23.287365,-14.961391,-4.8772287,4.312804,1.9326273,3.5981002,-15.874029,45.065754,-41.13188,19.629498,13.629623,-11.073425,-31.801815,38.043507
279,1479394609,-13.599747,22.418934,-15.385387,-4.717108,4.1735067,2.056923,3.592175,-17.196333,47.27717,-41.210498,19.699056,13.663905,-11.013555,-32.088421,38.83146
280,1479411276,-13.398575,21.486324,-15.867077,-4.537448,3.9924107,2.1857395,3.068049,-18.89015,50.56358,-41.286122,19.765596,13.700334,-10.962421,-32.403257,39.674186
281,1479427943,-13.146599,20.433552,-16.483425,-4.334647,3.755804,2.3025115,1.4864907,-20.75906,55.5494,-41.358366,19.828193,13.738709,-10.937646,-32.749241,40.600009
282,1479444610,-12.924446,19.39807,-17.076141,-4.081216,3.497552,2.4586973,0.8982425,-24.08403,61.264515,-41.426386,19.886486,13.779687,-10.922675,-33.150642,41.621084
283,1479461277,-12.739586,18.388308,-17.633213,-3.776202,3.2176056,2.6579957,1.3923378,-28.95041,67.65614,-41.489323,19.940113,13.823987,-10.899469,-33.633149,42.748686
284,1479477944,-12.5214,17.2874,-18.300892,-3.4282775,2.886221,2.8613663,1.5088391,-34.60351,75.78535,-41.546461,19.988217,13.871676,-10.874322,-34.209874,44.011775
285,1479494611,-12.287872,16.124138,-19.046482,-3.0299087,2.5091844,3.0805838,1.6991639,-41.36491,85.487595,-41.596959,20.030037,13.923019,-10.846003,-34.899289,45.436568
286,1479511278,-11.895172,14.825233,-19.939865,-2.585858,2.1884027,3.2748003,2.1641693,-45.897556,93.742165,-41.640057,20.06651,13.977599,-10.809934,-35.664248,46.998937
287,1479527945,-11.319275,13.367147,-21.01009,-2.0947094,1.9293141,3.4357374,2.776227,-47.833412,100.43973,-41.674969,20.098665,14.034861,-10.763664,-36.461472,48.672932
288,1479544612,-10.6393585,11.802126,-22.20551,-1.5466871,1.6866994,3.5911222,3.7677913,-49.008858,106.943726,-41.700747,20.126777,14.094713,-10.700867,-37.278286,50.455327
289,1479561279,-9.8103485,10.102865,-23.555489,-0.940969,1.4878798,3.7281613,5.167152,-48.48097,112.47658,-41.71643,20.151575,14.156849,-10.614748,-38.086302,52.329937
290,1479577946,-8.897194,8.279642,-25.060375,-0.2743225,1.2643304,3.8612714,6.4982963,-48.04082,119.116745,-41.721002,20.172647,14.221204,-10.506443,-38.886982,54.315216
291,1479594613,-7.90197,6.3315163,-26.723785,0.45686245,1.0121341,3.9920433,7.787748,-47.833584,127.012474,-41.713388,20.189516,14.287738,-10.376647,-39.684208,56.432091
292,1479611280,-6.749527,4.225502,-28.57722,1.2536526,0.78913784,4.101498,9.299042,-46.13613,134.47665,-41.692494,20.202668,14.356096,-10.221663,-40.453144,58.673369
293,1479627947,-5.449501,1.959301,-30.627434,2.1191607,0.58108187,4.192049,10.942099,-43.31333,141.9679,-41.657175,20.212353,14.425963,-10.039295,-41.175033,61.039501
294,1479644614,-4.3440933,-0.25177765,-32.1991,2.6733904,0.50120354,4.257257,12.38558,-38.31309,146.88712,-41.612618,20.220706,14.496917,-9.832869,-41.813585,63.48762
295,1479661281,-3.4530258,-2.3961906,-33.23557,2.879469,0.5690851,4.2925816,13.619209,-30.758137,148.7615,-41.564627,20.230191,14.56846,-9.605882,-42.326221,65.966978
296,1479677948,-2.617134,-4.5820045,-34.065285,2.919383,0.72293186,4.301414,14.737108,-21.341436,149.1196,-41.515971,20.24224,14.64015,-9.360264,-42.681912,68.452305
297,1479694615,-1.9277649,-6.753399,-34.50047,2.6842995,0.9986844,4.279818,15.645945,-9.640581,147.14055,-41.471233,20.258885,14.71148,-9.099498,-42.842588,70.904647
298,1479711282,-1.1623154,-9.049747,-34.94693,2.395937,1.3473954,4.2253675,16.623674,4.2251654,143.89229,-41.431301,20.281342,14.781903,-8.822437,-42.772169,73.302852
299,1479727949,-0.3061905,-11.48336,-35.42894,2.0644417,1.7680788,4.13631,17.67163,20.307257,139.42401,-41.396894,20.31081,14.850842,-8.52791,-42.433715,75.626586
300,1479744616,0.4510498,-13.938515,-35.578255,1.4807568,2.3195724,4.0089192,18.564774,39.11626,132.42686,-41.372215,20.34947,14.917657,-8.218497,-41.781777,77.8337
301,1479761283,1.1564941,-16.446857,-35.4761,0.68638897,2.9952831,3.8409486,19.354437,60.72,123.05617,-41.360775,20.399391,14.981673,-7.895923,-40.769777,79.884636
302,1479777950,1.6635513,-18.591003,-35.436924,0.24795294,3.4091043,3.5380378,19.567913,72.443054,113.592186,-41.356642,20.456209,15.04064,-7.569791,-39.562393,81.777839
303,1479794617,1.9314194,-20.314125,-35.43716,0.189219,3.5340042,3.0880663,19.122707,73.16511,103.99309,-41.353488,20.515109,15.092108,-7.251079,-38.342975,83.511057
304,1479811284,2.0584564,-21.83348,-35.37528,0.26521873,3.5510082,2.5317287,18.266945,68.969345,93.1956,-41.349068,20.574292,15.134303,-6.94663,-37.193486,85.064317
305,1479827951,1.9925079,-23.023281,-35.319386,0.6252718,3.3546362,1.8397076,16.848774,56.28763,81.713715,-41.338647,20.630203,15.164965,-6.665817,-36.255359,86.426212
306,1479844618,1.7668915,-24.0951,-34.983707,0.88049364,3.1876926,1.0621254,15.066042,42.66174,67.77722,-41.323972,20.683331,15.182667,-6.414716,-35.54433,87.555832
307,1479861285,1.381012,-25.057323,-34.34808,1.0083385,3.0645924,0.1982882,12.918383,28.48917,51.19662,-41.307166,20.734408,15.185972,-6.19941,-35.06951,88.409109
308,1479877952,0.76608276,-25.687588,-33.60509,1.3308673,2.7719479,-0.8052094,10.159601,6.821499,33.228226,-41.284985,20.780607,15.172552,-6.030083,-34.955818,88.962913
309,1479894619,-0.0783844,-26.021397,-32.68597,1.7660685,2.3593245,-1.9415374,6.812697,-20.876684,13.419948,-41.255551,20.819929,15.140193,-5.916538,-35.303763,89.186579
310,1479911286,-0.2355423,-26.294952,-32.50741,2.0638447,2.0077658,-2.611126,3.409924,-38.901863,-0.5815067,-41.221154,20.853392,15.096674,-5.859706,-35.952127,89.176887
311,1479927953,0.36938477,-26.490772,-33.17768,2.2410526,1.7049346,-2.76339,-0.04994726,-46.734722,-7.902916,-41.183803,20.881808,15.050617,-5.860538,-36.731039,89.045172
312,1479944620,1.2975616,-26.509296,-34.213192,2.36209,1.3954587,-2.6784096,-3.8241003,-50.946575,-12.492808,-41.144435,20.905066,15.005977,-5.924273,-37.580149,88.836959
313,1479961287,2.8038101,-26.398243,-35.8801,2.369216,1.1197062,-2.18753,-7.7892275,-47.441704,-12.1336775,-41.104948,20.923728,14.969518,-6.054093,-38.370844,88.634731
314,1479977954,4.332901,-25.947906,-37.691658,2.491909,0.71418,-1.6542687,-12.346666,-47.274864,-10.993384,-41.063416,20.935631,14.941947,-6.259871,-39.158758,88.451508
315,1479994621,5.853264,-25.135132,-39.618782,2.7397127,0.168962,-1.0961537,-17.53966,-51.068916,-9.304541,-41.017754,20.938447,14.923678,-6.552199,-40.009907,88.296432
316,1480011288,7.867325,-24.095142,-42.14477,2.9517288,-0.4035821,-0.18085837,-23.076368,-49.81281,-2.9820306,-40.968559,20.931721,14.920664,-6.936805,-40.84012,88.246731
317,1480027955,10.264641,-22.771965,-45.17838,3.1786032,-1.0415874,1.0215325,-29.058418,-45.84931,7.1939025,-40.915582,20.914361,14.93769,-7.421112,-41.604275,88.366629
318,1480044622,11.826675,-21.886974,-47.281136,3.3206367,-1.4507713,1.7359543,-32.813526,-43.285065,12.338818,-40.860238,20.890181,14.966623,-7.968004,-42.325693,88.572276
319,1480061289,12.504585,-21.519375,-48.387268,3.3517199,-1.591505,1.9351462,-34.044647,-41.377842,12.229367,-40.804376,20.863656,14.998875,-8.535415,-43.015324,88.776099
320,1480077956,12.806679,-21.282894,-49.12752,3.3553915,-1.6308882,1.9448528,-34.08377,-39.730526,10.658662,-40.748453,20.836475,15.031289,-9.103478,-43.677499,88.953743
321,1480094623,12.410248,-21.382874,-49.12128,3.2997007,-1.4826586,1.5622444,-32.153065,-39.139565,5.359683,-40.693458,20.811764,15.057326,-9.639362,-44.329825,89.043071
322,1480111290,12.158127,-21.423557,-49.339806,3.202159,-1.2910173,1.330712,-29.731142,-34.856674,2.6729493,-40.640089,20.790247,15.079505,-10.134881,-44.91077,89.08762
323,1480127957,12.09346,-21.376514,-49.840046,3.068596,-1.0666976,1.2807006,-26.886848,-26.701723,3.01273,-40.588946,20.772469,15.10085,-10.582995,-45.355799,89.137832
324,1480144624,11.516655,-21.621456,-49.81034,2.8612509,-0.6600008,0.9676156,-22.173735,-17.607695,1.321567,-40.541258,20.761469,15.116977,-10.952557,-45.649261,89.159858
325,1480161291,10.602058,-22.079594,-49.454784,2.5830069,-0.09815693,0.5062773,-15.861504,-6.477374,-1.0091141,-40.498208,20.759833,15.125415,-11.216915,-45.757217,89.143039
326,1480177958,10.103561,-22.256054,-49.406082,2.422655,0.20488358,0.2534461,-11.989638,0.78160405,-2.1163247,-40.45783,20.763248,15.129639,-11.416742,-45.74419,89.107767
327,1480194625,10.003769,-22.160236,-49.62051,2.390935,0.23251343,0.18791723,-10.724848,3.371828,-2.415479,-40.417981,20.767123,15.132771,-11.595489,-45.687993,89.067509
328,1480211292,10.058975,-21.98164,-49.931713,2.3986874,0.16618538,0.21711707,-10.296341,4.9273744,-1.8235933,-40.378003,20.769893,15.13639,-11.767095,-45.60587,89.037116
329,1480227959,10.45385,-21.602581,-50.484653,2.4959927,-0.10235739,0.42486024,-11.763359,3.759503,0.017961854,-40.336403,20.768187,15.143471,-11.963151,-45.543212,89.037415
330,1480244626,10.563805,-21.415623,-50.69843,2.563468,-0.29095745,0.4881227,-12.357653,2.6166534,0.7761534,-40.293679,20.763338,15.151606,-12.169112,-45.499601,89.050351
331,1480261293,10.3606415,-21.447681,-50.54721,2.5928516,-0.38213825,0.3944931,-11.908947,1.802118,0.4195641,-40.250465,20.756969,15.158181,-12.367594,-45.469566,89.057344
332,1480277960,10.309387,-21.409466,-50.436256,2.686533,-0.6088362,0.37355328,-12.701337,-1.5328981,0.38157076,-40.205689,20.746822,15.164407,-12.579283,-45.495114,89.063704
333,1480294627,10.274971,-21.391338,-50.236126,2.819128,-0.9108281,0.3550279,-14.14439,-6.8147454,0.15332662,-40.158704,20.731642,15.170324,-12.815023,-45.608693,89.066259
334,1480311294,10.147163,-21.34534,-50.05687,2.890993,-1.0612531,0.33751702,-14.263947,-9.1314125,-0.3317354,-40.110521,20.713954,15.175949,-13.052755,-45.760883,89.06073
335,1480327961,9.96685,-21.238106,-49.948555,2.9057589,-1.0670018,0.34467793,-13.153456,-8.435928,-0.9697248,-40.062092,20.696171,15.181694,-13.271979,-45.901482,89.044568
336,1480344628,9.691589,-21.159485,-49.764275,2.8938904,-0.99488735,0.32695436,-11.351345,-6.713447,-2.1143045,-40.01386,20.67959,15.187143,-13.461168,-46.013373,89.00933
337,1480361295,9.303146,-21.090382,-49.54239,2.8314533,-0.7892575,0.28911138,-8.384959,-2.7361498,-3.7847204,-39.966669,20.666436,15.191962,-13.600917,-46.058975,88.946251
338,1480377962,8.983994,-20.993134,-49.317467,2.8025522,-0.6411929,0.29010606,-5.9854774,-0.08596027,-5.584468,-39.91996,20.655749,15.196797,-13.700675,-46.060408,88.853177
339,1480394629,8.732468,-20.876637,-49.075993,2.810914,-0.5576954,0.3259008,-4.2169747,1.0135509,-7.578217,-39.873111,20.646454,15.202229,-13.770958,-46.043515,88.726873
340,1480411296,8.444229,-20.74313,-48.834316,2.7948942,-0.3966732,0.37183523,-1.8244572,3.3665166,-10.003478,-39.826529,20.639843,15.208426,-13.801366,-45.987406,88.560148
341,1480427963,8.157928,-20.586452,-48.59787,2.7727814,-0.1985774,0.4398389,0.82044697,6.184968,-12.811155,-39.780316,20.636533,15.215757,-13.787692,-45.884323,88.346629
342,1480444630,7.868881,-20.450035,-48.28286,2.778409,-0.07729626,0.47796297,2.5508618,8.054558,-14.561485,-39.734009,20.635245,15.223723,-13.745178,-45.75008,88.103938
343,1480461297,7.5692825,-20.335865,-47.887703,2.80855,-0.028058052,0.48055387,3.3840985,9.157238,-15.147923,-39.6872,20.634777,15.231732,-13.688776,-45.597459,87.851473
344,1480477964,7.2905045,-20.218632,-47.45758,2.8602924,-0.025105476,0.48127866,3.6060853,9.607609,-15.232868,-39.639528,20.634359,15.239753,-13.628675,-45.437332,87.597592
345,1480494631,7.0318146,-20.10878,-46.972958,2.9418364,-0.09690094,0.46634316,2.9114456,9.087936,-14.417285,-39.590497,20.632744,15.247525,-13.580151,-45.285866,87.357304
346,1480511298,6.7680817,-19.985203,-46.48295,3.01818,-0.14035988,0.45790863,2.2942371,9.105854,-13.6465225,-39.540194,20.630405,15.255157,-13.541914,-45.134102,87.129862
347,1480527965,6.5046997,-19.844643,-45.994064,3.0894327,-0.15365553,0.45958138,1.76368,9.675871,-12.971355,-39.488703,20.627844,15.262817,-13.512519,-44.972837,86.913673
348,1480544632,6.2555466,-19.705715,-45.467155,3.1802912,-0.21290779,0.44894648,0.550365,9.781142,-11.568073,-39.435698,20.624296,15.270299,-13.503346,-44.809818,86.720872
349,1480561299,6.018051,-19.563019,-44.914806,3.2839127,-0.29727936,0.43134022,-1.1546273,9.7339115,-9.627882,-39.380966,20.619341,15.277488,-13.52259,-44.647586,86.560407
350,1480577966,5.644203,-19.489552,-44.286537,3.319334,-0.34000158,0.43249226,-2.026349,10.889128,-8.255314,-39.325644,20.613674,15.284696,-13.556362,-44.466101,86.422818
351,1480594633,5.121414,-19.494816,-43.573654,3.2812586,-0.3436041,0.45196772,-2.0350184,13.279543,-7.444203,-39.270956,20.607947,15.292229,-13.590279,-44.244775,86.298748
352,1480611300,4.5189133,-19.540588,-42.809788,3.2032099,-0.32588148,0.48135185,-1.6883616,16.487793,-6.790134,-39.217569,20.602516,15.300252,-13.618418,-43.969978,86.185579
353,1480627967,3.7949753,-19.64859,-41.979855,3.0625715,-0.27040768,0.52699876,-0.64090395,20.884344,-6.5668397,-39.166526,20.598009,15.309035,-13.6291,-43.621906,86.076132
354,1480644634,3.0425873,-19.780502,-41.10594,2.9132032,-0.23733902,0.5693035,0.11181545,25.410868,-5.90792,-39.117973,20.594053,15.318523,-13.627236,-43.198392,85.977667
355,1480661301,2.2663498,-19.934479,-40.190758,2.756915,-0.22861338,0.60749006,0.5231929,30.054047,-4.7664967,-39.072024,20.590243,15.328648,-13.618516,-42.697491,85.898225
356,1480677968,1.3826675,-20.149609,-39.20987,2.5464697,-0.20035028,0.6567042,1.3867126,35.67846,-3.8016856,-39.029583,20.586904,15.339593,-13.595404,-42.10285,85.834864
357,1480694635,0.40972137,-20.419098,-38.167816,2.2921133,-0.16527128,0.71285176,2.4938774,42.085423,-2.8239582,-38.991381,20.584149,15.351474,-13.553839,-41.401426,85.787798
358,1480711302,-0.82821655,-20.669136,-36.78375,2.0899143,-0.14478922,0.8096831,2.72191,48.41969,-1.1757696,-38.956549,20.581736,15.364969,-13.508474,-40.594431,85.768202
359,1480727969,-2.3621063,-20.899132,-35.024612,1.9424267,-0.13613653,0.9525542,2.0569434,54.72201,1.1357768,-38.924175,20.579467,15.380845,-13.474192,-39.682397,85.787132
360,1480744636,-4.09993,-21.140995,-33.023926,1.8101444,-0.13800621,1.1230013,0.88875055,61.284527,3.9356518,-38.894006,20.577167,15.399562,-13.459379,-38.660988,85.852726
361,1480761303,-6.0983734,-21.376637,-30.69794,1.7178974,-0.15528154,1.3314656,-1.0752525,67.911316,7.3951015,-38.865374,20.574579,15.421753,-13.4773,-37.529133,85.975978
362,1480777970,-8.281631,-21.660927,-28.2006,1.5962219,-0.16396475,1.5627652,-2.9772487,75.364555,10.972226,-38.83877,20.571846,15.447799,-13.526921,-36.273057,86.158848
363,1480794637,-10.649841,-21.998116,-25.535936,1.4411588,-0.16387653,1.8163556,-4.787027,83.69485,14.65945,-38.814751,20.569115,15.478072,-13.606705,-34.878143,86.403172
364,1480811304,-13.295898,-22.346329,-22.549099,1.3084135,-0.17110014,2.1096444,-7.1869826,92.371185,18.879404,-38.792944,20.566263,15.513233,-13.726488,-33.338623,86.717829
365,1480827971,-16.210777,-22.718235,-19.265818,1.1831031,-0.18067503,2.440331,-10.002764,101.57272,23.527012,-38.773226,20.563252,15.553905,-13.893201,-31.645744,87.109946
366,1480844638,-18.815674,-23.291103,-15.977292,1.1575246,-0.2079277,2.6606221,-6.9625053,105.79038,29.15228,-38.753934,20.559787,15.598249,-14.009243,-29.882571,87.595817
367,1480861305,-21.071953,-24.078838,-12.684881,1.2481446,-0.25611353,2.758855,2.4886236,104.41251,35.870193,-38.733132,20.555518,15.64423,-13.967766,-28.142362,88.193654
368,1480877972,-23.252892,-25.008,-9.260828,1.401938,-0.31464005,2.8038278,15.527763,100.153244,43.36181,-38.709766,20.550274,15.69096,-13.70897,-26.473141,88.916351
369,1480894639,-25.201683,-26.129284,-5.775692,1.6480646,-0.3883481,2.7543736,33.94954,91.40476,51.809437,-38.682298,20.543802,15.736866,-13.143144,-24.949728,89.779842
370,1480911306,-27.285843,-27.331905,-2.0102367,1.9482851,-0.4729705,2.7011938,53.971695,81.20661,61.027237,-38.649827,20.535919,15.781886,-12.243616,-23.596284,90.796963
371,1480927973,-29.528694,-28.613392,2.0536633,2.3011637,-0.56800556,2.6489239,75.4615,69.68849,71.01581,-38.611474,20.526452,15.826035,-10.985924,-22.434809,91.98056
372,1480944640,-31.610832,-30.075657,6.2507772,2.7534542,-0.6800866,2.515714,101.940254,53.863373,82.046585,-38.565583,20.515117,15.867964,-9.28692,-21.537086,93.348003
373,1480961307,-33.608658,-31.699017,10.632731,3.299759,-0.8086362,2.3193517,132.71544,34.277073,94.10406,-38.510587,20.50164,15.90662,-7.074996,-20.965801,94.916404
374,1480977974,-34.208366,-33.01228,13.252913,3.6407251,-0.90825367,2.2812212,149.47083,18.536558,99.57217,-38.449908,20.486502,15.94464,-4.583816,-20.656858,96.57594
375,1480994641,-33.22972,-33.984226,13.894837,3.7555227,-0.9757762,2.4114902,150.90855,6.90354,97.734344,-38.387316,20.470239,15.984832,-2.068673,-20.541799,98.204846
376,1481011308,-31.33339,-34.826496,13.507428,3.7842064,-1.0326009,2.6163383,145.26973,-3.9502835,92.17094,-38.324246,20.453029,16.028438,0.352489,-20.607637,99.741028
377,1481027975,-28.11927,-35.409863,11.520772,3.6450233,-1.0663543,2.954876,127.48854,-12.057589,80.70294,-38.263496,20.435256,16.077686,2.477298,-20.808597,101.086077
378,1481044642,-24.251472,-36.037304,9.013129,3.5261526,-1.10531,3.2762885,109.16177,-22.728071,67.79933,-38.204727,20.416834,16.132291,4.296661,-21.187398,102.216066
379,1481061309,-19.747368,-36.724277,6.026885,3.438695,-1.1511817,3.5728934,90.84781,-36.308567,53.649506,-38.147415,20.397648,16.191839,5.810791,-21.792541,103.110224
380,1481077976,-13.899414,-37.205746,1.5010843,3.2172575,-1.1790614,3.9713035,62.265095,-48.4927,34.049156,-38.093794,20.377997,16.258027,6.848543,-22.600753,103.67771
381,1481094643,-6.812744,-37.542362,-4.3728247,2.900218,-1.1947298,4.44055,25.696394,-60.43513,9.827906,-38.045457,20.358085,16.332036,7.276816,-23.608005,103.841508
382,1481111310,-1.6632843,-37.694363,-8.557629,2.7099848,-1.2881286,4.7087307,2.267613,-68.75066,-6.8098154,-38.000291,20.336616,16.410515,7.31461,-24.753849,103.728011
383,1481127977,1.3599167,-37.61854,-10.92741,2.6454163,-1.4648995,4.7653875,-7.4055023,-72.55638,-15.306214,-37.956201,20.312201,16.489938,7.191185,-25.963122,103.472907
384,1481144644,3.7175598,-37.368305,-12.824517,2.625165,-1.6864183,4.71864,-11.933791,-74.211235,-20.974657,-37.912448,20.284094,16.568582,6.992288,-27.199976,103.123329
385,1481161311,4.555748,-36.91615,-13.453846,2.7044096,-1.9774415,4.4958944,-5.816604,-72.55722,-20.57955,-37.867375,20.251137,16.643514,6.895345,-28.409263,102.780337
386,1481177978,5.938835,-36.208385,-14.896725,2.709405,-2.2795389,4.288059,-4.166674,-68.43349,-22.416628,-37.822218,20.213145,16.714982,6.8259,-29.549821,102.406727
387,1481194645,7.993622,-35.23679,-17.28497,2.6308498,-2.5902333,4.103253,-7.7914186,-61.887604,-26.960396,-37.778371,20.169974,16.78337,6.696043,-30.581281,101.957387
388,1481211312,8.9515,-33.994534,-18.904167,2.6012297,-2.9606922,3.782706,-4.449544,-51.373325,-27.28618,-37.735017,20.120629,16.846415,6.621884,-31.437503,101.502617
389,1481227979,9.24295,-32.459858,-20.200766,2.582633,-3.379505,3.3649623,2.6688175,-36.940918,-25.13191,-37.691973,20.064304,16.902498,6.666364,-32.053185,101.083752
390,1481244646,10.243912,-31.350536,-21.747683,2.547347,-3.6553683,3.1224468,5.670547,-28.762087,-23.631851,-37.649517,20.003381,16.954539,6.760873,-32.532553,100.689888
391,1481261313,11.85083,-30.72575,-23.383282,2.507659,-3.7763348,3.0609841,5.3231797,-27.480606,-22.17764,-37.607723,19.940442,17.005555,6.849593,-32.990563,100.320261
392,1481277980,13.68689,-30.222752,-25.132702,2.4501696,-3.8255296,3.0764136,3.246615,-28.191315,-20.40223,-37.566887,19.876683,17.056829,6.903703,-33.460418,99.980224
393,1481294647,16.060318,-30.038471,-27.087715,2.370986,-3.7504644,3.2395883,-2.3172848,-33.61434,-18.880709,-37.527371,19.814175,17.110822,6.865082,-34.020657,99.665546
394,1481311314,17.701775,-29.74332,-28.473076,2.3194475,-3.6758165,3.3492064,-3.5727592,-37.308228,-13.94326,-37.488714,19.752911,17.166642,6.805536,-34.642461,99.433158
395,1481327981,18.545815,-29.306293,-29.26094,2.2952156,-3.607269,3.3959844,-0.23003197,-38.813877,-5.40911,-37.45046,19.69279,17.223242,6.801702,-35.289359,99.343006
396,1481344648,19.464943,-29.11282,-29.891632,2.271203,-3.436143,3.541257,2.4334917,-43.674976,4.5159883,-37.412607,19.635521,17.282263,6.84226,-36.017275,99.418272
397,1481361315,20.169472,-29.073345,-30.18118,2.2581024,-3.1870797,3.7430818,6.1475396,-50.51709,16.711887,-37.374972,19.582403,17.344648,6.944719,-36.859226,99.696803
398,1481377982,21.16047,-28.902348,-31.045437,2.2904034,-3.0222456,3.783437,7.9097905,-52.84454,24.89585,-37.336799,19.532032,17.407705,7.076549,-37.739968,100.111734
399,1481394649,22.566185,-28.626156,-32.59608,2.3701315,-2.9421372,3.6608253,6.9295096,-50.740017,28.312061,-37.297297,19.482996,17.468719,7.192041,-38.585635,100.583602
400,1481411316,23.932503,-28.32442,-34.251907,2.4894934,-2.8848572,3.4502482,5.8953023,-46.365147,30.624342,-37.255805,19.434915,17.526223,7.290296,-39.358387,101.094008
401,1481427983,25.413124,-27.936085,-36.265434,2.6590128,-2.8909764,3.0954363,3.869635,-38.102783,30.055424,-37.211488,19.386732,17.577814,7.35479,-39.993433,101.594932
402,1481444650,26.919579,-27.729465,-38.197533,2.8521175,-2.8358388,2.7652757,1.292201,-31.128849,29.780888,-37.163953,19.339468,17.623902,7.376327,-40.512247,102.09128
403,1481461317,28.408852,-27.720951,-39.989014,3.0699759,-2.7123978,2.4660444,-1.6080348,-25.664434,30.10776,-37.112787,19.294261,17.665003,7.349526,-40.939988,102.593076
404,1481477984,30.057808,-27.731594,-42.07228,3.336299,-2.6165779,2.0649006,-5.875771,-17.765524,27.898636,-37.057182,19.250651,17.699418,7.251596,-41.23608,103.058053
405,1481494651,31.842323,-27.82481,-44.346413,3.6472187,-2.5211048,1.5965751,-11.407642,-8.530921,23.815434,-36.996395,19.208633,17.726028,7.061469,-41.378262,103.454977
406,1481511318,33.148003,-27.99007,-45.9248,3.7611895,-2.433294,1.1916206,-13.980757,-1.3174982,21.967712,-36.933709,19.168078,17.745888,6.828456,-41.40022,103.821106
407,1481527985,33.945488,-28.212986,-46.777283,3.6578455,-2.3649478,0.8462789,-13.384241,3.9995842,22.28933,-36.872745,19.128662,17.759993,6.605385,-41.33356,104.192595
408,1481544652,34.5113,-28.548748,-47.25287,3.4492311,-2.293702,0.52164936,-11.577927,8.248974,23.231016,-36.815258,19.090434,17.768687,6.41242,-41.196077,104.579779
409,1481561319,34.683586,-28.99477,-47.11673,3.067276,-2.2247858,0.24983239,-7.453006,10.594224,25.779728,-36.764137,19.053354,17.772851,6.288203,-41.019507,105.009441
410,1481577986,34.851814,-29.520336,-46.977985,2.659422,-2.1781378,-0.081002474,-3.6850412,14.002983,26.73185,-36.719813,19.017052,17.771501,6.226786,-40.786124,105.454972
411,1481594653,35.040077,-30.13564,-46.861988,2.232543,-2.1530585,-0.47515154,-0.45753622,18.542036,25.882544,-36.682604,18.981168,17.763582,6.21916,-40.47709,105.886348
412,1481611320,34.915123,-30.857182,-46.259693,1.6520414,-2.1452537,-0.8499098,4.5085053,22.010317,25.624577,-36.65507,18.945414,17.749417,6.294302,-40.110251,106.313424
413,1481627987,34.55822,-31.683735,-45.29335,0.9462428,-2.15972,-1.2291327,10.642885,25.013998,25.233438,-36.639299,18.909419,17.728931,6.471683,-39.693351,106.733981
414,1481644654,34.642464,-32.40855,-44.865864,0.4914484,-2.124549,-1.5728111,16.323147,27.495243,24.676048,-36.631108,18.87401,17.702717,6.743735,-39.235097,107.145248
415,1481661321,35.191032,-33.014744,-44.998165,0.30507565,-2.0339515,-1.8674121,21.688437,29.178988,24.1981,-36.626023,18.840111,17.671593,7.105209,-38.748781,107.54855
416,1481677988,35.93975,-33.60178,-45.340897,0.22592545,-1.9265001,-2.1480246,27.132675,30.486822,23.286695,-36.622258,18.808003,17.635793,7.55742,-38.240667,107.936662
417,1481694655,37.067406,-34.112156,-46.129124,0.35428143,-1.7829065,-2.4004073,32.29406,31.316908,21.98655,-36.616353,18.778288,17.595786,8.095654,-37.718719,108.303104
418,1481711322,38.098244,-34.677364,-46.699512,0.43419743,-1.6444256,-2.6256728,38.701725,31.078043,20.878004,-36.609116,18.750881,17.552025,8.740683,-37.200752,108.651071
419,1481727989,39.012123,-35.305294,-47.02073,0.4520688,-1.5148661,-2.8250408,46.4237,29.756985,19.913612,-36.601582,18.725633,17.504941,9.514411,-36.704802,108.982965
420,1481744656,40.20243,-35.879734,-47.6257,0.6224885,-1.3572865,-2.9841528,54.41408,27.521753,18.847012,-36.591207,18.703012,17.455205,10.421312,-36.246106,109.297082
421,1481761323,41.572807,-36.4275,-48.376007,0.8925457,-1.1807508,-3.101884,63.016644,24.211428,17.790756,-36.576331,18.683333,17.403507,11.471589,-35.842582,109.593595
422,1481777990,42.455772,-36.807903,-48.515278,1.1082182,-1.0510058,-3.1048603,67.85498,20.450953,14.60343,-36.557861,18.665816,17.351759,12.602505,-35.501733,109.836985
423,1481794657,42.83715,-36.989452,-48.034878,1.2830925,-0.9697919,-2.9809113,68.38418,16.259434,9.057464,-36.536476,18.649653,17.302077,13.742241,-35.230742,109.987943
424,1481811324,42.970604,-37.053654,-47.19949,1.4564209,-0.91224,-2.7612634,66.90762,11.182433,2.2386396,-36.512202,18.634449,17.256056,14.857368,-35.044368,110.025254
425,1481827991,42.68235,-36.952694,-45.812725,1.5943203,-0.89565516,-2.4215403,62.13882,5.3521185,-6.4670696,-36.48563,18.619521,17.215697,15.893015,-34.955166,109.91747
426,1481844658,42.466515,-36.734394,-44.45281,1.8442411,-0.8731346,-1.9976621,56.335583,-1.6028087,-15.917877,-36.454893,18.604969,17.182403,16.831941,-34.981879,109.652172
427,1481861325,42.345406,-36.397808,-43.14115,2.2136784,-0.8428173,-1.4876304,49.618168,-9.771885,-26.052107,-36.417998,18.590922,17.157609,17.65891,-35.144744,109.21797
428,1481877992,41.922874,-35.871662,-41.419136,2.6031322,-0.84319496,-0.84897184,39.686073,-18.891117,-37.993584,-36.374612,18.576869,17.143459,18.320345,-35.459596,108.584744
429,1481894659,41.301598,-35.159298,-39.405064,3.0464735,-0.8647976,-0.085137844,26.945763,-29.082548,-51.530514,-36.323837,18.562456,17.14204,18.769441,-35.944305,107.725902
430,1481911326,40.4963,-34.416378,-37.520096,3.3746529,-0.9266567,0.5212803,18.399998,-35.698174,-61.40818,-36.267593,18.547012,17.150728,19.076108,-36.539275,106.702432
431,1481927993,39.4569,-33.640766,-35.747272,3.5619955,-1.0360513,0.9512415,14.361095,-38.25918,-67.27758,-36.208226,18.529744,17.166582,19.31546,-37.176928,105.581139
432,1481944660,38.242058,-32.75336,-33.964252,3.7135649,-1.1783452,1.3392323,11.718853,-39.05687,-71.49956,-36.146333,18.510105,17.188903,19.510774,-37.827876,104.38948
433,1481961327,36.838158,-31.788677,-32.272446,3.7796316,-1.3610902,1.6087438,12.31588,-36.754753,-72.63314,-36.083339,18.48742,17.215715,19.716039,-38.440455,103.178928
434,1481977994,35.127876,-30.627453,-30.301746,3.8347425,-1.5844216,1.9396535,11.414543,-34.01382,-74.03347,-36.019427,18.461013,17.248043,19.906281,-39.007352,101.945037
435,1481994661,33.105553,-29.254803,-28.036762,3.8865223,-1.8488872,2.3437204,8.719313,-30.96693,-75.87077,-35.954652,18.430198,17.287105,20.051603,-39.523468,100.680524
436,1482011328,30.809242,-27.754276,-25.745771,3.853384,-2.162338,2.6649625,8.16708,-25.078806,-75.200195,-35.890429,18.394159,17.331521,20.187721,-39.941448,99.427187
437,1482027995,28.206078,-26.09409,-23.348377,3.7499208,-2.5262802,2.9410098,8.749256,-16.84983,-72.69133,-35.82793,18.352054,17.380538,20.333542,-40.222279,98.215665
438,1482044662,26.080452,-24.814938,-21.181152,3.683918,-2.7912438,3.1448085,8.401888,-10.353969,-70.301216,-35.766531,18.305533,17.432951,20.473573,-40.394845,97.043978
439,1482061329,24.504707,-23.977108,-19.307495,3.6522388,-2.944932,3.251787,7.4289346,-5.5903153,-67.79428,-35.70566,18.256451,17.487147,20.597389,-40.488017,95.914073
440,1482077996,23.079094,-23.300598,-17.513216,3.6111116,-3.0601287,3.2977898,6.142692,-0.8940573,-64.63759,-35.645475,18.205449,17.54211,20.699767,-40.502918,94.83678
441,1482094663,22.022408,-22.9413,-15.903217,3.5851698,-3.0954194,3.2666285,4.1228404,2.7399602,-61.22211,-35.585722,18.153859,17.596554,20.768481,-40.457252,93.816411
442,1482111330,20.88282,-22.601322,-14.353174,3.4890642,-3.1408477,3.1314528,3.5905042,8.42249,-55.57579,-35.527571,18.101512,17.648745,20.828323,-40.316877,92.890148
443,1482127997,19.629784,-22.26308,-12.852902,3.315628,-3.2019284,2.8891988,4.6362386,16.373747,-47.558155,-35.472311,18.048147,17.696898,20.905594,-40.043981,92.097512
444,1482144664,18.681328,-22.215504,-11.561889,3.1261091,-3.1972797,2.5344,5.843311,24.239414,-38.417923,-35.420209,17.994859,17.739138,21.002983,-39.639991,91.457213
445,1482161331,17.946281,-22.401844,-10.460665,2.8998976,-3.1450446,2.0564642,7.7217574,32.730293,-27.667877,-35.371877,17.942442,17.773412,21.131679,-39.094486,90.996082
446,1482177998,17.095436,-22.519981,-9.283793,2.7435217,-3.0960283,1.6969583,8.445118,38.50732,-18.537859,-35.326152,17.890842,17.801695,21.272431,-38.452697,90.687118
447,1482194665,16.15886,-22.586754,-8.037155,2.6730556,-3.0432155,1.4730303,7.7227206,40.981388,-11.426535,-35.281601,17.840122,17.826246,21.401143,-37.769674,90.496676
448,1482211332,15.239426,-22.715965,-6.843107,2.62247,-2.9731479,1.2583544,6.807773,42.23418,-4.4178543,-35.237893,17.79057,17.847219,21.514606,-37.065771,90.423045
449,1482227999,14.268257,-22.841503,-5.642185,2.6230946,-2.8955367,1.117037,5.1741996,41.23928,1.5737101,-35.194175,17.742311,17.865836,21.600843,-36.37845,90.449274
450,1482244666,13.552444,-23.223675,-4.6400228,2.6261005,-2.7581,0.9013169,3.5544696,39.36562,8.178056,-35.150407,17.696343,17.880858,21.660084,-35.722356,90.585575
451,1482261333,13.114586,-23.884281,-3.8584938,2.6265345,-2.5568948,0.597872,2.0623832,36.726,15.560964,-35.106631,17.653728,17.890823,21.694457,-35.110256,90.844924
452,1482278000,12.75267,-24.645416,-3.1519623,2.676673,-2.3242278,0.33432436,-0.12257242,31.692526,22.112516,-35.06202,17.614991,17.896395,21.692414,-34.582047,91.213466
453,1482294667,12.541847,-25.57122,-2.5729074,2.7668037,-2.0469456,0.077677965,-2.838521,24.499067,28.177053,-35.015907,17.580875,17.89769,21.645105,-34.173729,91.683084
454,1482311334,12.410751,-26.35564,-2.2549973,2.802888,-1.83249,-0.12594032,-5.04242,19.47927,33.546757,-34.969192,17.550334,17.895591,21.561065,-33.849074,92.242197
455,1482328001,12.339256,-26.9548,-2.202042,2.7841587,-1.693305,-0.25538516,-6.7596946,16.760765,37.952297,-34.922789,17.522112,17.891335,21.448403,-33.569728,92.874735
456,1482344668,12.422218,-27.564014,-2.3950362,2.7499075,-1.5679748,-0.35440636,-8.387238,14.377159,41.68834,-34.876957,17.495979,17.885428,21.308616,-33.330109,93.569541
457,1482361335,12.641335,-28.095387,-2.874136,2.6768932,-1.4868326,-0.4040146,-9.680136,13.426214,44.589104,-34.832342,17.471198,17.878694,21.14728,-33.106339,94.312693
458,1482378002,13.00029,-28.691593,-3.5388622,2.6338682,-1.3935792,-0.3994341,-11.442003,10.902632,46.343628,-34.788444,17.447972,17.872037,20.95658,-32.924628,95.085087
459,1482394669,13.514679,-29.370007,-4.396614,2.6256514,-1.283051,-0.3406527,-13.728464,6.576998,46.895687,-34.744683,17.426588,17.866359,20.727772,-32.815011,95.866682
460,1482411336,14.171539,-29.982944,-5.5381823,2.598981,-1.2098484,-0.21044397,-15.945156,2.853345,46.192657,-34.701367,17.406424,17.862852,20.462019,-32.767455,96.63656
461,1482428003,14.978577,-30.561123,-6.9507723,2.5693579,-1.1622381,-0.0048151016,-18.276958,-0.9449172,44.102116,-34.658544,17.387053,17.862772,20.157403,-32.783204,97.371595
462,1482444670,15.821114,-31.112408,-8.243147,2.54356,-1.0921364,0.1267705,-19.647139,-4.3421955,42.44785,-34.616151,17.368851,17.864885,19.829951,-32.855574,98.079059
463,1482461337,16.688843,-31.614475,-9.393566,2.5163994,-1.0029931,0.1760428,-19.886007,-7.0110726,41.324703,-34.574211,17.352134,17.867819,19.498518,-32.972425,98.767804
464,1482478004,17.645302,-32.081173,-10.584437,2.4957924,-0.9106021,0.219836,-19.634573,-9.650585,39.711384,-34.532614,17.336957,17.871483,19.171275,-33.133268,99.42966
465,1482494671,18.65931,-32.504818,-11.711713,2.482211,-0.80452013,0.21956658,-18.568258,-12.043555,38.062767,-34.491244,17.323548,17.875142,18.861804,-33.333994,100.064039
466,1482511338,19.804695,-32.842487,-13.037497,2.4591389,-0.7271013,0.2702546,-17.169086,-13.888081,35.21132,-34.450258,17.31143,17.879646,18.575653,-33.565462,100.650894
467,1482528005,21.088615,-33.088215,-14.579632,2.427126,-0.6813407,0.38086462,-15.473709,-15.210404,31.013945,-34.409806,17.300074,17.885994,18.317758,-33.818969,101.167793
468,1482544672,22.44802,-33.251087,-16.118536,2.3945742,-0.6383953,0.47223568,-12.945059,-15.940994,26.40931,-34.369896,17.289434,17.893865,18.102007,-34.084652,101.607948
469,1482561339,23.899803,-33.31622,-17.710579,2.3580446,-0.6084142,0.5662327,-9.6691475,-15.992912,21.105572,-34.330595,17.279294,17.903302,17.940855,-34.351201,101.959708
470,1482578006,24.975624,-33.317753,-18.972746,2.3285666,-0.59803486,0.65253687,-7.882359,-16.634886,15.853612,-34.291786,17.269327,17.914178,17.809482,-34.628449,102.223935
471,1482594673,25.61953,-33.25295,-19.836937,2.3076954,-0.60576916,0.72074556,-7.7148542,-17.929611,10.821203,-34.253324,17.259231,17.92619,17.680901,-34.927276,102.404288
472,1482611340,26.062157,-33.089123,-20.518951,2.2876472,-0.6365962,0.79117227,-8.150854,-19.180107,5.4297028,-34.215197,17.248621,17.939376,17.545053,-35.246944,102.494783
473,1482628007,26.16462,-32.830227,-20.897228,2.2714443,-0.69251156,0.8580828,-9.791826,-20.702564,-0.0873859,-34.17734,17.237079,17.953677,17.381856,-35.591987,102.493327
474,1482644674,26.180214,-32.449665,-21.1338,2.2551298,-0.7639818,0.9091859,-11.1887665,-21.714977,-5.9835463,-34.139755,17.224346,17.96883,17.195377,-35.953903,102.393601
475,1482661341,26.117943,-31.937618,-21.233467,2.2379065,-0.8524933,0.9451711,-12.256387,-22.124397,-12.306423,-34.102457,17.210138,17.984583,16.991104,-36.322643,102.188494
476,1482678008,25.72303,-31.306019,-20.999474,2.2242718,-0.96519613,0.96615434,-14.239416,-22.57071,-18.721207,-34.065386,17.194051,18.000686,16.75378,-36.698821,101.876474
477,1482694675,25.0391,-30.543194,-20.454195,2.2132616,-1.1010909,0.96882653,-16.838211,-22.861769,-25.28103,-34.028498,17.175699,18.016833,16.473143,-37.07985,101.455123
478,1482711342,24.546776,-29.898693,-20.079311,2.2134,-1.214468,0.9730067,-17.73985,-22.553698,-30.11896,-33.991608,17.155458,18.03305,16.177479,-37.455745,100.95314
479,1482728009,24.249275,-29.394405,-19.882149,2.226242,-1.302129,0.9789121,-16.880875,-21.666588,-32.981327,-33.954504,17.133756,18.049365,15.896131,-37.816855,100.403451
480,1482744676,23.93766,-28.900288,-19.636356,2.2471848,-1.3855782,0.97365093,-15.159552,-20.261316,-34.763218,-33.917051,17.110663,18.065593,15.643472,-38.154544,99.824064
481,1482761343,23.72918,-28.484982,-19.459074,2.2789927,-1.452326,0.9614322,-11.969044,-18.222155,-34.89041,-33.879068,17.086458,18.081617,15.443988,-38.458247,99.242557
482,1482778010,23.264503,-27.998928,-19.002586,2.317772,-1.5321202,0.92978907,-8.976187,-15.929398,-34.341026,-33.840438,17.060923,18.097113,15.294385,-38.723737,98.670207
483,1482794677,22.514961,-27.430393,-18.234697,2.363474,-1.6267896,0.87623024,-6.2557063,-13.374198,-33.127865,-33.801047,17.03381,18.111717,15.190123,-38.94664,98.118076
484,1482811344,21.753548,-26.91335,-17.42107,2.4207153,-1.7106111,0.8096111,-2.450911,-10.259165,-30.217339,-33.760702,17.0053,18.125211,15.149274,-39.117626,97.614454
485,1482828011,20.896492,-26.41605,-16.478462,2.4889774,-1.7897584,0.72611547,2.0952015,-6.65008,-25.758543,-33.719219,16.975471,18.137313,15.184194,-39.228461,97.185145
486,1482844678,20.213829,-25.958935,-15.701763,2.5377932,-1.8655851,0.6608572,5.020334,-3.9518185,-22.754,-33.676922,16.944378,18.148327,15.267866,-39.294325,96.805912
487,1482861345,19.760857,-25.563068,-15.146954,2.56503,-1.9346147,0.6176455,6.263144,-2.2626078,-21.30823,-33.634171,16.912134,18.158621,15.372252,-39.332035,96.450775
488,1482878012,19.34896,-25.199345,-14.612575,2.5849705,-1.99998,0.5764952,6.713225,-0.95740205,-20.045092,-33.591088,16.878801,18.168229,15.484139,-39.347992,96.11669
489,1482894679,19.062172,-24.88105,-14.188772,2.5892944,-2.0606852,0.54720426,5.748198,-0.42531097,-19.732323,-33.547933,16.844456,18.177349,15.579942,-39.355081,95.787818
490,1482911346,18.806175,-24.632084,-13.761708,2.597166,-2.1088881,0.51008964,5.097759,0.24115813,-18.280615,-33.504647,16.809308,18.18585,15.664905,-39.351062,95.483141
491,1482928013,18.568825,-24.455292,-13.3171,2.609725,-2.143933,0.46327734,4.831902,1.0844465,-15.531261,-33.461152,16.773576,18.193571,15.745437,-39.332988,95.224287
492,1482944680,18.473885,-24.354519,-12.993107,2.6101255,-2.1681392,0.4250443,3.5460105,1.3061553,-13.162436,-33.41765,16.73744,18.200655,15.804537,-39.311219,95.004913
493,1482961347,18.504616,-24.3391,-12.767993,2.6022835,-2.1791244,0.39112735,1.5923815,1.0851749,-10.705134,-33.374279,16.701121,18.207174,15.831077,-39.293133,94.826494
494,1482978014,18.445656,-24.30157,-12.48942,2.5790997,-2.1777017,0.34867716,0.68810415,1.2708529,-8.098421,-33.331294,16.664826,18.212985,15.842545,-39.271952,94.69152
495,1482994681,18.299446,-24.237411,-12.167439,2.5373964,-2.1632164,0.2989838,0.8197417,1.830455,-5.5323606,-33.289004,16.628772,18.217968,15.856207,-39.241444,94.599314
496,1483011348,18.162605,-24.208569,-11.8652,2.4828062,-2.1327755,0.24541092,1.4022617,2.4667897,-2.7066598,-33.247624,16.593226,18.222058,15.879578,-39.200331,94.554203
497,1483028015,17.985191,-24.189095,-11.551168,2.412282,-2.0858276,0.18523765,2.8660345,3.377267,0.33987054,-33.207419,16.558462,18.225145,15.927345,-39.144043,94.559868
498,1483044682,17.928642,-24.248543,-11.353179,2.3251553,-2.021332,0.1305263,3.8310132,3.8411627,3.1691425,-33.168666,16.524773,18.22732,15.991195,-39.080024,94.612687
499,1483061349,18.008278,-24.396458,-11.284596,2.2210531,-1.9380271,0.08197141,4.235742,3.811943,5.7894874,-33.131648,16.492473,18.228686,16.061791,-39.016492,94.709178
500,1483078016,18.105858,-24.578602,-11.260462,2.0970154,-1.8352375,0.03154421,5.131294,3.8037086,8.368069,-33.096698,16.461886,18.229212,16.147313,-38.953097,94.848646
501,1483094683,18.260948,-24.813168,-11.314089,1.952198,-1.7118578,-0.01792407,6.2231736,3.6495857,10.802072,-33.064161,16.433355,18.228913,16.251033,-38.892271,95.028681
502,1483111350,18.437492,-24.99327,-11.399162,1.8705502,-1.612987,-0.044026136,6.4270597,3.1185117,12.561989,-33.032985,16.406472,18.228179,16.358151,-38.840296,95.238047
503,1483128017,18.621819,-25.103477,-11.506678,1.8593836,-1.5423913,-0.04506278,5.755632,2.2337165,13.581991,-33.001995,16.380765,18.227428,16.454078,-38.803067,95.464414
504,1483144684,18.862267,-25.208687,-11.686835,1.8780146,-1.4773941,-0.029278278,4.516029,0.9764222,14.01738,-32.970695,16.356142,18.22694,16.529345,-38.786793,95.698037
505,1483161351,19.147697,-25.277592,-11.928198,1.9499502,-1.4304209,0.009870052,2.429141,-0.71459866,13.693209,-32.938196,16.332302,18.227105,16.569831,-38.798703,95.926257
506,1483178018,19.476265,-25.36266,-12.244971,2.0252113,-1.374017,0.05787754,0.3919363,-2.5936506,12.940638,-32.904442,16.309402,18.22807,16.576363,-38.841931,96.141934
507,1483194685,19.854378,-25.46894,-12.645772,2.100978,-1.3062513,0.11474633,-1.5756361,-4.674567,11.734545,-32.869426,16.287631,18.229982,16.550102,-38.91984,96.33751
508,1483211352,20.274452,-25.542484,-13.116285,2.2230692,-1.2516389,0.1938734,-4.165552,-7.1402917,9.730198,-32.832375,16.26677,18.233213,16.480676,-39.038845,96.49968
509,1483228019,20.73835,-25.593895,-13.663416,2.3816423,-1.2044654,0.2928686,-7.198688,-9.951384,6.962705,-32.792681,16.246696,18.238094,16.360698,-39.204701,96.615725
510,1483244686,21.06849,-25.597984,-14.0803,2.4684753,-1.1770194,0.34958005,-9.409344,-11.983263,4.794741,-32.75154,16.227079,18.24392,16.203876,-39.404422,96.695637
511,1483261353,21.245842,-25.54329,-14.345961,2.4795465,-1.1740999,0.36000872,-10.758422,-13.149677,3.2886577,-32.710214,16.207511,18.24992,16.024569,-39.623583,96.750448
512,1483278020,21.355583,-25.447067,-14.564557,2.4601278,-1.1865299,0.35235953,-11.726717,-13.9595585,1.7944732,-32.669212,16.187736,18.255793,15.829124,-39.856242,96.780356
513,1483294687,21.345894,-25.297985,-14.677089,2.3817463,-1.2192886,0.30969644,-11.977852,-14.098578,0.6650108,-32.629516,16.167415,18.260955,15.629493,-40.091218,96.79144
514,1483311354,21.32003,-25.095268,-14.804564,2.3197556,-1.2720418,0.2722752,-12.438497,-14.27985,-1.029333,-32.590853,16.146214,18.265493,15.422185,-40.329216,96.774284
515,1483328021,21.282173,-24.836678,-14.954067,2.2782001,-1.3452396,0.24231505,-13.145363,-14.536413,-3.3626215,-32.552883,16.123793,18.269532,15.203096,-40.57149,96.71824
516,1483344688,21.133232,-24.509945,-15.012474,2.1950054,-1.4443233,0.1849029,-13.342009,-14.231913,-5.5776973,-32.5163,16.099721,18.272614,14.980729,-40.808689,96.625278
517,1483361355,20.892021,-24.111774,-15.003439,2.0859327,-1.570245,0.10823321,-13.21619,-13.5054245,-7.883607,-32.481534,16.07355,18.274418,14.760459,-41.033779,96.493885
518,1483378022,20.740135,-23.799534,-15.104397,2.0068293,-1.6456606,0.06990981,-13.85602,-13.269145,-9.134944,-32.448087,16.046122,18.275583,14.529525,-41.254931,96.341636
519,1483394689,20.67936,-23.584003,-15.315672,1.9551897,-1.6647005,0.070836544,-15.269911,-13.519159,-9.123883,-32.415501,16.018377,18.276764,14.275026,-41.48025,96.189571
520,1483411356,20.63308,-23.385761,-15.566738,1.9149227,-1.6654487,0.08894348,-17.063993,-13.904502,-8.531665,-32.383586,15.99062,18.278246,13.990626,-41.711992,96.047377
521,1483428023,20.646263,-23.246796,-15.901419,1.8993473,-1.6268079,0.13902354,-19.516638,-14.6493025,-6.997943,-32.35193,15.963507,18.280563,13.665349,-41.956147,95.930745
522,1483444690,20.583488,-23.06865,-16.184792,1.8596478,-1.5961676,0.17826891,-21.789549,-15.042309,-4.9964113,-32.320936,15.936904,18.283534,13.30219,-42.206852,95.847471
523,1483461357,20.435005,-22.843338,-16.408182,1.7937613,-1.5767951,0.20455503,-23.845015,-15.039434,-2.5519984,-32.29104,15.910624,18.286943,12.904773,-42.457509,95.804938
524,1483478024,20.305016,-22.655632,-16.674774,1.7369633,-1.5267365,0.25182676,-26.338503,-15.1786375,0.91073596,-32.262091,15.885178,18.29114,12.465798,-42.710486,95.820117
525,1483494691,20.162743,-22.48399,-16.95438,1.6786175,-1.4558709,0.31102872,-29.093437,-15.300785,5.320398,-32.234114,15.860913,18.296324,11.980907,-42.965499,95.90879
526,1483511358,20.071342,-22.380405,-17.31032,1.6371641,-1.3967378,0.34449577,-30.978317,-15.0526495,8.844378,-32.206828,15.837634,18.302066,11.464602,-43.216376,96.056196
527,1483528025,20.048592,-22.361366,-17.76046,1.6182394,-1.3466933,0.35261917,-31.958246,-14.456115,11.413726,-32.179857,15.815189,18.307943,10.931965,-43.457311,96.246425
528,1483544692,20.042656,-22.388416,-18.25365,1.6056681,-1.2965109,0.34704852,-32.445755,-13.562131,13.879741,-32.153096,15.79358,18.313727,10.391202,-43.683347,96.477754
529,1483561359,20.074638,-22.480618,-18.81121,1.6056852,-1.2533216,0.3182156,-32.13762,-12.281939,15.772959,-32.126335,15.772691,18.319031,9.855575,-43.888046,96.740637
530,1483578026,20.132729,-22.629688,-19.421738,1.6166611,-1.187074,0.29673505,-31.857555,-10.946945,18.342913,-32.099391,15.752906,18.323977,9.324616,-44.070495,97.046352
531,1483594693,20.214012,-22.835602,-20.082684,1.6377039,-1.0960302,0.2835896,-31.631626,-9.555946,21.686281,-32.072096,15.734639,18.328703,8.797422,-44.229761,97.40779
532,1483611360,20.344154,-23.121635,-20.819828,1.6754694,-1.0005774,0.2552688,-30.78052,-7.8640914,24.790428,-32.044172,15.717963,18.332957,8.284413,-44.360829,97.820964
533,1483628027,20.521736,-23.48872,-21.632149,1.7299623,-0.89371586,0.21806788,-29.466473,-5.9344444,27.935444,-32.015339,15.703068,18.336591,7.793305,-44.459736,98.286555
534,1483644694,20.68145,-23.769012,-22.345455,1.7848043,-0.80335045,0.18810678,-28.243359,-4.7520957,29.538605,-31.985592,15.689679,18.339726,7.322582,-44.538938,98.778865
535,1483661361,20.822807,-23.952309,-22.948353,1.8401423,-0.7340069,0.16408062,-27.07121,-4.3856163,29.316896,-31.954923,15.677446,18.342461,6.871395,-44.612032,99.26748
536,1483678028,20.977852,-24.121395,-23.524239,1.9044018,-0.66719437,0.14251423,-25.78561,-4.411876,28.205349,-31.923183,15.666326,18.344836,6.441635,-44.685563,99.737569
537,1483694695,21.131218,-24.231876,-24.026249,1.973937,-0.611104,0.1271205,-24.509798,-5.1058807,25.707352,-31.890284,15.656141,18.346955,6.033138,-44.770661,100.166025
538,1483711362,21.329033,-24.390438,-24.563198,2.060463,-0.55415297,0.102093935,-22.725548,-5.826906,22.484245,-31.855943,15.646905,18.348657,5.654379,-44.867776,100.540762
539,1483728029,21.57624,-24.605507,-25.142439,2.1654816,-0.49483728,0.066889524,-20.401815,-6.550214,18.57035,-31.819852,15.638658,18.349772,5.314349,-44.976946,100.850268
540,1483744696,21.838158,-24.786358,-25.669271,2.2805634,-0.44615555,0.032396793,-17.890762,-7.8422265,13.168747,-31.781843,15.631222,18.350312,5.01617,-45.10765,101.069747
541,1483761363,22.12629,-24.95636,-26.166534,2.4088182,-0.4057145,-0.004840851,-15.071119,-9.579915,6.379797,-31.741696,15.62446,18.350231,4.764985,-45.267315,101.176077
542,1483778030,22.24247,-24.991474,-26.517399,2.49891,-0.39799786,-0.01961875,-13.227999,-10.8022785,0.9347184,-31.700048,15.617827,18.349904,4.544518,-45.447353,101.191656
543,1483794697,22.163353,-24.867165,-26.696617,2.5450306,-0.42773867,-0.008280754,-12.521948,-11.498111,-3.0502675,-31.657631,15.610698,18.349766,4.335819,-45.638988,101.140818
544,1483811364,21.9907,-24.656925,-26.772919,2.5738153,-0.48230934,0.014877796,-12.257678,-12.051216,-6.842784,-31.614734,15.60266,18.350014,4.131524,-45.839842,101.026772
545,1483828031,21.666588,-24.320572,-26.707226,2.570425,-0.5698714,0.057387352,-12.810385,-12.21926,-9.735656,-31.571894,15.593162,18.35097,3.918018,-46.043496,100.864511
546,1483844698,21.298058,-23.906212,-26.540821,2.5630302,-0.6799736,0.10755372,-13.519724,-12.723989,-13.569305,-31.529177,15.581829,18.352763,3.692689,-46.255562,100.638356
547,1483861365,20.890526,-23.415363,-26.2738,2.553275,-0.8128681,0.16462278,-14.3439045,-13.608709,-18.480362,-31.486622,15.568281,18.355507,3.453624,-46.482374,100.33035
548,1483878032,20.337898,-22.7855,-25.847248,2.513731,-0.98185825,0.241323,-15.951729,-14.311583,-22.958603,-31.444726,15.551917,18.359529,3.187762,-46.7209,99.947707
549,1483894699,19.659737,-22.022697,-25.264952,2.4497356,-1.1859002,0.33559775,-18.220081,-14.990945,-27.410635,-31.403897,15.532152,18.365122,2.884094,-46.970749,99.490863
550,1483911366,19.12101,-21.420734,-24.864414,2.4054928,-1.3350239,0.40092468,-19.446764,-15.337273,-30.154013,-31.363805,15.509902,18.371804,2.559981,-47.22637,98.988296
551,1483928033,18.730614,-20.995842,-24.666,2.380971,-1.4231207,0.43488073,-19.57218,-15.253272,-30.82977,-31.324122,15.486183,18.379052,2.233778,-47.480591,98.474467
552,1483944700,18.373146,-20.609161,-24.508015,2.358057,-1.492964,0.4585123,-19.337667,-14.9933605,-30.501377,-31.284821,15.4613,18.386694,1.911484,-47.73048,97.966111
553,1483961367,18.117027,-20.33839,-24.480354,2.3475246,-1.5201669,0.45944858,-18.30201,-14.4486265,-28.619953,-31.245696,15.435964,18.394351,1.606451,-47.97129,97.489112
554,1483978034,17.777336,-19.992058,-24.36604,2.3157444,-1.5616798,0.46838784,-17.644829,-13.655476,-25.773615,-31.2071,15.409936,18.402157,1.312371,-48.198881,97.059552
555,1483994701,17.34208,-19.55651,-24.149546,2.260313,-1.6211832,0.48723197,-17.441282,-12.62249,-21.991894,-31.169428,15.382916,18.410278,1.021683,-48.409256,96.69302
556,1484011368,16.96122,-19.193432,-24.015888,2.206684,-1.649117,0.4900298,-16.72992,-11.226014,-16.456337,-31.13265,15.355431,18.418445,0.742851,-48.596356,96.418748
557,1484028035,16.594612,-18.861473,-23.91848,2.1471615,-1.6573453,0.48324442,-15.765512,-9.463428,-9.239397,-31.096864,15.327809,18.426499,0.480092,-48.75408,96.264758
558,1484044702,16.310593,-18.619572,-23.816856,2.1006708,-1.6536193,0.46848273,-14.45182,-7.738736,-3.9138505,-31.061853,15.300249,18.434307,0.239228,-48.883059,96.199527
559,1484061369,16.134804,-18.494968,-23.731506,2.071807,-1.6317594,0.44239902,-12.6577835,-6.0577097,-0.66036093,-31.027323,15.273053,18.44168,0.028265,-48.984021,96.188521
560,1484078036,16.008339,-18.433186,-23.65131,2.046071,-1.5953987,0.40832043,-10.597912,-4.212765,2.217778,-30.993222,15.246463,18.448485,-0.148367,-49.054234,96.225484
561,1484094703,15.95713,-18.458778,-23.5733,2.0295534,-1.5441089,0.36543083,-8.204236,-2.2991257,3.7858338,-30.959396,15.220728,18.454576,-0.285104,-49.092553,96.288581
562,1484111370,15.980431,-18.57985,-23.568857,2.0172558,-1.4599245,0.30583096,-5.28382,-0.03572023,6.391877,-30.925775,15.196396,18.459673,-0.373168,-49.093148,96.395112
563,1484128037,16.077507,-18.797195,-23.641464,2.008276,-1.3414879,0.22902274,-1.8322318,2.610084,10.212504,-30.892304,15.174038,18.46349,-0.403705,-49.049647,96.56532
564,1484144704,16.274849,-19.132511,-23.756643,2.0107155,-1.1960623,0.13760734,2.1322122,5.426414,13.288964,-30.858792,15.154104,18.465783,-0.368168,-48.959207,96.786803
565,1484161371,16.575752,-19.591873,-23.932737,2.0237694,-1.0185575,0.029313326,6.6674466,8.484601,16.136545,-30.825063,15.137128,18.466272,-0.257044,-48.817797,97.055745
566,1484178038,16.779243,-19.945179,-24.059317,2.0207415,-0.9030161,-0.03211665,8.982609,10.377258,18.399687,-30.791384,15.122078,18.465737,-0.107334,-48.644843,97.362406
567,1484194705,16.873932,-20.178345,-24.125954,2.0006561,-0.8581896,-0.040709734,8.818541,10.942226,19.793915,-30.75804,15.107775,18.465059,0.039642,-48.462473,97.692305
568,1484211372,16.961136,-20.409065,-24.200981,1.9760485,-0.83508635,-0.028576612,7.5439944,10.894996,20.8309,-30.725106,15.093857,18.464583,0.165375,-48.28089,98.039487
569,1484228039,16.988495,-20.577106,-24.255327,1.9401178,-0.8598242,0.022173643,4.371224,9.824903,21.324951,-30.692771,15.079527,18.464953,0.238229,-48.117142,98.394903
570,1484244706,17.08377,-20.827095,-24.348293,1.9107141,-0.8784127,0.07477927,0.92011786,8.500262,20.987535,-30.660926,15.064887,18.466199,0.253564,-47.975471,98.744695
571,1484261373,17.258171,-21.171963,-24.488106,1.8892689,-0.88683987,0.12691998,-2.7195292,6.959348,19.813591,-30.629438,15.050106,18.468314,0.208239,-47.859482,99.074922
572,1484278040,17.404396,-21.489319,-24.621555,1.86127,-0.9348726,0.21278572,-8.05925,4.444995,17.744963,-30.598417,15.034525,18.47186,0.073918,-47.785399,99.370671
573,1484294707,17.551277,-21.811775,-24.763153,1.8307371,-1.0113888,0.32507467,-14.784889,1.0978957,14.683225,-30.567905,15.017669,18.477278,-0.172497,-47.767101,99.615391
574,1484311374,17.629387,-22.09874,-24.908379,1.8204279,-1.0703444,0.4062047,-18.976902,-0.910092,12.836062,-30.537565,14.99983,18.484048,-0.488779,-47.782269,99.829325
575,1484328041,17.6184,-22.330872,-25.05048,1.8309727,-1.1144419,0.455575,-20.472881,-1.4859759,12.358023,-30.507049,14.981256,18.491641,-0.829994,-47.807035,100.035292
576,1484344708,17.57064,-22.549553,-25.20221,1.8545465,-1.1587625,0.49614286,-20.942099,-1.5836293,12.0959215,-30.47614,14.961943,18.49991,-1.179029,-47.833429,100.236891
577,1484361375,17.461723,-22.738106,-25.360424,1.8972769,-1.1929612,0.51342845,-19.348934,-0.6320097,12.634449,-30.444519,14.94206,18.508467,-1.501511,-47.843962,100.447465
578,1484378042,17.305748,-22.890434,-25.516819,1.9426794,-1.2571507,0.55028105,-18.386269,-0.111795545,12.633617,-30.412141,14.921107,18.517638,-1.807949,-47.845825,100.658025
579,1484394709,17.103966,-23.007118,-25.67202,1.990385,-1.3539197,0.6092708,-18.201788,-0.11321944,11.972339,-30.378968,14.898542,18.527793,-2.111312,-47.847712,100.857564
580,1484411376,16.825584,-23.074207,-25.826859,2.054102,-1.4553473,0.65697026,-16.560123,0.5903075,11.810523,-30.344733,14.874286,18.538743,-2.387314,-47.837874,101.054406
581,1484428043,16.471,-23.08813,-25.979298,2.130683,-1.5708215,0.7027681,-14.023764,1.6841663,11.849214,-30.309222,14.848106,18.550456,-2.621043,-47.809805,101.251893
582,1484444710,16.205017,-23.179092,-26.138813,2.1476536,-1.5703678,0.67679095,-13.360533,2.084838,11.641957,-30.273428,14.821933,18.561736,-2.843719,-47.775058,101.445926
583,1484461377,16.03624,-23.354565,-26.305481,2.099594,-1.4382441,0.5679345,-14.55538,1.8415526,11.292351,-30.238435,14.797962,18.571202,-3.086309,-47.744365,101.634132
584,1484478044,15.884003,-23.547764,-26.47279,2.0186443,-1.242465,0.415349,-16.669678,1.2573947,10.808444,-30.204791,14.777254,18.578124,-3.364137,-47.723408,101.814273
585,1484494711,15.791138,-23.792454,-26.642677,1.8845301,-0.9449959,0.1975472,-20.40113,0.072984576,10.111069,-30.173382,14.761504,18.581416,-3.704156,-47.722192,101.982791
586,1484511378,15.651001,-24.006664,-26.809486,1.7429428,-0.61423063,-0.05388713,-23.55761,-0.7666646,9.739356,-30.144333,14.751267,18.580518,-4.096783,-47.73497,102.145114
587,1484528045,15.454758,-24.182808,-26.971924,1.5957985,-0.25388622,-0.33747792,-26.047207,-1.2248633,9.710674,-30.117736,14.747036,18.574893,-4.530903,-47.755384,102.306959
588,1484544712,15.291512,-24.389717,-27.133938,1.4021215,0.20476103,-0.689064,-29.555393,-1.9872878,9.703249,-30.094367,14.750449,18.563409,-5.023493,-47.788505,102.46868
589,1484561379,15.1373825,-24.608719,-27.293697,1.1706815,0.74921465,-1.1036134,-33.619934,-2.850223,9.841578,-30.074856,14.762936,18.545015,-5.583825,-47.836009,102.632706
590,1484578046,14.901878,-24.492123,-27.241169,1.0603037,1.4037123,-1.4713879,-33.759586,-4.65842,4.7363396,-30.057184,14.786331,18.520492,-6.146485,-47.913649,102.711645
591,1484594713,14.586662,-24.012466,-26.954731,1.0809207,2.182744,-1.7882137,-29.718414,-7.5734487,-6.185726,-30.039169,14.82271,18.490688,-6.641792,-48.039873,102.60855
592,1484611380,14.217751,-23.319187,-26.530788,1.1629033,3.069687,-2.1044059,-23.283392,-11.057626,-20.305634,-30.019787,14.873871,18.455615,-7.029849,-48.224167,102.270123
593,1484628047,13.772293,-22.313515,-25.907875,1.3497367,4.077321,-2.3917222,-13.213173,-15.375535,-39.188004,-29.997291,14.941826,18.415753,-7.250069,-48.480426,101.61699
594,1484644714,13.323769,-21.210491,-25.206158,1.5381384,5.213372,-2.7252321,-2.5242667,-20.22085,-59.818356,-29.971655,15.028716,18.370332,-7.29214,-48.81744,100.620017
595,1484661381,12.874046,-20.01661,-24.429016,1.7231884,6.481926,-3.1104884,8.690922,-25.569427,-82.06988,-29.942935,15.136748,18.318491,-7.147291,-49.243597,99.252186
596,1484678048,12.366722,-18.534618,-23.45972,1.9948263,7.8943195,-3.4864926,23.054543,-31.820808,-108.87486,-29.909688,15.26832,18.260383,-6.763049,-49.773944,97.437605
597,1484694715,11.816589,-16.80375,-22.319088,2.332508,9.456808,-3.8699074,39.994057,-38.928524,-139.68849,-29.870813,15.425933,18.195885,-6.096481,-50.422753,95.109463
598,1484711382,11.356003,-14.467751,-21.138678,2.6003618,10.668833,-4.140942,50.191166,-45.047024,-166.86374,-29.827474,15.603747,18.126869,-5.259962,-51.173537,92.328401
599,1484728049,10.991249,-11.457256,-19.911285,2.7977085,11.485806,-4.2799006,53.092045,-50.070892,-190.12013,-29.780846,15.795177,18.055537,-4.375095,-52.008052,89.159732
600,1484744716,10.669876,-7.95702,-18.583405,2.9763403,12.1511755,-4.3542457,52.750225,-54.861355,-212.79877,-29.73124,15.997697,17.982966,-3.495925,-52.922408,85.613086
601,1484761383,10.42791,-3.848278,-17.183311,3.1021109,12.524333,-4.326826,46.624733,-58.92667,-232.91174,-29.679538,16.206436,17.910852,-2.718846,-53.904519,81.731224
602,1484778050,10.173416,0.72815704,-15.596984,3.2789288,12.902314,-4.25119,40.85544,-63.45943,-255.77,-29.624889,16.421475,17.839999,-2.037922,-54.962176,77.468391
603,1484794717,9.903023,5.7768536,-13.813459,3.5125217,13.301795,-4.129694,35.737602,-68.53887,-281.71155,-29.566347,16.643172,17.771171,-1.442295,-56.104491,72.773199
604,1484811384,9.6946335,11.486044,-11.909411,3.722538,13.449473,-3.9007425,25.970106,-73.14816,-306.40417,-29.504305,16.86733,17.706159,-1.00946,-57.323627,67.666463
605,1484828051,9.530159,17.843634,-9.855771,3.9315748,13.403651,-3.5726638,12.782469,-77.53999,-330.9943,-29.438779,17.090724,17.646615,-0.796419,-58.61596,62.149891
606,1484844718,9.162979,23.709526,-7.885338,3.8928661,13.311019,-3.2815619,7.8789086,-81.4237,-348.56754,-29.373898,17.312574,17.591922,-0.665104,-59.973022,56.340432
607,1484861385,8.579102,29.01252,-6.026517,3.5716038,13.14396,-3.0290132,11.690771,-84.631676,-357.86536,-29.314371,17.53164,17.541438,-0.470258,-61.38355,50.376009
608,1484878052,7.8835526,34.299,-4.1460695,3.0986814,12.865134,-2.7526898,19.460226,-87.459946,-362.88147,-29.262726,17.746059,17.49556,-0.145921,-62.841216,44.327985
609,1484894719,7.0090866,39.263985,-2.310501,2.3994837,12.498809,-2.4856663,34.28589,-89.77343,-361.42084,-29.222735,17.954372,17.454132,0.42551,-64.33744,38.304304
610,1484911386,6.1199417,44.63921,-0.39891148,1.5947437,11.880631,-2.1286855,47.941803,-91.467735,-356.3205,-29.196156,18.152383,17.418654,1.22454,-65.861902,32.365629
611,1484928053,5.22348,50.47617,1.599308,0.6894789,10.995774,-1.6729703,60.032642,-92.53048,-347.68378,-29.184665,18.335646,17.390771,2.225084,-67.404077,26.570899
612,1484944720,4.1784515,56.148525,3.5652304,-0.4459405,9.938323,-1.1941671,77.3487,-92.866646,-332.0075,-29.192097,18.501285,17.370868,3.514229,-68.951854,21.037441
613,1484961387,3.0175095,61.81257,5.5235443,-1.791533,8.664482,-0.66871285,98.196655,-92.423874,-309.68558,-29.221956,18.645693,17.359723,5.15084,-70.492252,15.876015
614,1484978054,5.241432,67.10503,7.588874,-2.8023481,7.527628,-0.13503337,107.93438,-92.92044,-292.19366,-29.268662,18.771153,17.357472,6.949746,-72.040926,11.006121
615,1484994721,11.189842,71.90419,9.754193,-3.447058,6.564886,0.3955214,105.97706,-94.476074,-279.95892,-29.326113,18.880568,17.364064,8.71603,-73.615527,6.340139
616,1485011388,19.245308,76.47972,11.979377,-3.9748569,5.571596,0.95879745,98.11737,-96.212326,-267.59402,-29.392361,18.973428,17.380044,10.35132,-75.219066,1.880239
617,1485028055,30.419334,80.69516,14.289594,-4.239622,4.645053,1.5423074,80.42954,-98.587,-258.0279,-29.463021,19.050846,17.405749,11.691812,-76.862183,-2.420226
618,1485044722,42.668022,84.59367,16.586098,-4.5968947,3.5933056,2.1520915,63.18114,-100.541824,-243.41994,-29.539636,19.110734,17.441617,12.744831,-78.53788,-6.477225
619,1485061389,55.91944,88.17198,18.861492,-5.06845,2.3963375,2.791191,46.78931,-101.987885,-223.14076,-29.62411,19.150673,17.488137,13.524653,-80.237678,-10.196238
620,1485078056,72.11854,91.269455,21.183697,-5.350639,1.233007,3.4454575,22.683147,-103.84087,-203.51782,-29.713287,19.171223,17.545561,13.902705,-81.968359,-13.588202
621,1485094723,90.89721,93.87353,23.528927,-5.517717,0.060896873,4.11629,-7.079771,-105.86827,-182.77701,-29.805249,19.172238,17.614166,13.784709,-83.73283,-16.634485
622,1485111390,95.706154,96.47746,26.939613,-5.760906,-1.0116744,4.5217705,-30.49642,-103.92062,-167.35097,-29.901264,19.155377,17.689529,13.276435,-85.46484,-19.423668
623,1485128057,85.17463,99.07961,31.528221,-6.0579977,-1.9484563,4.6298456,-47.54477,-97.69118,-158.63733,-30.002231,19.122903,17.766693,12.484022,-87.093026,-22.067623
624,1485144724,66.877785,101.41196,36.788532,-6.3657093,-2.8270688,4.572463,-62.614555,-88.96628,-152.37766,-30.108326,19.075785,17.842901,11.440446,-88.575797,-24.607251
625,1485161391,36.15072,103.58383,43.02414,-6.7240186,-3.6063688,4.2658434,-72.68073,-76.57926,-150.655,-30.220393,19.015679,17.913998,10.2291,-89.852118,-27.118168
626,1485178058,3.086876,105.234436,49.652004,-6.9408965,-4.3036394,3.8677192,-87.08854,-63.134056,-151.28679,-30.336075,18.943952,17.97846,8.777624,-90.904352,-29.639614
627,1485194725,-31.871834,106.31366,56.64831,-7.006206,-4.917317,3.3821123,-106.305954,-48.720695,-154.10521,-30.452845,18.861997,18.034829,7.005858,-91.716364,-32.208034
628,1485211392,-77.95434,107.07692,64.58165,-7.0450525,-5.396541,2.652314,-123.12822,-30.985397,-162.16862,-30.570263,18.772055,18.079034,4.953721,-92.232787,-34.910844
629,1485228059,-133.23953,107.425674,73.34723,-7.012461,-5.7381434,1.7049153,-139.56505,-10.414587,-175.1792,-30.687137,18.676419,18.107449,2.627637,-92.406363,-37.830497
630,1485244726,-173.53471,107.66722,80.58161,-7.149483,-6.2476087,0.8208792,-148.71164,4.32014,-177.51361,-30.806295,18.572292,18.12113,0.14911,-92.334361,-40.789057
631,1485261393,-197.82458,107.846344,86.14025,-7.489935,-6.940225,0.00048208237,-149.00238,12.7054205,-168.24474,-30.931127,18.456622,18.121138,-2.334263,-92.122604,-43.593136
632,1485278060,-216.4397,107.7336,91.08382,-7.8855414,-7.6621633,-0.87853146,-145.03177,18.553457,-154.73341,-31.062553,18.328919,18.106496,-4.751459,-91.81338,-46.172026
633,1485294727,-222.98422,107.41263,94.77071,-8.4059305,-8.491922,-1.7484884,-134.53381,19.507055,-132.80885,-31.202652,18.187387,18.077355,-6.993689,-91.488262,-48.385507
634,1485311394,-234.11647,106.73901,98.735565,-8.939441,-9.229891,-2.8231678,-119.588425,21.262228,-112.4952,-31.351643,18.033555,18.030302,-8.986829,-91.133892,-50.260427
635,1485328061,-250.7568,105.68329,103.0615,-9.474218,-9.857809,-4.1202884,-100.33508,24.107496,-94.46937,-31.509547,17.869258,17.961631,-10.65908,-90.7321,-51.834916
636,1485344728,-259.08765,104.384476,106.42171,-10.12734,-10.53974,-5.4798837,-73.57073,23.132324,-70.15092,-31.678336,17.693596,17.8703,-11.885259,-90.346561,-53.004098
637,1485361395,-262.59406,102.803375,109.12829,-10.875954,-11.229726,-6.952497,-39.524845,19.486458,-41.664986,-31.859602,17.506434,17.754425,-12.544006,-90.021787,-53.698514
638,1485378062,-268.19653,101.65076,111.46833,-11.543637,-11.545587,-7.760014,-16.532091,17.833769,-21.599585,-32.051996,17.314008,17.625091,-12.819541,-89.724558,-54.058507
639,1485394729,-274.7583,101.01509,113.28067,-12.131523,-11.4669895,-7.807076,-5.717772,17.944767,-10.084759,-32.254188,17.122892,17.494973,-12.914837,-89.425479,-54.226586
640,1485411396,-281.25,100.53348,114.61633,-12.710235,-11.139799,-7.49585,1.6496964,18.314877,-2.58156,-32.466025,16.937229,17.370042,-12.887342,-89.120231,-54.269612
641,1485428063,-289.02054,100.41675,115.48361,-13.237106,-10.458027,-6.5972257,0.66952276,20.02055,-2.328612,-32.686643,16.762929,17.260088,-12.876183,-88.786555,-54.308422
642,1485444730,-290.35724,100.281006,115.34354,-13.845533,-9.677925,-5.5224586,3.0321183,18.991322,0.1578499,-32.917402,16.60163,17.168047,-12.825648,-88.470033,-54.305791
643,1485461397,-284.8943,100.10915,114.15227,-14.544789,-8.805437,-4.2917247,9.54521,14.989199,5.2751703,-33.159815,16.454873,17.096518,-12.666561,-88.220213,-54.217871
644,1485478064,-277.41754,100.28662,112.14823,-15.234009,-7.6166286,-2.490234,10.172768,10.8899,5.511123,-33.413715,16.327929,17.055014,-12.497015,-88.038715,-54.126019
645,1485494731,-266.10773,100.74523,109.180046,-15.943587,-6.1589036,-0.19171453,7.3989186,5.7604785,2.8325346,-33.679441,16.225281,17.051819,-12.3737,-87.942707,-54.07881
646,1485511398,-259.50424,100.87379,107.46441,-16.424025,-5.2506566,1.1991239,7.3705993,2.2521033,2.256003,-33.953175,16.13777,17.071804,-12.250857,-87.905172,-54.04121
647,1485528065,-258.7752,100.6779,107.208015,-16.639084,-4.9405684,1.6111621,9.356987,0.90193987,3.3289702,-34.230493,16.055427,17.098657,-12.094907,-87.89014,-53.985727
648,1485544732,-258.45874,100.41649,107.22753,-16.72761,-4.8698363,1.671371,12.059093,-0.23356056,4.9686375,-34.509286,15.974263,17.126513,-11.893922,-87.894033,-53.902916
649,1485561399,-260.97247,99.94469,108.13439,-16.614578,-5.2612257,1.0059803,16.766327,-0.34672552,8.304253,-34.786196,15.886576,17.143279,-11.614483,-87.899812,-53.764512
650,1485578066,-262.40088,99.73666,108.66246,-16.419403,-5.5754714,0.55124307,17.302368,-0.30479276,8.394148,-35.059853,15.793651,17.152466,-11.32611,-87.904892,-53.62461
651,1485594733,-262.24008,99.83151,108.70743,-16.148903,-5.7856274,0.3630972,13.368576,-0.25729954,5.048914,-35.329001,15.697224,17.158518,-11.1033,-87.90918,-53.540461
652,1485611400,-264.52814,99.87987,109.43072,-15.674452,-6.3564496,-0.34747434,9.002945,0.94945776,1.6292051,-35.590242,15.591283,17.152727,-10.953251,-87.893356,-53.513308
653,1485628067,-268.40533,99.99452,110.56502,-15.016766,-7.179264,-1.3841372,2.776187,3.1426344,-2.9624445,-35.840521,15.471629,17.129658,-10.906981,-87.840979,-53.562682
654,1485644734,-270.50696,100.01323,111.07393,-14.580116,-7.6790943,-1.9924116,-0.6867709,4.199461,-5.4851465,-36.083523,15.343644,17.096451,-10.918427,-87.770988,-53.654101
655,1485661401,-271.10684,99.887344,111.01952,-14.382134,-7.864008,-2.2015953,-0.6051793,4.119865,-5.29649,-36.323225,15.212577,17.059758,-10.928513,-87.702324,-53.742376
656,1485678068,-271.27023,99.77954,110.72513,-14.2407055,-7.9390674,-2.2408118,-0.25917387,3.833006,-4.7260804,-36.56057,15.080259,17.022411,-10.932833,-87.638441,-53.821144
657,1485694735,-270.27875,99.63848,109.9562,-14.261583,-7.763566,-1.9295139,1.6915355,2.830594,-2.7879674,-36.798263,14.950866,16.990252,-10.904641,-87.591264,-53.86761
658,1485711402,-271.08093,99.48439,109.61639,-14.171673,-7.799469,-1.9128013,3.4774585,2.651556,-0.52365017,-37.034458,14.820875,16.958372,-10.846683,-87.547071,-53.876338
659,1485728069,-273.8821,99.33348,109.758575,-13.952864,-8.072019,-2.2197738,4.795934,3.4252448,1.8975366,-37.267006,14.686341,16.921376,-10.766751,-87.489984,-53.844712
660,1485744736,-276.68594,99.1315,109.74997,-13.831102,-8.235165,-2.3807058,7.6874967,3.9832888,5.8794656,-37.497524,14.549088,16.881698,-10.638626,-87.423596,-53.746721
661,1485761403,-280.19885,98.88542,109.79846,-13.747519,-8.390902,-2.5366402,11.754459,4.6878486,11.223028,-37.726649,14.40924,16.839421,-10.442718,-87.345465,-53.559671
662,1485778070,-280.41757,98.901115,109.22105,-13.525087,-8.59753,-2.720265,14.949926,4.2136817,17.811525,-37.952067,14.265948,16.794083,-10.193553,-87.275237,-53.262812
663,1485794737,-276.78192,99.19954,107.89077,-13.17461,-8.823234,-2.8848572,17.395317,2.308877,25.905706,-38.171644,14.118894,16.746002,-9.903631,-87.236756,-52.83105
664,1485811404,-271.72647,99.64111,106.28499,-12.740042,-9.11318,-3.1154346,19.82388,-0.1341008,35.498577,-38.383978,13.967008,16.694078,-9.573233,-87.238991,-52.239407
665,1485828071,-264.0909,100.309616,104.19826,-12.17966,-9.474934,-3.4097657,21.787407,-3.5224442,46.696213,-38.586972,13.809092,16.637249,-9.21011,-87.297698,-51.461137
666,1485844738,-255.76935,101.020195,101.88001,-11.653223,-9.789759,-3.6312032,24.961184,-7.3491,59.973858,-38.781192,13.645929,16.576729,-8.79409,-87.420183,-50.461573
667,1485861405,-246.95267,101.76335,99.36689,-11.166216,-10.060965,-3.786129,29.47345,-11.555154,75.45094,-38.967296,13.478246,16.513627,-8.302866,-87.612769,-49.204057
668,1485878072,-235.66989,102.70537,96.3514,-10.604591,-10.353067,-3.9390712,34.155815,-16.763626,93.07403,-39.144039,13.305695,16.447976,-7.733602,-87.892163,-47.652823
669,1485894739,-222.3054,103.80989,92.88335,-10.002668,-10.641606,-4.0618453,39.41083,-22.88143,113.04403,-39.31075,13.128335,16.380279,-7.076755,-88.27352,-45.768756
670,1485911406,-205.10327,104.45909,88.629585,-9.480018,-10.616566,-3.9476814,43.40361,-26.469858,130.0151,-39.46875,12.951392,16.314484,-6.353361,-88.714684,-43.601838
671,1485928073,-183.55739,104.6149,83.499596,-9.036756,-10.250348,-3.577629,45.85275,-27.29407,143.54207,-39.619363,12.780553,16.254857,-5.589149,-89.169585,-41.20947
672,1485944740,-158.68571,104.54622,77.66957,-8.641136,-9.66965,-3.0264559,47.934807,-26.93164,156.3675,-39.763382,12.619392,16.204416,-4.790236,-89.618446,-38.603345
673,1485961407,-129.8291,104.08389,71.01481,-8.325105,-8.783613,-2.2317038,49.113792,-24.441366,167.02821,-39.902134,12.472998,16.167221,-3.971673,-90.025802,-35.819541
674,1485978074,-97.43986,103.630356,63.639187,-7.9906363,-7.788015,-1.3302407,50.207413,-21.979963,178.73462,-40.035311,12.343198,16.14505,-3.134883,-90.392135,-32.840631
675,1485994741,-61.45112,103.204315,55.527576,-7.6369534,-6.6854854,-0.32065058,51.3115,-19.664705,191.7321,-40.162594,12.231773,16.139706,-2.279691,-90.71988,-29.645096
676,1486011408,-20.948318,102.4554,46.497044,-7.34186,-5.2935624,0.92528915,51.545372,-15.592043,203.15387,-40.284958,12.143547,16.155127,-1.420601,-90.979747,-26.259198
677,1486028075,24.104164,101.46344,36.54355,-7.0868707,-3.6457477,2.386034,51.077946,-10.195104,213.67874,-40.403073,12.082785,16.194894,-0.569302,-91.149665,-22.697886
678,1486044742,54.38427,100.05136,28.492615,-6.780481,-2.2955692,3.4147794,48.52609,-5.2354794,223.48915,-40.516081,12.044526,16.251807,0.239466,-91.236923,-18.973067
679,1486061409,68.18328,98.14894,22.580715,-6.4245353,-1.2680073,3.968723,43.600964,-0.6125174,232.19745,-40.623157,12.023393,16.317952,0.966149,-91.247132,-15.10311
680,1486078076,74.713875,95.88423,17.454094,-6.051508,-0.31741095,4.3438854,37.035847,4.248684,240.13577,-40.724015,12.018103,16.39035,1.583413,-91.176321,-11.100847
681,1486094743,68.52703,93.184326,13.901315,-5.639254,0.41032124,4.3637524,28.360973,8.950239,247.19963,-40.818003,12.024942,16.463079,2.056096,-91.02715,-6.980853
682,1486111410,61.138268,90.0482,10.214,-5.264654,1.2936978,4.444897,18.126266,15.046204,252.51935,-40.905747,12.046504,16.537161,2.3582,-90.77638,-2.772197
683,1486128077,53.132866,86.46689,6.2968836,-4.9321933,2.3562827,4.610661,6.312962,22.635637,256.02133,-40.98795,12.085775,16.614005,2.463416,-90.399119,1.494825
684,1486144744,33.890022,82.36262,3.7016459,-4.585594,3.2846384,4.4986506,-7.822608,30.638052,257.96704,-41.064377,12.140519,16.688983,2.333039,-89.888485,5.794276
685,1486161411,5.632454,77.71861,2.0903473,-4.242187,4.1594925,4.1937037,-24.234917,39.41671,258.09247,-41.13508,12.209844,16.758878,1.929124,-89.23154,10.095817
686,1486178078,-10.206947,73.19,0.083301544,-3.7624183,5.038992,3.9476871,-33.44611,49.309166,260.9163,-41.197787,12.293827,16.824673,1.371689,-88.409721,14.444422
687,1486194745,-13.109085,68.8124,-2.2230124,-3.1262145,5.8882513,3.7342477,-34.66429,60.258575,266.82288,-41.249891,12.391965,16.88691,0.793951,-87.405411,18.89147
688,1486211412,-11.939301,64.2479,-4.3689795,-2.411499,6.7325306,3.4858708,-32.375435,72.388115,273.4223,-41.290083,12.504174,16.945008,0.25436,-86.198942,23.448508
689,1486228079,-1.1948395,59.665176,-6.655136,-1.5764627,7.5745697,3.2551877,-23.926764,85.789536,281.94412,-41.316357,12.630417,16.999261,-0.144419,-84.769116,28.147577
690,1486244746,3.6752777,54.641376,-7.8392725,-0.68766785,8.29851,2.795934,-15.056227,100.038124,289.74112,-41.327818,12.768725,17.04586,-0.395356,-83.101814,32.976596
691,1486261413,1.754303,49.13596,-7.8314652,0.2509246,8.899475,2.0926118,-6.064419,115.17442,296.5888,-41.323636,12.91705,17.080737,-0.49643,-81.18224,37.919743
692,1486278080,5.3893433,43.498093,-7.4724207,1.3109069,9.431771,1.3059298,8.273226,131.50824,304.8628,-41.301788,13.074246,17.102502,-0.358543,-78.990436,43.00079
693,1486294747,11.244484,37.62964,-6.4624786,2.4806223,9.86581,0.37687683,26.834225,148.97957,313.99292,-41.260444,13.238676,17.108783,0.088694,-76.507443,48.234005
694,1486311414,13.83268,31.836693,-6.079259,3.4450874,10.252363,-0.36726522,36.326027,161.07841,318.62732,-41.203026,13.409549,17.102662,0.694128,-73.822803,53.54446
695,1486328081,14.110657,26.190943,-6.5152416,4.185151,10.594802,-0.8820615,36.19312,167.18933,318.54648,-41.133273,13.586129,17.087961,1.297347,-71.036314,58.853568
696,1486344748,12.401955,20.478886,-6.932847,4.84406,10.842374,-1.3680949,32.046047,170.33778,315.89355,-41.052539,13.766835,17.065159,1.831448,-68.197351,64.118461
697,1486361415,7.5916443,14.800858,-7.7005296,5.3366756,11.004664,-1.7315054,20.362152,168.65378,309.23514,-40.963594,13.950246,17.036301,2.170817,-65.386455,69.27238
698,1486378082,6.0035095,9.060516,-8.250942,5.8663073,11.058784,-2.128018,10.29159,165.99422,302.25024,-40.865822,14.134559,17.000834,2.342343,-62.619885,74.309884
699,1486394749,7.787445,3.248539,-8.509543,6.44466,10.9937525,-2.5743966,2.316648,162.5106,295.0916,-40.758411,14.317788,16.957927,2.380954,-59.911375,79.228078
700,1486411416,8.9407425,-2.4922447,-9.079971,6.896164,10.824707,-2.910699,-11.171858,154.57803,284.66547,-40.643475,14.4982,16.909415,2.194756,-57.335074,83.972502
701,1486428083,10.860893,-8.174877,-9.839518,7.262582,10.540959,-3.1694221,-28.27536,142.90654,271.7073,-40.522432,14.673883,16.856591,1.7235,-54.953298,88.500957
702,1486444750,11.226318,-13.211262,-9.861212,7.4374447,10.22672,-3.4557471,-40.647434,133.5014,256.3123,-40.398475,14.844328,16.798995,1.046043,-52.728275,92.772828
703,1486461417,9.478279,-17.508636,-9.14569,7.384863,9.888305,-3.7549047,-48.46014,126.37505,238.04814,-40.275394,15.009133,16.736413,0.238374,-50.622024,96.740297
704,1486478084,7.761261,-21.338448,-8.057142,7.1797523,9.474242,-4.035461,-54.428204,119.04955,217.30325,-40.155731,15.167037,16.669155,-0.668763,-48.637865,100.362018
705,1486494751,5.3898544,-24.511215,-6.367539,6.7813854,9.00598,-4.3167763,-56.49872,112.99546,193.93163,-40.042708,15.317137,16.597209,-1.610408,-46.754607,103.594212
706,1486511418,2.7199326,-27.313244,-4.7635455,6.2017565,8.429669,-4.495327,-61.539597,103.63447,166.98227,-39.939345,15.457631,16.522287,-2.636068,-45.027366,106.37725
707,1486528085,-0.02645111,-29.737873,-3.2880607,5.4382515,7.7378387,-4.561996,-69.856964,90.63894,136.3631,-39.848707,15.586595,16.446254,-3.800351,-43.516717,108.649968
708,1486544752,-3.6004028,-31.45605,-1.4114027,4.442644,6.9740753,-4.5800757,-76.31345,77.479904,102.32597,-39.774663,15.70283,16.369919,-5.072242,-42.225385,110.355401
709,1486561419,-7.8842163,-32.501766,0.7142029,3.2099714,6.1244726,-4.5227075,-82.38847,63.11015,64.57063,-39.721163,15.804905,16.294541,-6.445383,-41.173549,111.431578
710,1486578086,-10.881332,-33.621067,2.4308338,2.4536686,5.286586,-4.3578496,-81.62391,51.023052,35.634544,-39.680269,15.893015,16.22191,-7.805781,-40.323165,112.025487
711,1486594753,-12.519768,-34.817448,3.730672,2.2306871,4.4744177,-4.084234,-72.77061,41.940304,16.703432,-39.643091,15.967589,16.153839,-9.018624,-39.62416,112.303878
712,1486611420,-13.662483,-35.733517,4.8140287,2.194646,3.6312418,-3.6934009,-59.86978,33.46122,1.5930717,-39.606514,16.02811,16.092282,-10.016454,-39.066473,112.330429
713,1486628087,-13.791328,-36.545475,5.5053606,2.5424309,2.7859516,-3.173524,-40.88,26.682837,-6.150927,-39.56414,16.074543,16.03939,-10.697787,-38.621759,112.227914
714,1486644754,-14.176903,-36.69473,6.310914,2.8406372,1.8902111,-2.5516353,-18.167248,20.403162,-13.797412,-39.516796,16.106047,15.996863,-11.000574,-38.281706,111.997957
715,1486661421,-14.893425,-36.124104,7.238557,3.0623198,0.94024134,-1.8213377,8.112185,14.483384,-21.753988,-39.465757,16.121718,15.966507,-10.865371,-38.040316,111.635391
716,1486678088,-14.863976,-35.246075,7.878188,3.5965405,-0.013766766,-0.95509243,41.057705,10.533894,-23.227417,-39.405815,16.121489,15.950589,-10.181076,-37.864751,111.248267
