PacketCounter,SampleTimeFine,Euler_X,Euler_Y,Euler_Z,Acc_X,Acc_Y,Acc_Z,Gyr_X,Gyr_Y,Gyr_Z,Velo_X,Velo_Y,Velo_Z,ANG_X,ANG_Y,ANG_Z
0,2095620619,-218.5629,-56.545914,78.729416,8.945536,-3.7960918,4.053116e-05,2.923852,0.65790933,0.9920389,0.0,0.0,0.0,0.0,0.0,0.0
1,2095637286,-218.5183,-56.571205,78.70224,9.04996,-3.9302282,-0.26459122,3.0422435,0.61945224,1.0140696,0.150833,-0.065504,-0.00441,0.050704,0.010324,0.016901
2,2095653953,-218.4718,-56.59766,78.67325,9.1635685,-4.0768967,-0.55204105,3.166823,0.5810949,1.0361514,0.303559,-0.133452,-0.013611,0.103484,0.020009,0.03417
3,2095670620,-218.42413,-56.62487,78.64284,9.284735,-4.2340565,-0.8582082,3.2956226,0.5436059,1.0579269,0.458305,-0.20402,-0.027914,0.158411,0.029069,0.051802
4,2095687287,-218.35994,-56.66104,78.60303,9.446551,-4.443238,-1.2665682,3.4685156,0.49157265,1.0864465,0.615748,-0.278074,-0.049023,0.21622,0.037262,0.069909
5,2095703954,-218.28261,-56.70436,78.5555,9.642312,-4.6961327,-1.7601523,3.6768441,0.42860934,1.1200354,0.776453,-0.356343,-0.078359,0.277501,0.044405,0.088576
6,2095720621,-218.23093,-56.7332,78.52226,9.771878,-4.86334,-2.0870848,3.799128,0.36889452,1.1711097,0.939318,-0.437399,-0.113144,0.34082,0.050553,0.108094
7,2095737288,-218.20657,-56.74659,78.50433,9.830333,-4.938366,-2.2350082,3.8290286,0.31165752,1.241955,1.103157,-0.519705,-0.150394,0.404637,0.055747,0.128793
8,2095753955,-218.19327,-56.753666,78.49231,9.861178,-4.9776726,-2.3132534,3.8186855,0.25237134,1.3257816,1.26751,-0.602666,-0.188948,0.468282,0.059953,0.150889
9,2095770622,-218.20126,-56.74865,78.492065,9.837667,-4.946658,-2.2545357,3.7353492,0.19427726,1.4266031,1.431471,-0.68511,-0.226524,0.530538,0.063191,0.174666
10,2095787289,-218.20381,-56.74637,78.488495,9.827255,-4.9321632,-2.228569,3.6604786,0.12477687,1.5393536,1.595259,-0.767313,-0.263667,0.591546,0.065271,0.200322
11,2095803956,-218.19955,-56.747578,78.480865,9.833617,-4.9389453,-2.2445736,3.5981255,0.043115497,1.664,1.759153,-0.849629,-0.301077,0.651515,0.06599,0.228055
12,2095820623,-218.2108,-56.739876,78.481735,9.799919,-4.8936787,-2.1595516,3.479012,-0.041902363,1.8069594,1.922485,-0.93119,-0.33707,0.709499,0.065292,0.258171
13,2095837290,-218.23198,-56.7263,78.48802,9.74011,-4.814315,-2.0085907,3.3196802,-0.13318884,1.9676358,2.08482,-1.011429,-0.370547,0.764827,0.063072,0.290965
14,2095853957,-218.2385,-56.716896,78.4877,9.713533,-4.7776914,-1.9371014,3.2417808,-0.18584538,2.1030397,2.246712,-1.091057,-0.402832,0.818857,0.059975,0.326016
15,2095870624,-218.23088,-56.710983,78.48125,9.718468,-4.78159,-1.9403434,3.2480075,-0.19447416,2.2102065,2.408686,-1.17075,-0.435171,0.87299,0.056734,0.362853
16,2095887291,-218.21718,-56.70575,78.472336,9.735789,-4.801158,-1.9720025,3.2913914,-0.18228567,2.3094444,2.570949,-1.250769,-0.468038,0.927847,0.053696,0.401344
17,2095903958,-218.19135,-56.70347,78.458115,9.779851,-4.85497,-2.0670452,3.403547,-0.1361199,2.389057,2.733947,-1.331685,-0.502489,0.984573,0.051427,0.441162
18,2095920625,-218.17365,-56.694954,78.44888,9.801005,-4.878802,-2.1027575,3.4952397,-0.07971889,2.4761364,2.897297,-1.412998,-0.537535,1.042827,0.050098,0.482431
19,2095937292,-218.165,-56.679733,78.44524,9.796883,-4.8695564,-2.0732303,3.5622535,-0.014288425,2.572366,3.060578,-1.494157,-0.572089,1.102198,0.04986,0.525304
20,2095953959,-218.15024,-56.664185,78.439575,9.80404,-4.8745265,-2.0682964,3.6762505,0.08402246,2.6540437,3.223979,-1.575399,-0.606561,1.163469,0.05126,0.569538
21,2095970626,-218.13383,-56.64622,78.434235,9.811613,-4.8796372,-2.0609899,3.818604,0.21092159,2.726757,3.387506,-1.656726,-0.640911,1.227112,0.054775,0.614984
22,2095987293,-218.11113,-56.63281,78.42285,9.816786,-4.883311,-2.0508347,3.9186225,0.32354385,2.8071156,3.551119,-1.738115,-0.675092,1.292422,0.060167,0.661769
23,2096003960,-218.07999,-56.625237,78.40393,9.823226,-4.890491,-2.0473456,3.9783297,0.42166948,2.8934386,3.714839,-1.819623,-0.709214,1.358727,0.067195,0.709993
24,2096020627,-218.0456,-56.61869,78.382095,9.824548,-4.8919315,-2.0315137,4.018806,0.5235627,2.981321,3.878581,-1.901155,-0.743073,1.425707,0.075921,0.759682
25,2096037294,-218.00612,-56.615257,78.35536,9.820897,-4.8884106,-2.0054355,4.022673,0.6187471,3.0742712,4.042263,-1.982629,-0.776497,1.492752,0.086233,0.81092
26,2096053961,-217.96031,-56.612434,78.32547,9.823048,-4.8926587,-1.9917235,4.04993,0.7393156,3.1562238,4.20598,-2.064173,-0.809692,1.560251,0.098555,0.863524
27,2096070628,-217.90839,-56.60987,78.292725,9.830568,-4.9040627,-1.9890041,4.1028533,0.8877138,3.226213,4.369823,-2.145907,-0.842842,1.628632,0.11335,0.917294
28,2096087295,-217.84917,-56.61069,78.25433,9.838375,-4.917183,-1.9882069,4.1369224,1.0395199,3.294814,4.533796,-2.22786,-0.875979,1.697581,0.130675,0.972208
29,2096103962,-217.78226,-56.61441,78.21062,9.84873,-4.93472,-1.9940581,4.164897,1.2021427,3.3582153,4.697942,-2.310105,-0.909213,1.766996,0.150711,1.028178
30,2096120629,-217.74632,-56.615593,78.17337,9.856186,-4.943846,-1.9919615,3.943657,1.2902744,3.4281778,4.862212,-2.392502,-0.942412,1.832724,0.172216,1.085314
31,2096137296,-217.74478,-56.61427,78.14325,9.860025,-4.9432263,-1.9804978,3.4430585,1.2926159,3.5066621,5.026546,-2.474889,-0.97542,1.890108,0.19376,1.143758
32,2096153963,-217.7589,-56.612793,78.11467,9.864576,-4.9410563,-1.9703526,2.785462,1.2545153,3.5851307,5.190956,-2.55724,-1.008259,1.936532,0.214669,1.20351
33,2096170630,-217.79953,-56.60987,78.09076,9.868452,-4.933938,-1.9579363,1.8986042,1.1505882,3.666949,5.35543,-2.639472,-1.040891,1.968175,0.233845,1.264626
34,2096187297,-217.84404,-56.609528,78.06381,9.873373,-4.9277587,-1.9490557,0.90979064,1.0241451,3.7475328,5.519986,-2.721601,-1.073375,1.983338,0.250914,1.327085
35,2096203964,-217.89116,-56.612083,78.03325,9.879905,-4.9234247,-1.9451971,-0.17612481,0.8773775,3.8260236,5.684651,-2.803658,-1.105795,1.980403,0.265537,1.390852
36,2096220631,-217.9619,-56.614544,78.005585,9.886135,-4.915217,-1.9407887,-1.4894859,0.6653558,3.907569,5.84942,-2.885578,-1.138141,1.955578,0.276626,1.455978
37,2096237298,-218.05185,-56.61785,77.97914,9.89261,-4.9045596,-1.9375687,-3.0085258,0.39569622,3.9910765,6.014297,-2.967321,-1.170434,1.905436,0.283221,1.522496
38,2096253965,-218.11133,-56.605785,77.95271,9.890844,-4.890124,-1.9402089,-3.784697,0.09298295,4.087335,6.179144,-3.048823,-1.202771,1.842358,0.284771,1.590618
39,2096270632,-218.13847,-56.57639,77.92699,9.879766,-4.8710203,-1.9486847,-3.744318,-0.24842232,4.1982374,6.343807,-3.130007,-1.235249,1.779953,0.280631,1.660589
40,2096287299,-218.15428,-56.537968,77.90143,9.8638,-4.8488626,-1.9622908,-3.323317,-0.63722533,4.318058,6.508204,-3.210821,-1.267954,1.724564,0.270011,1.732557
41,2096303966,-218.14569,-56.48574,77.87605,9.840433,-4.8230023,-1.9823322,-2.2572513,-1.0702858,4.450266,6.672211,-3.291204,-1.300993,1.686943,0.252173,1.806728
42,2096320633,-218.14738,-56.42838,77.85315,9.814312,-4.7929773,-2.0055056,-1.1321064,-1.57621,4.589857,6.835783,-3.371087,-1.334418,1.668075,0.225903,1.883226
43,2096337300,-218.1613,-56.366272,77.832886,9.785677,-4.758783,-2.0320148,0.023631454,-2.1588552,4.7367744,6.998878,-3.4504,-1.368285,1.668469,0.189922,1.962172
44,2096353967,-218.15898,-56.29075,77.8141,9.74991,-4.719955,-2.0647907,1.7379184,-2.803546,4.8968616,7.161377,-3.529066,-1.402698,1.697434,0.143196,2.043786
45,2096370634,-218.1477,-56.203354,77.79736,9.707861,-4.6762853,-2.103383,3.8965082,-3.5188572,5.0694423,7.323175,-3.607004,-1.437754,1.762376,0.084548,2.128277
46,2096387301,-218.13948,-56.126457,77.78899,9.683874,-4.651632,-2.1302786,5.2283897,-3.9967,5.073097,7.484573,-3.684531,-1.473259,1.849516,0.017936,2.212829
47,2096403968,-218.13182,-56.060825,77.78963,9.679658,-4.6482,-2.1442518,5.6844816,-4.20631,4.890404,7.645901,-3.762001,-1.508997,1.944257,-0.052169,2.294336
48,2096420635,-218.12375,-55.996628,77.79689,9.6841955,-4.6545334,-2.1534262,5.797406,-4.300126,4.606198,7.807304,-3.839577,-1.544887,2.04088,-0.123838,2.371106
49,2096437302,-218.11754,-55.93964,77.81267,9.7042,-4.677398,-2.152998,5.231919,-4.1901965,4.1683125,7.969041,-3.917534,-1.58077,2.128079,-0.193675,2.440578
50,2096453969,-218.09866,-55.874283,77.83331,9.72429,-4.702836,-2.1541843,4.8721604,-4.0530396,3.6827326,8.131112,-3.995915,-1.616673,2.209282,-0.261226,2.501957
51,2096470636,-218.06648,-55.79953,77.85893,9.743698,-4.7301545,-2.1576242,4.7652044,-3.8980405,3.1536288,8.293507,-4.074751,-1.652633,2.288702,-0.326193,2.554517
52,2096487303,-218.02971,-55.728004,77.89316,9.776038,-4.7723966,-2.1535149,4.1811895,-3.5580733,2.4806437,8.456441,-4.154291,-1.688525,2.358388,-0.385494,2.595861
53,2096503970,-217.98483,-55.656315,77.935486,9.818264,-4.826903,-2.1441393,3.304627,-3.0667965,1.6831806,8.620079,-4.234739,-1.724261,2.413465,-0.436607,2.623914
54,2096520637,-217.95126,-55.60014,77.96716,9.843088,-4.8608994,-2.1391144,2.849362,-2.673079,1.1586931,8.78413,-4.315754,-1.759913,2.460954,-0.481158,2.643226
55,2096537304,-217.9314,-55.56265,77.986984,9.849749,-4.8731265,-2.138008,2.7913716,-2.3752477,0.93117607,8.948292,-4.396973,-1.795546,2.507477,-0.520745,2.658746
56,2096553971,-217.9134,-55.53423,78.00363,9.849297,-4.8775725,-2.1376753,2.9136925,-2.0736473,0.8236702,9.112447,-4.478266,-1.831174,2.556039,-0.555306,2.672474
57,2096570638,-217.90273,-55.519943,78.01204,9.834634,-4.865634,-2.1403494,3.3891811,-1.8284793,0.9441179,9.276358,-4.55936,-1.866846,2.612525,-0.585781,2.688209
58,2096587305,-217.89001,-55.51402,78.024445,9.825353,-4.8600264,-2.137764,3.6103978,-1.446682,1.0333576,9.440114,-4.64036,-1.902475,2.672698,-0.609892,2.705432
59,2096603972,-217.87424,-55.516205,78.04158,9.822488,-4.862051,-2.1294394,3.5513897,-0.9146643,1.0777018,9.603822,-4.721394,-1.937966,2.731888,-0.625136,2.723394
60,2096620639,-217.86469,-55.53421,78.0529,9.810202,-4.8530116,-2.1212673,3.6582034,-0.37699884,1.3009899,9.767325,-4.802278,-1.97332,2.792858,-0.631419,2.745077
61,2096637306,-217.85938,-55.5673,78.06096,9.792627,-4.8377066,-2.1113596,3.7993698,0.2106145,1.650665,9.930535,-4.882906,-2.008509,2.856181,-0.627909,2.772588
62,2096653973,-217.8464,-55.584312,78.0695,9.780751,-4.828723,-2.1036034,3.8696198,0.620827,1.8634652,10.093548,-4.963385,-2.043569,2.920675,-0.617562,2.803646
63,2096670640,-217.82594,-55.583775,78.07741,9.773664,-4.824905,-2.098956,3.907164,0.81554186,1.9445276,10.256442,-5.0438,-2.078552,2.985794,-0.60397,2.836055
64,2096687307,-217.80241,-55.580444,78.0845,9.768915,-4.8234572,-2.0941868,3.86909,0.93377185,1.9858493,10.419257,-5.124191,-2.113455,3.050279,-0.588407,2.869152
65,2096703974,-217.77289,-55.566208,78.09129,9.769005,-4.8271885,-2.0905142,3.737174,0.9063107,1.9235046,10.582074,-5.204644,-2.148297,3.112565,-0.573302,2.90121
66,2096720641,-217.74666,-55.561745,78.09285,9.763402,-4.8238955,-2.0870647,3.6859295,0.8303452,1.9716094,10.744797,-5.285042,-2.183081,3.173997,-0.559463,2.93407
67,2096737308,-217.72426,-55.56864,78.08882,9.7517185,-4.8130856,-2.083578,3.712637,0.7136818,2.1418068,10.907326,-5.36526,-2.217807,3.235874,-0.547568,2.969767
68,2096753975,-217.69878,-55.569786,78.081924,9.741219,-4.8030543,-2.0815768,3.7160645,0.4443895,2.2750125,11.06968,-5.445311,-2.2525,3.297808,-0.540162,3.007684
69,2096770642,-217.67221,-55.569748,78.07086,9.729587,-4.7910786,-2.0808787,3.7323947,0.03949946,2.4186609,11.23184,-5.525162,-2.287181,3.360015,-0.539504,3.047995
70,2096787309,-217.64754,-55.57029,78.05934,9.721897,-4.784579,-2.0795827,3.7180347,-0.17087632,2.5563586,11.393872,-5.604905,-2.321841,3.421982,-0.542352,3.090601
71,2096803976,-217.62436,-55.569473,78.047714,9.719374,-4.785073,-2.0778017,3.66059,-0.17410952,2.6693463,11.555862,-5.684656,-2.356471,3.482992,-0.545254,3.13509
72,2096820643,-217.6027,-55.569588,78.03317,9.717954,-4.787059,-2.0763884,3.606967,-0.119333565,2.7992096,11.717828,-5.76444,-2.391077,3.543108,-0.547243,3.181743
73,2096837310,-217.58327,-55.57045,78.016556,9.719233,-4.792793,-2.0749512,3.5443506,0.07876122,2.9371092,11.879815,-5.84432,-2.42566,3.602181,-0.54593,3.230695
74,2096853977,-217.5627,-55.566822,77.996185,9.722106,-4.8000126,-2.074996,3.4693074,0.19564822,3.0534673,12.04185,-5.92432,-2.460243,3.660003,-0.542669,3.281586
75,2096870644,-217.54109,-55.558624,77.97157,9.726287,-4.808299,-2.0766969,3.3867726,0.21558538,3.15101,12.203955,-6.004458,-2.494855,3.716449,-0.539076,3.334103
76,2096887311,-217.52069,-55.548073,77.944244,9.733772,-4.820792,-2.079049,3.2880108,0.32220235,3.2358177,12.366185,-6.084805,-2.529506,3.771249,-0.533706,3.388033
77,2096903978,-217.50081,-55.533867,77.913666,9.744364,-4.8370457,-2.0824547,3.1733847,0.4663138,3.301361,12.528591,-6.165422,-2.564214,3.824139,-0.525934,3.443056
78,2096920645,-217.4775,-55.525566,77.88699,9.751861,-4.8465214,-2.0848007,3.1382632,0.56076294,3.3612852,12.691122,-6.246197,-2.598961,3.876443,-0.516588,3.499077
79,2096937312,-217.45065,-55.524025,77.86505,9.756059,-4.8487406,-2.085824,3.1904445,0.6193538,3.4151034,12.853723,-6.327009,-2.633725,3.929617,-0.506265,3.555995
80,2096953979,-217.42165,-55.523598,77.84404,9.759861,-4.848482,-2.0868626,3.2854612,0.649586,3.4503562,13.016387,-6.407817,-2.668506,3.984375,-0.495439,3.613501
81,2096970646,-217.38947,-55.526817,77.82594,9.761702,-4.842986,-2.087329,3.4499745,0.6333739,3.469014,13.179082,-6.488533,-2.703295,4.041875,-0.484883,3.671318
82,2096987313,-217.35707,-55.528496,77.80684,9.765722,-4.8391676,-2.0883026,3.6289513,0.66679436,3.4644897,13.341844,-6.569186,-2.7381,4.102358,-0.47377,3.729059
83,2097003980,-217.32455,-55.527996,77.78642,9.772264,-4.8374844,-2.089922,3.819808,0.7521621,3.4337091,13.504715,-6.649811,-2.772932,4.166021,-0.461234,3.786287
84,2097020647,-217.28949,-55.53,77.768524,9.77797,-4.8321385,-2.0911531,4.073878,0.82758296,3.3801565,13.667681,-6.730347,-2.807785,4.233919,-0.447441,3.842623
85,2097037314,-217.25241,-55.533283,77.752365,9.783781,-4.8246093,-2.092246,4.3807473,0.91414654,3.3006787,13.830744,-6.810757,-2.842656,4.306931,-0.432205,3.897634
86,2097053981,-217.22217,-55.533043,77.7303,9.787009,-4.820658,-2.0912075,4.4811025,0.9356197,3.2788372,13.993861,-6.891101,-2.877509,4.381616,-0.416611,3.952281
87,2097070648,-217.1992,-55.52939,77.70218,9.786985,-4.820115,-2.0876865,4.356607,0.878914,3.3222716,14.156977,-6.971436,-2.912304,4.454226,-0.401962,4.007652
88,2097087315,-217.17987,-55.52369,77.67113,9.78563,-4.821244,-2.0827827,4.123315,0.79544884,3.3882446,14.320071,-7.05179,-2.947017,4.522948,-0.388705,4.064123
89,2097103982,-217.16653,-55.514748,77.63518,9.782049,-4.8254547,-2.075861,3.7094364,0.6626208,3.500028,14.483105,-7.132214,-2.981615,4.584772,-0.377661,4.122457
90,2097120649,-217.15347,-55.506355,77.59985,9.776989,-4.8279305,-2.0678234,3.2790494,0.50875115,3.6078167,14.646055,-7.21268,-3.016079,4.639423,-0.369182,4.182587
91,2097137316,-217.14043,-55.4986,77.565475,9.770523,-4.8284845,-2.0586915,2.8398352,0.33769685,3.7081108,14.808897,-7.293155,-3.050391,4.686754,-0.363554,4.244389
92,2097153983,-217.13243,-55.488552,77.52765,9.761429,-4.8307004,-2.0474124,2.2461205,0.11522338,3.8461494,14.971587,-7.373667,-3.084515,4.724189,-0.361634,4.308491
93,2097170650,-217.1284,-55.47697,77.487595,9.749792,-4.8335524,-2.0341125,1.5300516,-0.15308231,4.011681,15.134084,-7.454226,-3.118417,4.74969,-0.364185,4.375352
94,2097187317,-217.1176,-55.458862,77.45775,9.742016,-4.8379326,-2.0257778,1.2376182,-0.41046673,4.1153874,15.296451,-7.534858,-3.15218,4.770317,-0.371026,4.443942
95,2097203984,-217.09966,-55.433323,77.43884,9.73847,-4.844344,-2.0229015,1.4028118,-0.65733486,4.1547685,15.458759,-7.615597,-3.185895,4.793697,-0.381982,4.513188
96,2097220651,-217.07903,-55.403168,77.42587,9.736097,-4.8516703,-2.0222263,1.7880702,-0.91792995,4.1655803,15.621027,-7.696458,-3.219599,4.823498,-0.397281,4.582614
97,2097237318,-217.05286,-55.36679,77.42226,9.736597,-4.860287,-2.025662,2.5430849,-1.1787882,4.124531,15.783304,-7.777463,-3.25336,4.865883,-0.416927,4.651356
98,2097253985,-217.02878,-55.326214,77.419785,9.735858,-4.870632,-2.0288348,3.312367,-1.4821568,4.0952625,15.945568,-7.85864,-3.287174,4.921089,-0.44163,4.71961
99,2097270652,-217.00723,-55.28148,77.41826,9.733585,-4.8826737,-2.0314918,4.0795712,-1.8315296,4.0809655,16.107794,-7.940018,-3.321032,4.989082,-0.472155,4.787626
100,2097287319,-216.98193,-55.230053,77.424805,9.733274,-4.896574,-2.0374932,5.15452,-2.1952906,4.0298886,16.270015,-8.021628,-3.35499,5.074991,-0.508743,4.854791
101,2097303986,-216.95454,-55.172195,77.43791,9.734039,-4.912472,-2.0459547,6.4668684,-2.5834186,3.9553208,16.432249,-8.103503,-3.389089,5.182772,-0.5518,4.920713
102,2097320653,-216.91626,-55.121937,77.44003,9.73317,-4.9200907,-2.0540352,7.2659984,-2.7989693,3.9076972,16.594468,-8.185505,-3.423323,5.303872,-0.598449,4.985841
103,2097337320,-216.86534,-55.08016,77.43039,9.730848,-4.9184976,-2.0620093,7.520755,-2.8186467,3.8854055,16.756649,-8.26748,-3.45769,5.429218,-0.645426,5.050598
104,2097353987,-216.80695,-55.040253,77.41647,9.727771,-4.912669,-2.0706878,7.542221,-2.7420952,3.8733535,16.918779,-8.349358,-3.492201,5.554922,-0.691128,5.115154
105,2097370654,-216.73825,-55.00599,77.3936,9.72331,-4.8997073,-2.0794725,7.1306877,-2.5114548,3.8838372,17.080834,-8.43102,-3.526859,5.673767,-0.732986,5.179885
106,2097387321,-216.66258,-54.96839,77.374115,9.719928,-4.8856096,-2.0910864,6.806331,-2.2326875,3.8738956,17.242833,-8.512447,-3.56171,5.787206,-0.770197,5.24445
107,2097403988,-216.58003,-54.92687,77.3587,9.717723,-4.8706946,-2.105709,6.594692,-1.9106026,3.8418093,17.404795,-8.593625,-3.596805,5.897118,-0.80204,5.30848
108,2097420655,-216.4862,-54.88916,77.337234,9.714964,-4.8493776,-2.1215515,6.0627985,-1.4393423,3.8192582,17.566711,-8.674448,-3.632164,5.998165,-0.826029,5.372134
109,2097437322,-216.38148,-54.85337,77.312256,9.712193,-4.822816,-2.139267,5.317495,-0.83783895,3.7970276,17.728581,-8.754828,-3.667818,6.08679,-0.839993,5.435418
110,2097453989,-216.30548,-54.823345,77.294205,9.710937,-4.811163,-2.147914,4.823603,-0.43904477,3.7264118,17.89043,-8.835014,-3.703617,6.167183,-0.84731,5.497525
111,2097470656,-216.26126,-54.800537,77.28281,9.71118,-4.8156,-2.146245,4.569529,-0.25853187,3.6059575,18.052283,-8.915274,-3.739388,6.243342,-0.851619,5.557624
112,2097487323,-216.23016,-54.781986,77.27487,9.712601,-4.827304,-2.139902,4.4038157,-0.14829987,3.4520493,18.21416,-8.995729,-3.775053,6.316739,-0.854091,5.615158
113,2097503990,-216.22318,-54.769203,77.27292,9.7156105,-4.8517485,-2.1257172,4.439668,-0.1963383,3.2514467,18.376087,-9.076591,-3.810482,6.390733,-0.857363,5.669349
114,2097520657,-216.21596,-54.762096,77.26831,9.7189045,-4.8757315,-2.109601,4.2902646,-0.1781587,3.0402722,18.538069,-9.157853,-3.845642,6.462237,-0.860332,5.72002
115,2097537324,-216.20715,-54.760742,77.260666,9.722494,-4.898592,-2.0918808,3.9373007,-0.08000487,2.8192255,18.700111,-9.239496,-3.880507,6.527859,-0.861665,5.767007
116,2097553991,-216.21867,-54.766785,77.256454,9.727408,-4.9317303,-2.0667357,3.6672153,-0.08925396,2.5583563,18.862234,-9.321692,-3.914953,6.588979,-0.863153,5.809646
117,2097570658,-216.24559,-54.780487,77.25383,9.733412,-4.972486,-2.0352669,3.3956647,-0.1583727,2.2645128,19.024458,-9.404567,-3.948874,6.645573,-0.865793,5.847388
118,2097587325,-216.25362,-54.78869,77.25137,9.736082,-4.9963098,-2.0155663,3.1841683,-0.16401196,2.062807,19.186726,-9.487839,-3.982467,6.698642,-0.868527,5.881768
119,2097603992,-216.24258,-54.790657,77.249725,9.735121,-5.0023265,-2.0085077,3.0705261,-0.1183359,1.9616468,19.348978,-9.571211,-4.015942,6.749817,-0.870499,5.914462
120,2097620659,-216.22574,-54.793076,77.2482,9.732471,-5.0004587,-2.0061326,2.966617,-0.048541963,1.9062879,19.511186,-9.654552,-4.049378,6.799261,-0.871308,5.946233
121,2097637326,-216.19449,-54.792534,77.24664,9.726912,-4.984216,-2.0132484,2.8983204,0.07244778,1.9313288,19.673301,-9.737622,-4.082932,6.847566,-0.870101,5.978422
122,2097653993,-216.17482,-54.797455,77.24759,9.721312,-4.970911,-2.017704,2.9028196,0.124120116,1.9558766,19.835323,-9.820471,-4.11656,6.895946,-0.868032,6.01102
123,2097670660,-216.1682,-54.808605,77.25101,9.715804,-4.961367,-2.018794,2.975702,0.10131878,1.9763557,19.997253,-9.90316,-4.150207,6.945541,-0.866343,6.043959
124,2097687327,-216.15451,-54.818954,77.25554,9.707868,-4.9413233,-2.0267286,3.1237845,0.085152864,2.0639076,20.159051,-9.985515,-4.183986,6.997604,-0.864924,6.078357
125,2097703994,-216.13942,-54.83042,77.2617,9.698067,-4.914342,-2.0389676,3.3568811,0.048443794,2.2026982,20.320685,-10.067421,-4.217969,7.053552,-0.864117,6.115069
126,2097720661,-216.1341,-54.838486,77.26958,9.692787,-4.901646,-2.044464,3.4741373,-0.029785097,2.2440553,20.482231,-10.149115,-4.252043,7.111454,-0.864613,6.15247
127,2097737328,-216.13734,-54.841843,77.27905,9.6923065,-4.903485,-2.043466,3.4621866,-0.14466053,2.1834524,20.643769,-10.23084,-4.286101,7.169157,-0.867024,6.188861
128,2097753995,-216.14787,-54.84395,77.29057,9.6939535,-4.912155,-2.0395427,3.426231,-0.30694163,2.0816457,20.805335,-10.312709,-4.320093,7.226261,-0.87214,6.223555
129,2097770662,-216.16824,-54.84323,77.30417,9.699431,-4.933128,-2.029982,3.3135402,-0.5220956,1.8998413,20.966992,-10.394928,-4.353926,7.281487,-0.880842,6.255219
130,2097787329,-216.18697,-54.840633,77.31952,9.704344,-4.950292,-2.0238805,3.243979,-0.7592239,1.7442032,21.128731,-10.477433,-4.387657,7.335553,-0.893496,6.284289
131,2097803996,-216.20396,-54.836258,77.3367,9.708473,-4.962958,-2.0216403,3.2287302,-1.0210607,1.6203816,21.290539,-10.560149,-4.421351,7.389365,-0.910514,6.311295
132,2097820663,-216.22708,-54.828125,77.35597,9.715492,-4.98386,-2.01647,3.163922,-1.3288815,1.4422097,21.452464,-10.643213,-4.454959,7.442097,-0.932662,6.335332
133,2097837330,-216.25401,-54.816277,77.377304,9.724497,-5.0096455,-2.0103283,3.0764656,-1.6780124,1.2320603,21.614539,-10.726707,-4.488464,7.493371,-0.960629,6.355866
134,2097853997,-216.26146,-54.805676,77.39514,9.728403,-5.0215464,-2.0102134,3.1479716,-1.8800032,1.1594446,21.776679,-10.810399,-4.521968,7.545837,-0.991962,6.37519
135,2097870664,-216.24794,-54.796303,77.40895,9.726986,-5.0192604,-2.0160766,3.3838353,-1.9188898,1.2306403,21.938795,-10.894053,-4.555569,7.602234,-1.023943,6.395701
136,2097887331,-216.2227,-54.785637,77.42139,9.723005,-5.009396,-2.026,3.71736,-1.8809233,1.3808836,22.100845,-10.977543,-4.589336,7.66419,-1.055292,6.418716
137,2097903998,-216.17918,-54.774815,77.43089,9.714585,-4.987038,-2.0418143,4.19698,-1.7127569,1.6557056,22.262755,-11.06066,-4.623366,7.73414,-1.083838,6.446311
138,2097920665,-216.13286,-54.760216,77.440796,9.706806,-4.9664173,-2.0577621,4.693675,-1.5309961,1.9349775,22.424535,-11.143434,-4.657662,7.812368,-1.109355,6.478561
139,2097937332,-216.08417,-54.7414,77.451294,9.699887,-4.948035,-2.0737505,5.2033114,-1.3406973,2.2144098,22.5862,-11.225901,-4.692225,7.89909,-1.1317,6.515468
140,2097953999,-216.01941,-54.720997,77.45924,9.689662,-4.9205084,-2.0942802,5.8330607,-1.0356631,2.594142,22.747694,-11.307909,-4.72713,7.996308,-1.148961,6.558704
141,2097970666,-215.94139,-54.69805,77.4653,9.677166,-4.8867226,-2.1182299,6.5576043,-0.6381274,3.0504057,22.90898,-11.389354,-4.762434,8.105601,-1.159596,6.609544
142,2097987333,-215.88396,-54.684875,77.46901,9.671344,-4.8687057,-2.1309748,6.9304495,-0.3612898,3.3015914,23.070169,-11.470499,-4.79795,8.221108,-1.165617,6.664571
143,2098004000,-215.84839,-54.682915,77.46979,9.672548,-4.867197,-2.13163,6.921095,-0.21019554,3.3330722,23.231378,-11.551619,-4.833477,8.33646,-1.16912,6.720122
144,2098020667,-215.82028,-54.685623,77.468216,9.677236,-4.8736844,-2.1263666,6.7236404,-0.096579015,3.2626305,23.392665,-11.632847,-4.868916,8.448521,-1.17073,6.774499
145,2098037334,-215.8085,-54.696564,77.46391,9.687799,-4.89403,-2.1111584,6.214155,-0.07510775,3.0138965,23.554128,-11.714414,-4.904102,8.55209,-1.171982,6.824731
146,2098054001,-215.7894,-54.7091,77.45624,9.697945,-4.912382,-2.0957384,5.67997,0.008567572,2.7774453,23.71576,-11.796287,-4.939031,8.646756,-1.171839,6.871022
147,2098070668,-215.76154,-54.722813,77.44505,9.707411,-4.928095,-2.0805035,5.133067,0.16370288,2.56173,23.87755,-11.878422,-4.973706,8.732307,-1.169111,6.913717
148,2098087335,-215.74438,-54.74421,77.43022,9.721437,-4.9542065,-2.0570116,4.3194056,0.26727653,2.2044067,24.039574,-11.960992,-5.00799,8.804297,-1.164656,6.950457
149,2098104002,-215.7329,-54.772026,77.41142,9.738759,-4.9875093,-2.0271697,3.2946324,0.35272124,1.7435741,24.201887,-12.044117,-5.041776,8.859208,-1.158777,6.979517
150,2098120669,-215.72388,-54.793976,77.400024,9.749407,-5.008392,-2.007563,2.6391113,0.42632252,1.462003,24.364377,-12.12759,-5.075235,8.903193,-1.151672,7.003884
151,2098137336,-215.71945,-54.80987,77.39696,9.75309,-5.0166354,-1.9986339,2.3735495,0.47368437,1.3653415,24.526928,-12.211201,-5.108546,8.942752,-1.143777,7.02664
152,2098154003,-215.7179,-54.824852,77.396545,9.753713,-5.019462,-1.9936895,2.2567027,0.51444393,1.3436464,24.68949,-12.294859,-5.141774,8.980364,-1.135203,7.049034
153,2098170670,-215.71913,-54.835827,77.4019,9.748654,-5.0118375,-1.9970398,2.4410374,0.54571444,1.4699585,24.851968,-12.37839,-5.175058,9.021048,-1.126108,7.073533
154,2098187337,-215.73021,-54.8518,77.40631,9.745125,-5.0087094,-1.9966884,2.5182078,0.5323442,1.5354888,25.014387,-12.461868,-5.208336,9.063018,-1.117236,7.099124
155,2098204004,-215.7514,-54.87336,77.40924,9.743455,-5.0107617,-1.9919972,2.4663656,0.47391927,1.5297987,25.176778,-12.545381,-5.241536,9.104124,-1.109337,7.124621
156,2098220671,-215.77953,-54.89348,77.41684,9.737782,-5.0062428,-1.9926276,2.620204,0.3836453,1.6193727,25.339074,-12.628818,-5.274746,9.147794,-1.102943,7.151611
157,2098237338,-215.81635,-54.914158,77.427704,9.729592,-4.998298,-1.9960418,2.894089,0.25264427,1.760139,25.501234,-12.712123,-5.308013,9.196029,-1.098732,7.180947
158,2098254005,-215.84154,-54.931995,77.43559,9.725242,-4.992685,-1.9969296,3.032083,0.13624409,1.8387655,25.663321,-12.795334,-5.341295,9.246564,-1.096461,7.211593
159,2098270672,-215.85315,-54.94583,77.44075,9.724602,-4.9885235,-1.9959793,3.0519574,0.038764477,1.8647093,25.825398,-12.878476,-5.374561,9.29743,-1.095815,7.242671
160,2098287339,-215.86232,-54.958675,77.44531,9.725637,-4.9851856,-1.9940152,3.0186121,-0.07400006,1.8621185,25.987492,-12.961562,-5.407795,9.34774,-1.097048,7.273706
161,2098304006,-215.86348,-54.9693,77.44777,9.7299185,-4.983866,-1.9899101,2.8730733,-0.18798256,1.8050287,26.149657,-13.044626,-5.44096,9.395625,-1.100181,7.30379
162,2098320673,-215.86798,-54.977943,77.453445,9.732183,-4.978102,-1.9892812,2.8523707,-0.33366776,1.8029011,26.31186,-13.127594,-5.474115,9.443165,-1.105742,7.333838
163,2098337340,-215.87682,-54.984726,77.462616,9.732208,-4.967695,-1.9923253,2.9663043,-0.51557475,1.8594089,26.474063,-13.210389,-5.50732,9.492603,-1.114335,7.364828
164,2098354007,-215.87953,-54.988358,77.47153,9.733933,-4.956773,-1.9953728,3.0492806,-0.7074117,1.8989441,26.636295,-13.293002,-5.540576,9.543424,-1.126125,7.396477
165,2098370674,-215.87854,-54.988796,77.481384,9.736232,-4.9438863,-1.9996839,3.1536736,-0.91696054,1.9453543,26.798566,-13.3754,-5.573904,9.595985,-1.141408,7.4289
166,2098387341,-215.88324,-54.98938,77.48958,9.738003,-4.934978,-2.0030723,3.2170308,-1.0667534,1.9965007,26.960866,-13.45765,-5.607289,9.649602,-1.159187,7.462175
167,2098404008,-215.89313,-54.990074,77.49548,9.739586,-4.9309835,-2.0050077,3.2167566,-1.1460812,2.044707,27.123192,-13.539833,-5.640706,9.703215,-1.178288,7.496253
168,2098420675,-215.90529,-54.98909,77.501205,9.740723,-4.928016,-2.007474,3.2203379,-1.1971786,2.108234,27.285537,-13.621967,-5.674164,9.756887,-1.198241,7.53139
169,2098437342,-215.92181,-54.98716,77.50595,9.741219,-4.92781,-2.0098176,3.2067103,-1.1968946,2.1850793,27.447891,-13.704097,-5.707661,9.810332,-1.218189,7.567808
170,2098454009,-215.93468,-54.98185,77.510315,9.742734,-4.927937,-2.0124269,3.171029,-1.1847546,2.2573926,27.61027,-13.786229,-5.741201,9.863182,-1.237935,7.605431
171,2098470676,-215.94336,-54.972824,77.51445,9.745273,-4.9280868,-2.0154986,3.1186883,-1.162988,2.3269677,27.772691,-13.868364,-5.774793,9.91516,-1.257318,7.644214
172,2098487343,-215.9536,-54.961792,77.517395,9.747864,-4.931003,-2.01829,3.0331905,-1.0906541,2.4009955,27.935155,-13.950547,-5.808431,9.965713,-1.275496,7.684231
173,2098504010,-215.9636,-54.94809,77.51921,9.750868,-4.93619,-2.0209122,2.9135845,-0.9748418,2.4761357,28.097669,-14.032817,-5.842113,10.014273,-1.291743,7.7255
174,2098520677,-215.97311,-54.93905,77.52103,9.754339,-4.9384637,-2.0227818,2.8588095,-0.8944469,2.5391755,28.260241,-14.115125,-5.875826,10.06192,-1.30665,7.76782
175,2098537344,-215.98265,-54.935493,77.522705,9.758216,-4.9377613,-2.0237021,2.874123,-0.85024184,2.588951,28.422878,-14.197421,-5.909554,10.109822,-1.320821,7.810969
176,2098554011,-215.99092,-54.933434,77.5238,9.762747,-4.9362693,-2.0240116,2.9108894,-0.8081009,2.6291747,28.58559,-14.279692,-5.943288,10.158337,-1.334289,7.854789
177,2098570678,-215.99797,-54.93495,77.524506,9.767955,-4.932698,-2.0234733,2.9948328,-0.7874275,2.655702,28.748389,-14.361904,-5.977013,10.208251,-1.347413,7.899051
178,2098587345,-216.0052,-54.936073,77.52391,9.7735615,-4.930776,-2.0222845,3.0651298,-0.7300568,2.6787615,28.911282,-14.444084,-6.010718,10.259336,-1.359581,7.943697
179,2098604012,-216.01247,-54.93649,77.52188,9.779617,-4.9307613,-2.0204148,3.1167793,-0.63152343,2.6980305,29.074276,-14.526263,-6.044392,10.311282,-1.370106,7.988664
180,2098620679,-216.019,-54.94004,77.519,9.786301,-4.9297404,-2.0175176,3.2016935,-0.5364887,2.7043068,29.237381,-14.608425,-6.078017,10.364644,-1.379047,8.033736
181,2098637346,-216.02501,-54.94593,77.515015,9.793584,-4.928547,-2.0135827,3.306472,-0.43156642,2.69914,29.400607,-14.690567,-6.111577,10.419752,-1.38624,8.078722
182,2098654013,-216.03545,-54.95087,77.512695,9.796667,-4.928382,-2.0104642,3.3331819,-0.3822667,2.6385071,29.563885,-14.772707,-6.145085,10.475305,-1.392611,8.122697
183,2098670680,-216.0507,-54.95512,77.51233,9.795094,-4.929038,-2.0082483,3.278443,-0.40003031,2.5161626,29.727137,-14.854858,-6.178556,10.529946,-1.399278,8.164633
184,2098687347,-216.06863,-54.959797,77.512375,9.791105,-4.930547,-2.0060072,3.1791053,-0.44441217,2.3530974,29.890322,-14.937034,-6.211989,10.582931,-1.406685,8.203851
185,2098704014,-216.0906,-54.964203,77.51361,9.783326,-4.9331684,-2.0042114,3.008923,-0.5355496,2.1356225,30.053377,-15.019253,-6.245393,10.63308,-1.415611,8.239445
186,2098720681,-216.1135,-54.97133,77.51453,9.774595,-4.935514,-2.0016289,2.836883,-0.6460964,1.8854439,30.216287,-15.101512,-6.278753,10.680361,-1.426379,8.270869
187,2098737348,-216.1372,-54.981403,77.515,9.765028,-4.9375896,-1.9981427,2.665306,-0.77389437,1.6025943,30.379037,-15.183805,-6.312055,10.724783,-1.439277,8.297579
188,2098754015,-216.16457,-54.99245,77.516464,9.751955,-4.940306,-1.9947586,2.4365695,-0.95114416,1.2631006,30.54157,-15.266143,-6.345301,10.765392,-1.455129,8.318631
189,2098770682,-216.19493,-55.005203,77.518616,9.7359,-4.943382,-1.9911885,2.164225,-1.1731784,0.86997813,30.703835,-15.348533,-6.378487,10.801462,-1.474682,8.333131
190,2098787349,-216.21826,-55.012962,77.52641,9.725921,-4.940944,-1.9903817,2.064738,-1.3161757,0.6818156,30.865934,-15.430882,-6.41166,10.835874,-1.496618,8.344495
191,2098804016,-216.2339,-55.014908,77.54065,9.722504,-4.9324822,-1.9927535,2.1520479,-1.3736696,0.72022146,31.027976,-15.51309,-6.444873,10.871741,-1.519512,8.356499
192,2098820683,-216.2463,-55.014786,77.55875,9.7216625,-4.9205523,-1.9967189,2.3327742,-1.4023316,0.86440825,31.190004,-15.595099,-6.478152,10.910621,-1.542884,8.370906
193,2098837350,-216.25272,-55.010654,77.58226,9.725829,-4.903464,-2.0031676,2.6666484,-1.3693306,1.1870008,31.352101,-15.676823,-6.511538,10.955065,-1.565706,8.390689
194,2098854017,-216.25986,-55.006012,77.608734,9.728984,-4.884842,-2.0106378,3.0127196,-1.3559375,1.5310538,31.514251,-15.758237,-6.545049,11.005277,-1.588305,8.416207
195,2098870684,-216.268,-55.001125,77.63812,9.730798,-4.864791,-2.0190592,3.3649724,-1.367404,1.8889177,31.676431,-15.839317,-6.5787,11.06136,-1.611095,8.447689
196,2098887351,-216.27147,-54.99254,77.67314,9.736392,-4.839951,-2.0299835,3.8468833,-1.3350625,2.40383,31.838704,-15.919983,-6.612533,11.125475,-1.633346,8.487753
197,2098904018,-216.27158,-54.980934,77.71338,9.744529,-4.8109784,-2.0431638,4.430909,-1.2761467,3.0454526,32.001113,-16.000166,-6.646586,11.199323,-1.654615,8.538511
198,2098920685,-216.27203,-54.972885,77.73361,9.7508,-4.7977376,-2.0515904,4.7638383,-1.2134268,3.459899,32.163626,-16.080128,-6.680779,11.27872,-1.674839,8.596176
199,2098937352,-216.27237,-54.96849,77.73175,9.75547,-4.8017087,-2.054834,4.8279934,-1.1400394,3.6332998,32.326217,-16.160156,-6.715026,11.359187,-1.69384,8.656731
200,2098954019,-216.27173,-54.96504,77.719604,9.759843,-4.813898,-2.0560904,4.7732744,-1.05633,3.7151537,32.488881,-16.240388,-6.749294,11.438742,-1.711445,8.71865
201,2098970686,-216.27077,-54.964188,77.69008,9.762909,-4.839833,-2.0534625,4.5046024,-0.96560484,3.612195,32.651596,-16.321052,-6.783518,11.513819,-1.727538,8.778853
202,2098987353,-216.26578,-54.96118,77.658585,9.768613,-4.867063,-2.051474,4.260781,-0.8365775,3.5698473,32.814406,-16.40217,-6.817709,11.584832,-1.741481,8.83835
203,2099004020,-216.25652,-54.95572,77.6259,9.7771635,-4.8950014,-2.0503864,4.0534315,-0.66769475,3.6015124,32.977359,-16.483753,-6.851882,11.652389,-1.752609,8.898375
204,2099020687,-216.24536,-54.951553,77.57799,9.785798,-4.934782,-2.0462933,3.6802783,-0.47611588,3.5045402,33.140456,-16.565999,-6.885987,11.713727,-1.760544,8.956784
205,2099037354,-216.23141,-54.947636,77.51788,9.795411,-4.983974,-2.040121,3.1897964,-0.2540897,3.3303237,33.303713,-16.649065,-6.919989,11.76689,-1.764779,9.012289
206,2099054021,-216.22229,-54.944054,77.47455,9.799408,-5.012458,-2.0367775,2.9122734,-0.1106385,3.2637253,33.467036,-16.732606,-6.953935,11.815428,-1.766623,9.066684
207,2099070688,-216.21889,-54.941254,77.44873,9.796852,-5.0188465,-2.0362115,2.8531017,-0.05730903,3.2968092,33.630317,-16.816253,-6.987872,11.86298,-1.767578,9.121631
208,2099087355,-216.2169,-54.938477,77.42853,9.7915,-5.015901,-2.0366898,2.8869443,-0.036426187,3.3758178,33.793509,-16.899851,-7.021817,11.911096,-1.768185,9.177895
209,2099104022,-216.21855,-54.93588,77.42142,9.781395,-4.9955754,-2.0394258,3.098929,-0.078888774,3.5449536,33.956532,-16.983111,-7.055807,11.962745,-1.7695,9.236978
210,2099120689,-216.21991,-54.934357,77.40668,9.769673,-4.978411,-2.0405278,3.2427115,-0.12504393,3.6434827,34.11936,-17.066085,-7.089816,12.01679,-1.771584,9.297703
211,2099137356,-216.22066,-54.933884,77.38312,9.756553,-4.9654546,-2.0397964,3.306548,-0.17071378,3.6646128,34.281969,-17.148843,-7.123813,12.071899,-1.774429,9.35878
212,2099154023,-216.22469,-54.934208,77.36742,9.7386875,-4.9394627,-2.0401835,3.4860477,-0.27306896,3.7248392,34.44428,-17.231167,-7.157816,12.13,-1.77898,9.420861
213,2099170690,-216.23116,-54.93555,77.35516,9.71665,-4.904654,-2.0408416,3.7294044,-0.420286,3.7891874,34.606224,-17.312911,-7.19183,12.192157,-1.785985,9.484014
214,2099187357,-216.23454,-54.93441,77.33777,9.70239,-4.886864,-2.0358014,3.870709,-0.533034,3.8442764,34.76793,-17.394359,-7.22576,12.256669,-1.794869,9.548085
215,2099204024,-216.23486,-54.930496,77.31645,9.696532,-4.886365,-2.024785,3.9177103,-0.61226195,3.901173,34.929539,-17.475798,-7.259506,12.321964,-1.805073,9.613105
216,2099220691,-216.23431,-54.925644,77.29228,9.693714,-4.8936644,-2.0099964,3.9141607,-0.6888147,3.9413462,35.091101,-17.557359,-7.293006,12.3872,-1.816553,9.678794
217,2099237358,-216.23157,-54.9189,77.26346,9.697123,-4.9153876,-1.989788,3.820023,-0.7435934,3.9638348,35.25272,-17.639282,-7.326169,12.450867,-1.828946,9.744858
218,2099254025,-216.23094,-54.912247,77.2393,9.6988735,-4.9319396,-1.9683256,3.78297,-0.838548,4.0058227,35.414368,-17.721481,-7.358974,12.513916,-1.842922,9.811622
219,2099270692,-216.23271,-54.905853,77.22014,9.698498,-4.9424305,-1.945703,3.8080053,-0.97786516,4.0658956,35.57601,-17.803855,-7.391402,12.577383,-1.85922,9.879387
220,2099287359,-216.23364,-54.897903,77.19989,9.702675,-4.9622912,-1.918356,3.7880516,-1.1153224,4.125045,35.737721,-17.88656,-7.423375,12.640517,-1.877809,9.948138
221,2099304026,-216.23473,-54.888817,77.18062,9.709759,-4.987404,-1.8870635,3.7545571,-1.2650623,4.1909013,35.89955,-17.969683,-7.454826,12.703093,-1.898893,10.017986
222,2099320693,-216.22063,-54.86354,77.154724,9.705767,-5.001772,-1.869832,3.878765,-1.4990652,4.39772,36.061313,-18.053046,-7.48599,12.767739,-1.923877,10.091281
223,2099337360,-216.18947,-54.820274,77.120865,9.690173,-5.0056896,-1.8679638,4.1664066,-1.8200221,4.7582717,36.222816,-18.136474,-7.517123,12.837179,-1.954211,10.170586
224,2099354027,-216.14914,-54.766304,77.08423,9.668486,-5.003943,-1.8734474,4.5591993,-2.2047074,5.215572,36.383957,-18.219873,-7.548347,12.913166,-1.990956,10.257512
225,2099370694,-216.0951,-54.697132,77.04259,9.6369705,-4.992513,-1.8912945,5.103933,-2.673123,5.80908,36.544573,-18.303082,-7.579869,12.998232,-2.035508,10.35433
226,2099387361,-216.03534,-54.62089,76.99881,9.605446,-4.984725,-1.9100857,5.674358,-3.173464,6.4564896,36.704664,-18.386161,-7.611704,13.092805,-2.088399,10.461938
227,2099404028,-215.97026,-54.537815,76.953354,9.57431,-4.9810133,-1.9293103,6.2680674,-3.7054107,7.156424,36.864236,-18.469178,-7.643859,13.197273,-2.150156,10.581212
228,2099420695,-215.89165,-54.439682,76.90274,9.535398,-4.9712963,-1.9591393,6.990306,-4.3132215,7.9867268,37.023159,-18.552033,-7.676511,13.313778,-2.222043,10.714324
229,2099437362,-215.80093,-54.327847,76.84758,9.49068,-4.958339,-1.9973507,7.817242,-4.9876475,8.933332,37.181337,-18.634672,-7.7098,13.444065,-2.30517,10.863213
230,2099454029,-215.71793,-54.200813,76.79721,9.451993,-4.961509,-2.008812,8.375295,-5.7342668,9.687389,37.33887,-18.717364,-7.74328,13.583653,-2.400741,11.024669
231,2099470696,-215.64319,-54.056892,76.752014,9.419405,-4.9815655,-1.9914699,8.641855,-6.560785,10.230876,37.49586,-18.80039,-7.776471,13.727684,-2.510087,11.195184
232,2099487363,-215.56798,-53.897247,76.707855,9.388563,-5.011277,-1.9605498,8.778692,-7.460205,10.702787,37.652336,-18.883911,-7.809147,13.873996,-2.634424,11.373564
233,2099504030,-215.49734,-53.72067,76.667114,9.36247,-5.055898,-1.906486,8.683587,-8.437342,11.019798,37.808377,-18.968176,-7.840922,14.018722,-2.775046,11.557227
234,2099520697,-215.41733,-53.525238,76.62358,9.332001,-5.1015697,-1.8524194,8.603153,-9.503658,11.384933,37.96391,-19.053202,-7.871796,14.162108,-2.93344,11.746976
235,2099537364,-215.32695,-53.310318,76.57681,9.296712,-5.1478643,-1.7994561,8.54885,-10.66147,11.809764,38.118855,-19.139,-7.901787,14.304589,-3.111131,11.943805
236,2099554031,-215.23737,-53.075294,76.53198,9.263694,-5.2063775,-1.7276239,8.307357,-11.911371,12.120537,38.27325,-19.225773,-7.930581,14.443045,-3.309654,12.145814
237,2099570698,-215.14546,-52.819138,76.48776,9.231,-5.27441,-1.6415548,7.927785,-13.258179,12.359132,38.4271,-19.31368,-7.95794,14.575175,-3.530624,12.3518
238,2099587365,-215.06425,-52.540787,76.441635,9.1836405,-5.32325,-1.595645,7.5934944,-14.41972,12.893443,38.580161,-19.402401,-7.984534,14.701733,-3.770953,12.566691
239,2099604032,-214.99641,-52.239338,76.39392,9.120933,-5.3516383,-1.5925798,7.29201,-15.369969,13.736976,38.732177,-19.491595,-8.011077,14.823266,-4.027119,12.795641
240,2099620699,-214.9337,-51.91393,76.345,9.048574,-5.3714676,-1.6096163,6.965811,-16.246832,14.743289,38.882987,-19.581119,-8.037904,14.939363,-4.2979,13.041362
241,2099637366,-214.8803,-51.563606,76.2943,8.962466,-5.375058,-1.6614308,6.6555943,-16.970663,16.010218,39.032361,-19.670703,-8.065595,15.05029,-4.580744,13.308199
242,2099654033,-214.83145,-51.187805,76.244705,8.873049,-5.38232,-1.711132,6.1944413,-17.707014,17.279135,39.180245,-19.760408,-8.094114,15.153531,-4.875861,13.596185
243,2099670700,-214.78696,-50.785637,76.196304,8.780626,-5.3942037,-1.75703,5.5716567,-18.465015,18.538723,39.326589,-19.850311,-8.123398,15.246392,-5.183611,13.905164
244,2099687367,-214.75305,-50.356003,76.14728,8.676317,-5.394084,-1.830409,4.9012585,-19.090992,20.003386,39.471194,-19.940212,-8.153905,15.32808,-5.501794,14.238554
245,2099704034,-214.7291,-49.898075,76.09828,8.562121,-5.386027,-1.923842,4.143893,-19.617142,21.620626,39.613896,-20.029979,-8.185969,15.397145,-5.828746,14.598898
246,2099720701,-214.68948,-49.44348,75.99243,8.45905,-5.373013,-1.9809103,3.6340199,-19.845146,23.369076,39.75488,-20.119529,-8.218984,15.457712,-6.159498,14.988383
247,2099737368,-214.63287,-48.99465,75.823715,8.367928,-5.353044,-2.0002742,3.4151382,-19.730236,25.27626,39.894345,-20.208746,-8.252322,15.514631,-6.488335,15.409654
248,2099754035,-214.57141,-48.535553,75.61923,8.2800255,-5.3272076,-2.0039182,3.300066,-19.381954,27.320314,40.032345,-20.297533,-8.285721,15.569632,-6.811368,15.864993
249,2099770702,-214.49832,-48.074764,75.36241,8.200907,-5.2954993,-1.9771609,3.3864303,-18.731844,29.506279,40.169027,-20.385791,-8.318674,15.626073,-7.123565,16.356764
250,2099787369,-214.43065,-47.592735,75.0854,8.115837,-5.2515364,-1.9612594,3.506668,-17.847696,31.907303,40.304291,-20.473317,-8.351362,15.684517,-7.421027,16.888552
251,2099804036,-214.36957,-47.08796,74.789444,8.024057,-5.1948705,-1.9581971,3.648665,-16.726137,34.52891,40.438025,-20.559898,-8.383999,15.745328,-7.699796,17.464034
252,2099820703,-214.30103,-46.577553,74.44322,7.937727,-5.128263,-1.9347897,3.9838939,-15.264454,37.344738,40.57032,-20.645369,-8.416245,15.811726,-7.954204,18.086446
253,2099837370,-214.22874,-46.05733,74.052505,7.8537836,-5.049951,-1.8996587,4.480546,-13.466035,40.375988,40.701216,-20.729535,-8.447906,15.886402,-8.178638,18.759379
254,2099854037,-214.2027,-45.48653,73.60039,7.7321267,-4.980845,-1.8795443,3.9742513,-12.422652,43.688293,40.830085,-20.812549,-8.479232,15.95264,-8.385682,19.487517
255,2099870704,-214.22626,-44.863308,73.079605,7.570259,-4.922847,-1.8728876,2.3745992,-12.219625,47.293358,40.956256,-20.894596,-8.510447,15.992217,-8.589342,20.27574
256,2099887371,-214.27856,-44.204056,72.50047,7.3850017,-4.864476,-1.8727369,0.21136189,-12.335467,51.182014,41.079339,-20.975671,-8.541659,15.99574,-8.794933,21.128774
257,2099904038,-214.37354,-43.49777,71.85547,7.1652627,-4.8114257,-1.8853903,-2.8408375,-13.071815,55.37938,41.19876,-21.055861,-8.573082,15.948393,-9.012797,22.051764
258,2099920705,-214.47905,-42.772236,71.14415,6.9373245,-4.75179,-1.8865132,-6.0641184,-13.758541,59.850315,41.314382,-21.135058,-8.604524,15.847324,-9.242106,23.049269
259,2099937372,-214.59409,-42.028564,70.36476,6.7021747,-4.684454,-1.8751707,-9.425593,-14.356232,64.6035,41.426085,-21.213132,-8.635777,15.690231,-9.481377,24.125994
260,2099954039,-214.74728,-41.24317,69.50897,6.436778,-4.620216,-1.8686528,-13.574292,-15.464734,69.68492,41.533365,-21.290136,-8.666921,15.463993,-9.739123,25.287409
261,2099970706,-214.93259,-40.421562,68.57446,6.146195,-4.55647,-1.8616619,-18.371687,-16.949062,75.095535,41.635802,-21.366077,-8.697949,15.157798,-10.021607,26.539001
262,2099987373,-215.16382,-39.56202,67.71048,5.9181566,-4.506681,-1.9027896,-21.342516,-18.512615,78.482216,41.734438,-21.441188,-8.729662,14.802089,-10.330151,27.847038
263,2100004040,-215.44696,-38.660934,66.92865,5.7581577,-4.4737277,-1.9988256,-22.33368,-20.214466,79.61661,41.830407,-21.51575,-8.762976,14.429861,-10.667059,29.173981
264,2100020707,-215.77249,-37.722267,66.155045,5.6279125,-4.449657,-2.1232758,-22.429174,-22.11619,79.60776,41.924206,-21.589911,-8.798364,14.056041,-11.035662,30.500777
265,2100037374,-216.14647,-36.744144,65.430435,5.5514755,-4.43895,-2.290681,-20.95199,-24.168335,77.77902,42.016731,-21.663894,-8.836542,13.706841,-11.438468,31.797094
266,2100054041,-216.56989,-35.720623,64.66356,5.471679,-4.436645,-2.477624,-19.513561,-26.71187,75.50286,42.107926,-21.737838,-8.877836,13.381615,-11.883666,33.055475
267,2100070708,-217.04398,-34.650963,63.84805,5.3858624,-4.442685,-2.6828594,-18.190905,-29.77369,72.835464,42.19769,-21.811883,-8.92255,13.078433,-12.379894,34.269399
268,2100087375,-217.57483,-33.535683,63.064915,5.3438234,-4.463926,-2.931467,-15.582547,-33.157734,68.47694,42.286754,-21.886282,-8.971408,12.818724,-12.932523,35.410681
269,2100104042,-218.16432,-32.372665,62.295124,5.3342285,-4.4998536,-3.21941,-12.009393,-36.952602,62.67967,42.375658,-21.96128,-9.025065,12.618567,-13.5484,36.455342
270,2100120709,-218.6251,-31.304647,61.6318,5.3246593,-4.4961133,-3.3960485,-9.619544,-39.461433,58.181015,42.464402,-22.036215,-9.081666,12.458241,-14.206091,37.425026
271,2100137376,-218.9407,-30.34522,61.096127,5.319175,-4.4487395,-3.4505577,-8.427229,-40.50627,55.044342,42.553055,-22.110361,-9.139175,12.317787,-14.881196,38.342432
272,2100154043,-219.20192,-29.425188,60.633068,5.326497,-4.3835044,-3.4520369,-7.611935,-40.958786,52.106007,42.64183,-22.183419,-9.196709,12.190921,-15.563842,39.210865
273,2100170710,-219.35622,-28.585152,60.27429,5.3402166,-4.285516,-3.3589506,-7.7151313,-40.33489,50.062447,42.730834,-22.254844,-9.252692,12.062335,-16.23609,40.045239
274,2100187377,-219.51512,-27.742165,59.988583,5.393429,-4.188588,-3.2656956,-7.1007113,-39.580242,46.93799,42.820724,-22.324654,-9.30712,11.94399,-16.895761,40.827539
275,2100204044,-219.68488,-26.892046,59.776295,5.488521,-4.09476,-3.1771984,-5.6793923,-38.75261,42.60271,42.912199,-22.3929,-9.360073,11.849333,-17.541638,41.537584
276,2100220711,-219.76315,-26.112684,59.68442,5.604698,-3.9741263,-3.0096626,-4.7207007,-36.947254,38.622555,43.005611,-22.459135,-9.410234,11.770655,-18.157426,42.181293
277,2100237378,-219.77179,-25.388294,59.71066,5.750177,-3.8335795,-2.7818584,-3.8699837,-34.347183,34.56201,43.101447,-22.523028,-9.456598,11.706155,-18.729879,42.757327
278,2100254045,-219.85286,-24.597225,59.59376,5.7878313,-3.7686188,-2.6134014,-3.144637,-33.210323,32.241398,43.197911,-22.585838,-9.500155,11.653744,-19.283384,43.294684
279,2100270712,-220.00497,-23.739635,59.31873,5.702505,-3.7847037,-2.504014,-2.6964755,-33.622128,32.033333,43.292953,-22.648916,-9.541889,11.608803,-19.843753,43.828573
280,2100287379,-220.17358,-22.864527,59.011776,5.565186,-3.8412385,-2.408348,-2.2745776,-34.6197,32.78603,43.385706,-22.712937,-9.582028,11.570893,-20.420748,44.375007
281,2100304046,-220.39311,-21.942162,58.603878,5.3364186,-3.9642854,-2.356017,-1.9282695,-36.794952,35.084446,43.474646,-22.779008,-9.621295,11.538755,-21.033997,44.959748
282,2100320713,-220.5523,-21.065828,58.264233,5.0911055,-4.0907974,-2.2542553,-1.97253,-38.58663,38.276173,43.559498,-22.847188,-9.658866,11.505879,-21.677108,45.597684
283,2100337380,-220.64398,-20.241932,58.005604,4.833686,-4.2180037,-2.0976582,-2.4044542,-39.905235,42.32147,43.640059,-22.917488,-9.693827,11.465805,-22.342195,46.303042
284,2100354047,-220.75157,-19.399862,57.685184,4.4912996,-4.4004073,-1.956934,-3.1261973,-42.036148,48.100117,43.714914,-22.990828,-9.726443,11.413702,-23.042797,47.104711
285,2100370714,-220.8499,-18.560827,57.339863,4.0781927,-4.6255364,-1.8115988,-4.216726,-44.649555,55.52376,43.782884,-23.06792,-9.756636,11.343423,-23.786956,48.030107
286,2100387381,-221.0751,-17.522184,56.832836,3.6463323,-4.752029,-1.6067562,-4.536174,-47.660316,62.194675,43.843656,-23.14712,-9.783415,11.26782,-24.581295,49.066685
287,2100404048,-221.4499,-16.255644,56.131557,3.188942,-4.773394,-1.3446727,-3.9846487,-51.228294,68.06085,43.896805,-23.226677,-9.805826,11.201409,-25.4351,50.201033
288,2100420715,-221.89241,-14.871384,55.324406,2.6885731,-4.7486224,-1.036572,-3.1706781,-55.181007,74.258316,43.941615,-23.305821,-9.823102,11.148564,-26.354783,51.438672
289,2100437382,-222.44424,-13.308699,54.365192,2.154809,-4.639825,-0.66854954,-1.7835575,-59.552803,80.197136,43.977528,-23.383151,-9.834244,11.118838,-27.34733,52.775291
290,2100454049,-223.04703,-11.667088,53.29598,1.5358348,-4.543859,-0.28947735,-0.46936953,-64.736305,87.56566,44.003125,-23.458882,-9.839069,11.111015,-28.426268,54.234719
291,2100470716,-223.69658,-9.951803,52.11804,0.8265734,-4.4653473,0.100290775,0.716349,-70.75045,96.517746,44.016901,-23.533304,-9.837397,11.122954,-29.605442,55.843348
292,2100487383,-224.46033,-8.057304,50.7654,0.05845356,-4.3228903,0.5374479,2.3630502,-77.45656,105.74145,44.017875,-23.605352,-9.82844,11.162338,-30.896385,57.605705
293,2100504050,-225.32835,-6.0008717,49.241688,-0.78229094,-4.1361938,1.0124927,4.332647,-84.96291,115.636284,44.004837,-23.674289,-9.811565,11.234549,-32.312434,59.532976
294,2100520717,-226.21323,-3.9527626,47.913715,-1.3975124,-4.0752373,1.3242426,3.7279496,-91.870384,120.27276,43.981545,-23.74221,-9.789494,11.296681,-33.843607,61.537522
295,2100537384,-227.11902,-1.9109802,46.802837,-1.755784,-4.1461163,1.4568548,0.33491647,-98.05864,118.90712,43.952282,-23.811312,-9.765213,11.302263,-35.477918,63.519307
296,2100554051,-228.08397,0.19821167,45.732746,-2.0086899,-4.2812853,1.4986095,-4.577358,-104.28922,114.61096,43.918804,-23.882667,-9.740236,11.225974,-37.216072,65.42949
297,2100570718,-229.0893,2.3349495,44.800594,-2.0708437,-4.5258946,1.3926411,-11.820017,-110.18413,105.630005,43.88429,-23.958099,-9.717025,11.028974,-39.052474,67.18999
298,2100587385,-230.20702,4.631054,43.770267,-2.109065,-4.7596674,1.2652383,-19.580729,-116.54833,95.07672,43.849139,-24.037427,-9.695938,10.702629,-40.994946,68.774602
299,2100604052,-231.44473,7.0981407,42.624363,-2.1329346,-4.9772906,1.1210213,-27.789143,-123.45732,83.09904,43.81359,-24.120382,-9.677254,10.239477,-43.052568,70.159586
300,2100620719,-232.75359,9.639889,41.563274,-1.9825354,-5.2781157,0.8455658,-38.07896,-130.18831,66.534386,43.780548,-24.208351,-9.663161,9.604828,-45.222373,71.268492
301,2100637386,-234.15222,12.2881775,40.535885,-1.6897736,-5.63765,0.4625659,-50.106747,-136.91852,45.93471,43.752385,-24.302312,-9.655452,8.769716,-47.504348,72.034071
302,2100654053,-235.0802,14.677792,39.974735,-1.4872332,-5.734803,0.0833869,-55.82859,-139.00752,31.401674,43.727598,-24.397892,-9.654062,7.839239,-49.82114,72.557432
303,2100670720,-235.47699,16.762825,39.950657,-1.3725934,-5.5502024,-0.2989049,-54.67604,-135.87935,23.408804,43.704721,-24.490395,-9.659044,6.927972,-52.085796,72.947579
304,2100687387,-235.62053,18.738976,40.22807,-1.2528677,-5.21896,-0.7245488,-50.233505,-129.81767,17.447449,43.68384,-24.577378,-9.67112,6.090747,-54.249424,73.23837
305,2100704054,-235.34842,20.499138,40.94219,-1.1839223,-4.652663,-1.1692863,-40.271717,-119.434425,16.184881,43.664108,-24.654922,-9.690608,5.419552,-56.239998,73.508118
306,2100720721,-234.97398,22.233166,41.897144,-0.9844408,-4.063117,-1.7323766,-29.894823,-107.20326,12.822003,43.647701,-24.722641,-9.719481,4.921305,-58.026719,73.721818
307,2100737388,-234.51205,23.952335,43.08697,-0.64141226,-3.458738,-2.421814,-19.336891,-93.20177,6.936247,43.637011,-24.780287,-9.759845,4.599023,-59.580082,73.837422
308,2100754055,-233.65884,25.464699,44.737614,-0.28979397,-2.65508,-3.170497,-4.067612,-74.90421,4.2020407,43.632181,-24.824538,-9.812687,4.531229,-60.828486,73.907456
309,2100770722,-232.47202,26.805302,46.82014,0.11227703,-1.6933514,-4.0028257,14.915463,-52.725452,3.1764045,43.634052,-24.852761,-9.879401,4.77982,-61.707244,73.960396
310,2100787389,-231.85419,27.830345,47.82301,0.27334118,-1.0212286,-4.4222174,28.228813,-35.50428,2.7600844,43.638608,-24.869781,-9.953105,5.2503,-62.298982,74.006397
311,2100804056,-231.84656,28.491653,47.63727,0.14998579,-0.65690047,-4.373005,35.598686,-23.681597,3.5905285,43.641108,-24.880729,-10.025988,5.843611,-62.693675,74.066239
312,2100820723,-232.05315,28.87156,46.967106,-0.09035158,-0.413783,-4.1071844,40.865936,-13.259011,5.2540765,43.639602,-24.887625,-10.094441,6.52471,-62.914659,74.153807
313,2100837390,-232.7127,28.91227,45.397205,-0.5350909,-0.41061887,-3.4806652,41.589596,-6.576871,7.6967306,43.630684,-24.894469,-10.152452,7.21787,-63.024274,74.282086
314,2100854057,-233.21367,28.636444,43.873333,-1.0477257,-0.33609277,-2.7652512,44.48335,2.274868,13.054292,43.613222,-24.900071,-10.19854,7.959259,-62.98636,74.499658
315,2100870724,-233.51993,28.034317,42.448643,-1.6190548,-0.17433947,-1.9749207,49.91175,13.6719675,21.428995,43.586238,-24.902977,-10.231455,8.791122,-62.758494,74.856808
316,2100887391,-234.14174,27.032047,40.286083,-2.3971586,-0.18345308,-0.8433213,52.4419,22.662743,31.822037,43.546285,-24.906035,-10.24551,9.665154,-62.380782,75.387175
317,2100904058,-234.95032,25.62017,37.57622,-3.3577318,-0.299016,0.5793128,53.494984,30.503317,44.786034,43.490323,-24.911019,-10.235855,10.556737,-61.872393,76.133609
318,2100920725,-235.51701,24.740292,35.56696,-3.9283237,-0.37787282,1.4563928,54.534164,36.156128,52.206795,43.424851,-24.917317,-10.211582,11.46564,-61.269791,77.003722
319,2100937392,-235.8658,24.46276,34.262905,-4.0772943,-0.4402753,1.7472868,55.012142,38.85794,53.288597,43.356896,-24.924655,-10.182461,12.382509,-60.622159,77.891865
320,2100954059,-236.11517,24.324493,33.19044,-4.063572,-0.51296204,1.8205309,55.17073,39.90089,52.332943,43.28917,-24.933204,-10.152119,13.302021,-59.957144,78.764081
321,2100970726,-236.16473,24.581844,32.662518,-3.7339344,-0.56708336,1.4537144,55.19879,38.749153,47.076233,43.226938,-24.942655,-10.12789,14.222001,-59.311325,79.548685
322,2100987393,-236.39699,24.65287,31.7261,-3.4629297,-0.7558348,1.2085342,52.810154,34.684406,42.059696,43.169223,-24.955252,-10.107748,15.10217,-58.733252,80.24968
323,2101004060,-236.82845,24.4971,30.328815,-3.2729597,-1.086969,1.1175523,47.919918,27.654728,37.63074,43.114674,-24.973368,-10.089122,15.900835,-58.27234,80.876859
324,2101020727,-237.18697,24.626965,29.207325,-2.8447132,-1.4635283,0.70880127,41.743702,17.423824,29.541237,43.067262,-24.99776,-10.077309,16.596563,-57.981943,81.369213
325,2101037394,-237.55672,24.920547,28.1544,-2.256198,-1.9216344,0.099731445,33.725086,3.711456,18.722809,43.029659,-25.029787,-10.075647,17.158648,-57.920085,81.68126
326,2101054061,-237.84747,24.981365,27.24368,-1.9326286,-2.1822815,-0.21054125,27.716957,-4.558586,11.999472,42.997449,-25.066158,-10.079156,17.620597,-57.996061,81.881251
327,2101070728,-238.02228,24.841084,26.568943,-1.8736515,-2.210489,-0.23465824,24.135918,-6.696317,9.428343,42.966221,-25.102999,-10.083067,18.022862,-58.107666,82.03839
328,2101087395,-238.18417,24.610378,25.95319,-1.9288177,-2.165685,-0.13218117,20.701551,-7.235111,8.350535,42.934074,-25.139094,-10.08527,18.367888,-58.228251,82.177566
329,2101104062,-238.30121,24.201797,25.442844,-2.2053995,-1.9676636,0.21878052,18.472773,-3.7557385,10.483536,42.897317,-25.171888,-10.081624,18.675768,-58.290847,82.352292
330,2101120729,-238.35767,23.980885,25.183315,-2.3728857,-1.7562603,0.40441465,15.450588,-1.6378324,10.742321,42.857769,-25.201159,-10.074884,18.933278,-58.318144,82.531331
331,2101137396,-238.36093,23.967926,25.170658,-2.4161835,-1.5432723,0.40627146,11.412143,-1.2962992,8.839204,42.817499,-25.22688,-10.068113,19.12348,-58.339749,82.678651
332,2101154063,-238.28955,23.91378,25.382504,-2.590891,-1.1877428,0.5319691,8.256761,2.0339978,8.746472,42.774317,-25.246676,-10.059247,19.261093,-58.305849,82.824426
333,2101170730,-238.13963,23.902962,25.857265,-2.8268595,-0.71745896,0.6920843,5.5403595,7.2079372,9.360381,42.727203,-25.258634,-10.047712,19.353432,-58.185717,82.980432
334,2101187397,-238.08327,23.844692,26.047878,-2.943615,-0.4504347,0.7640338,3.1185489,9.826782,8.892811,42.678143,-25.266141,-10.034978,19.405408,-58.021937,83.128646
335,2101204064,-238.13026,23.708824,25.913502,-2.9536371,-0.3962227,0.769711,1.2461503,10.103323,7.632138,42.628916,-25.272745,-10.022149,19.426177,-57.853548,83.255848
336,2101220731,-238.19415,23.602966,25.749722,-2.8943615,-0.4202773,0.704196,-0.2906338,9.379442,5.6596665,42.580677,-25.27975,-10.010412,19.421333,-57.697224,83.350176
337,2101237398,-238.31973,23.499393,25.41183,-2.722867,-0.6047537,0.5409417,-1.4294401,6.6270666,2.5954757,42.535296,-25.289829,-10.001396,19.397509,-57.586773,83.393434
338,2101254065,-238.40201,23.395386,25.219326,-2.6102934,-0.72717005,0.42915297,-1.6166388,5.6221585,0.47680414,42.491791,-25.301949,-9.994243,19.370565,-57.49307,83.401381
339,2101270732,-238.43193,23.303669,25.20364,-2.5608635,-0.77414966,0.36867285,-0.80797493,6.5535407,-0.6672436,42.44911,-25.314851,-9.988098,19.357099,-57.383844,83.39026
340,2101287399,-238.49937,23.203388,25.084385,-2.4532347,-0.92624336,0.2628951,0.82648456,6.7123423,-2.1567383,42.408223,-25.330288,-9.983716,19.370874,-57.271972,83.354314
341,2101304066,-238.58096,23.097626,24.933666,-2.3233948,-1.135727,0.14245272,3.4527667,6.940183,-3.5565095,42.3695,-25.349217,-9.981342,19.42842,-57.156302,83.295039
342,2101320733,-238.53871,22.96621,24.973232,-2.2692804,-1.2583021,0.055386066,4.991193,7.1339355,-5.03077,42.331679,-25.370189,-9.980419,19.511607,-57.037403,83.211193
343,2101337400,-238.36986,22.803535,25.189785,-2.28763,-1.3019687,-0.0030179024,5.276681,7.011198,-6.7174807,42.293552,-25.391888,-9.980469,19.599552,-56.92055,83.099235
344,2101354067,-238.12332,22.621998,25.52837,-2.3574457,-1.3026102,-0.033879757,5.454961,7.2346864,-8.223636,42.254261,-25.413598,-9.981034,19.690468,-56.799972,82.962174
345,2101370734,-237.76268,22.414143,26.041317,-2.5038576,-1.2257774,-0.025106907,4.9736114,7.7213144,-9.61355,42.21253,-25.434028,-9.981452,19.773362,-56.671283,82.801948
346,2101387401,-237.38905,22.192112,26.53452,-2.6380243,-1.2011293,-0.031600475,5.0577755,7.87726,-11.1396475,42.168563,-25.454047,-9.981979,19.857658,-56.539995,82.616287
347,2101404068,-237.00569,21.956112,27.001804,-2.7590876,-1.232806,-0.052645206,5.832548,7.7670736,-12.760609,42.122578,-25.474594,-9.982856,19.954867,-56.410544,82.40361
348,2101420735,-236.53026,21.69271,27.583332,-2.9336643,-1.2274615,-0.049831867,6.2254734,7.613854,-14.402377,42.073684,-25.495052,-9.983687,20.058625,-56.283646,82.16357
349,2101437402,-235.98286,21.40369,28.237926,-3.1443348,-1.2126639,-0.033655643,6.516037,7.3068476,-16.10758,42.021278,-25.515263,-9.984248,20.167226,-56.161865,81.89511
350,2101454069,-235.31673,21.202915,28.932087,-3.2584677,-1.2152108,-0.010682106,7.6418614,6.1147175,-17.894165,41.96697,-25.535517,-9.984426,20.29459,-56.059953,81.596874
351,2101470736,-234.51553,21.09935,29.677944,-3.2711372,-1.2275681,0.023244858,9.563536,3.9646194,-19.765594,41.912451,-25.555976,-9.984039,20.453982,-55.993876,81.267447
352,2101487403,-233.6131,21.040016,30.462742,-3.2336721,-1.2563102,0.064753056,12.034267,1.1154985,-21.743979,41.858556,-25.576915,-9.98296,20.654553,-55.975284,80.905047
353,2101504070,-232.59134,21.056606,31.280766,-3.1105108,-1.3066083,0.11353922,15.282254,-2.6579437,-23.840563,41.806714,-25.598692,-9.981068,20.909257,-56.019583,80.507704
354,2101520737,-231.453,21.079136,32.188496,-2.997634,-1.3384093,0.18550396,18.518719,-6.852261,-26.006926,41.756753,-25.620999,-9.977976,21.217902,-56.133787,80.074255
355,2101537404,-230.19672,21.104004,33.185436,-2.8988218,-1.352039,0.2813573,21.721518,-11.474784,-28.250874,41.708439,-25.643533,-9.973287,21.579927,-56.325033,79.603407
356,2101554071,-228.80249,21.19434,34.2392,-2.7349539,-1.3716289,0.39362097,25.477497,-16.994951,-30.611605,41.662856,-25.666393,-9.966727,22.004552,-56.608282,79.093214
357,2101570738,-227.26732,21.336384,35.361744,-2.5253525,-1.3888422,0.5263829,29.623491,-23.33429,-33.084526,41.620767,-25.68954,-9.957954,22.498277,-56.997187,78.541805
358,2101587405,-225.7035,21.452072,36.690563,-2.3526306,-1.4726113,0.6202488,31.482342,-28.5178,-35.802387,41.581556,-25.714084,-9.947617,23.022983,-57.472484,77.945099
359,2101604072,-224.11522,21.543087,38.237514,-2.2142735,-1.6320664,0.6693702,30.84915,-32.42956,-38.787567,41.544651,-25.741285,-9.936461,23.537135,-58.012977,77.29864
360,2101620739,-222.44371,21.638435,39.947353,-2.083294,-1.828932,0.70524836,28.86746,-35.970512,-41.979782,41.509929,-25.771767,-9.924707,24.018259,-58.612486,76.598977
361,2101637406,-220.71667,21.719524,41.86034,-1.9795618,-2.083444,0.71130276,24.779024,-38.609203,-45.422634,41.476936,-25.806491,-9.912852,24.431243,-59.255973,75.841933
362,2101654073,-218.85884,21.84962,43.889202,-1.8330517,-2.3628635,0.7206931,20.278393,-41.6475,-49.060158,41.446385,-25.845872,-9.90084,24.769216,-59.950098,75.024264
363,2101670740,-216.86201,22.032837,46.032932,-1.6401978,-2.6650357,0.7359514,15.41914,-45.16388,-52.895557,41.419048,-25.890289,-9.888574,25.026202,-60.702829,74.142671
364,2101687407,-214.78546,22.222786,48.37264,-1.4521232,-3.0246673,0.72600555,8.66702,-48.048782,-57.00045,41.394846,-25.9407,-9.876474,25.170652,-61.503642,73.192663
365,2101704074,-212.61072,22.433949,50.893475,-1.2533112,-3.435842,0.6976485,0.33550632,-50.573788,-61.37036,41.373957,-25.997964,-9.864847,25.176244,-62.346538,72.169824
366,2101720741,-210.48096,22.71476,53.661694,-1.1613297,-3.6467285,0.7063246,-9.979756,-54.931652,-63.133972,41.354602,-26.058743,-9.853075,25.009915,-63.262066,71.117591
367,2101737408,-208.4166,23.065613,56.698353,-1.1936197,-3.6376767,0.7530093,-22.569855,-61.19508,-62.013428,41.334708,-26.119371,-9.840525,24.633751,-64.281984,70.084034
368,2101754075,-206.3365,23.474648,59.966747,-1.2840495,-3.5241158,0.8156395,-37.093784,-68.50771,-59.356297,41.313307,-26.178106,-9.826931,24.015521,-65.423779,69.094762
369,2101770742,-204.28336,23.955132,63.493015,-1.46805,-3.2357497,0.90838003,-53.781567,-77.450935,-54.336548,41.288839,-26.232035,-9.811791,23.119162,-66.714628,68.189153
370,2101787409,-202.1869,24.468803,67.26688,-1.6908588,-2.927573,0.99085474,-72.885956,-86.4678,-48.62809,41.260658,-26.280828,-9.795277,21.904396,-68.155758,67.378685
371,2101804076,-200.0424,25.015965,71.29283,-1.9492817,-2.6069481,1.0608358,-94.48178,-95.49251,-42.297646,41.22817,-26.324277,-9.777596,20.3297,-69.7473,66.673724
372,2101820743,-197.9238,25.62806,75.60431,-2.3032875,-2.133818,1.1504288,-118.71971,-105.80908,-33.758293,41.189782,-26.359841,-9.758422,18.351038,-71.510785,66.111086
373,2101837410,-195.81813,26.298363,80.2056,-2.7434845,-1.5382434,1.2509842,-145.73947,-117.10178,-23.316662,41.144057,-26.385478,-9.737572,15.922047,-73.462481,65.722475
374,2101854077,-194.725,27.063324,83.75978,-3.026597,-1.2590015,1.3613424,-162.02933,-121.43404,-13.830977,41.093614,-26.406461,-9.714883,13.221558,-75.486382,65.491959
375,2101870744,-194.76045,27.931702,86.14128,-3.138916,-1.3194206,1.485362,-166.32393,-118.166275,-5.3278894,41.041299,-26.428451,-9.690127,10.449493,-77.45582,65.403161
376,2101887411,-195.45215,28.883286,87.98546,-3.191265,-1.5304018,1.6178145,-165.1331,-110.81614,3.3892765,40.988111,-26.453958,-9.663163,7.697275,-79.302756,65.459649
377,2101904078,-197.09767,29.930893,88.91098,-3.1185017,-2.0103493,1.7596402,-154.61848,-97.138336,11.611989,40.936136,-26.487464,-9.633836,5.1203,-80.921728,65.653182
378,2101920745,-199.14824,31.064377,89.70239,-3.07942,-2.466345,1.9198947,-142.69292,-82.038994,21.477514,40.884812,-26.52857,-9.601838,2.742085,-82.289045,66.011141
379,2101937412,-201.58981,32.284706,90.39555,-3.0836973,-2.8837557,2.0987554,-129.75104,-65.700615,33.136467,40.833417,-26.576633,-9.566859,0.579568,-83.384055,66.563415
380,2101954079,-204.9736,33.6101,90.25473,-2.9958363,-3.5122967,2.2930472,-108.39559,-43.644543,44.945103,40.783486,-26.635171,-9.528642,-1.227025,-84.111464,67.3125
381,2101970746,-209.20795,35.040726,89.42734,-2.8489933,-4.2925386,2.5051312,-80.13516,-16.787922,57.38753,40.736003,-26.706713,-9.48689,-2.562611,-84.391263,68.268959
382,2101987413,-212.76128,35.99433,88.43384,-2.7828426,-4.713062,2.7022414,-60.11091,2.638621,65.25143,40.689622,-26.785264,-9.441853,-3.564459,-84.347286,69.356483
383,2102004080,-215.57779,36.416237,87.207016,-2.7930765,-4.756761,2.8814685,-48.68322,14.102019,67.821846,40.643071,-26.864543,-9.393829,-4.375846,-84.112252,70.486847
384,2102020747,-218.34363,36.581528,85.57509,-2.8349962,-4.6272445,3.0604048,-39.530132,22.867924,67.88438,40.595821,-26.941664,-9.342822,-5.034682,-83.73112,71.618253
385,2102037414,-220.66333,36.323906,83.63492,-2.9422808,-4.1894073,3.2301128,-36.526512,25.698547,63.87696,40.546783,-27.011487,-9.288987,-5.643457,-83.302811,72.682869
386,2102054081,-223.60075,35.985146,80.861725,-2.9981356,-3.8066983,3.4092162,-28.762417,30.986383,58.395668,40.496814,-27.074932,-9.232167,-6.122831,-82.786371,73.65613
387,2102070748,-227.22989,35.580307,77.2054,-2.9970016,-3.4958465,3.5993395,-15.56663,39.202404,51.56595,40.446864,-27.133196,-9.172178,-6.382275,-82.132998,74.515562
388,2102087415,-230.68861,34.788406,72.98497,-3.024787,-2.9583278,3.783513,-5.6360626,43.372116,40.650967,40.396451,-27.182501,-9.109119,-6.476209,-81.410129,75.193078
389,2102104082,-234.21092,33.673286,68.06186,-3.0559216,-2.268773,3.9657345,3.4014902,45.253372,26.097511,40.345519,-27.220314,-9.043023,-6.419517,-80.655906,75.628037
390,2102120749,-236.54791,32.892464,64.44072,-3.0339937,-1.8189616,4.1298943,10.214908,47.207256,17.476925,40.294952,-27.25063,-8.974191,-6.249269,-79.869118,75.919319
391,2102137416,-237.46593,32.46061,62.3361,-2.962471,-1.6087482,4.271926,13.609466,48.54303,15.266659,40.245577,-27.277442,-8.902992,-6.022445,-79.060068,76.173763
392,2102154083,-237.70815,32.100937,60.688396,-2.8496008,-1.5013173,4.401836,15.816321,49.270084,15.141652,40.198084,-27.302464,-8.829628,-5.75884,-78.2389,76.426124
393,2102170750,-236.87793,31.98085,60.067326,-2.6811934,-1.5959226,4.5139966,16.119171,49.739136,19.636591,40.153397,-27.329063,-8.754395,-5.490187,-77.409914,76.753401
394,2102187417,-235.47435,31.624504,59.365665,-2.511056,-1.5849768,4.6131926,13.063881,46.708363,22.376297,40.111546,-27.355479,-8.677508,-5.272456,-76.631441,77.126339
395,2102204084,-233.52042,31.001358,58.506794,-2.3391104,-1.455011,4.6993294,6.663653,40.01496,22.957937,40.072561,-27.379729,-8.599186,-5.161395,-75.964525,77.508971
396,2102220751,-230.39143,30.488594,58.54906,-2.1258383,-1.4437193,4.7643976,-3.1285267,31.446276,26.733156,40.03713,-27.403791,-8.519779,-5.213537,-75.44042,77.954524
397,2102237418,-226.15799,29.981697,59.27306,-1.8815794,-1.4861004,4.8086042,-16.751144,20.199486,32.349915,40.00577,-27.428559,-8.439636,-5.492723,-75.103762,78.493689
398,2102254085,-213.25012,29.550674,58.845875,-1.7896805,-1.4946057,4.7984347,-23.676168,12.20449,35.798626,39.975942,-27.453469,-8.359662,-5.887326,-74.900354,79.090333
399,2102270752,-190.75467,29.247581,57.247257,-1.8638086,-1.4892607,4.728305,-23.082607,8.108057,37.37933,39.944879,-27.47829,-8.280857,-6.272036,-74.76522,79.713322
400,2102287419,-162.20697,28.96785,55.218105,-2.0245008,-1.467733,4.6129713,-20.395348,4.4437294,38.100708,39.911137,-27.502752,-8.203974,-6.611958,-74.691158,80.348334
401,2102304086,-125.32823,28.745285,52.29849,-2.3233156,-1.4136354,4.4413686,-12.769126,2.8513753,37.049885,39.872415,-27.526313,-8.129951,-6.824777,-74.643635,80.965832
402,2102320753,-84.225006,28.634201,49.84387,-2.6430693,-1.4406706,4.2292013,-6.454061,0.22329569,37.94353,39.828364,-27.550324,-8.059464,-6.932345,-74.639913,81.598224
403,2102337420,-38.97078,28.632523,47.93854,-2.9794264,-1.5514627,3.9756613,-1.9559342,-3.7685254,40.94055,39.778707,-27.576182,-7.993203,-6.964944,-74.702722,82.280567
404,2102354087,14.626312,28.748405,45.524784,-3.4373474,-1.6775978,3.6618195,6.2823157,-6.1677036,43.460636,39.721418,-27.604142,-7.932173,-6.860239,-74.805517,83.004911
405,2102370754,75.90776,28.998306,42.901165,-3.9946365,-1.8446971,3.2891672,16.920473,-7.6540213,46.33024,39.654841,-27.634887,-7.877354,-6.578231,-74.933084,83.777082
406,2102387421,117.694626,29.201675,40.97475,-4.2692814,-1.8500257,2.988852,22.275297,-10.17594,46.499252,39.583686,-27.665721,-7.82754,-6.206976,-75.102683,84.55207
407,2102404088,137.98715,29.351486,39.716137,-4.2385683,-1.6682423,2.7698717,22.328365,-13.5068445,43.408,39.513043,-27.693525,-7.781375,-5.834837,-75.327797,85.275537
408,2102420755,149.31296,29.551682,38.909016,-4.0696726,-1.4142026,2.5698185,19.828527,-17.15728,39.091774,39.445215,-27.717095,-7.738545,-5.504362,-75.613752,85.927067
409,2102437422,144.16057,29.75901,38.782726,-3.6585808,-1.0295393,2.4242876,12.82961,-21.525883,32.622604,39.384239,-27.734254,-7.69814,-5.290535,-75.972517,86.470777
410,2102454089,139.5459,30.087059,38.555485,-3.2561674,-0.6145103,2.2501645,7.1795135,-24.746998,25.122269,39.32997,-27.744496,-7.660637,-5.170876,-76.384967,86.889481
411,2102470756,136.3613,30.551697,38.215534,-2.8748207,-0.17722464,2.0420897,3.1410546,-26.708117,16.722624,39.282056,-27.74745,-7.626602,-5.118525,-76.830102,87.168191
412,2102487423,119.47476,31.063835,38.35391,-2.2979212,0.38433358,1.8724122,-3.855484,-28.624691,6.0225177,39.243757,-27.741044,-7.595395,-5.182783,-77.30718,87.268566
413,2102504090,92.26909,31.653252,38.815792,-1.575882,1.0505792,1.7238259,-12.578388,-30.052254,-6.7748375,39.217492,-27.723534,-7.566665,-5.392423,-77.808051,87.155652
414,2102520757,78.19035,32.22,38.949017,-1.0744567,1.5461965,1.5253487,-18.575933,-31.547853,-15.084283,39.199584,-27.697764,-7.541243,-5.702022,-78.333849,86.904247
415,2102537424,77.374115,32.746506,38.763508,-0.7998047,1.8599434,1.2798681,-21.958202,-33.251358,-18.49939,39.186254,-27.666765,-7.519912,-6.067992,-78.888038,86.595924
416,2102554091,80.76076,33.303886,38.46842,-0.6103473,2.1109807,1.0099874,-23.994099,-34.545277,-20.038464,39.176082,-27.631582,-7.503079,-6.467894,-79.463793,86.26195
417,2102570758,94.232834,33.862747,37.900753,-0.6000228,2.2269697,0.6989579,-23.5706,-35.58177,-17.922348,39.166082,-27.594466,-7.49143,-6.860737,-80.056823,85.963244
418,2102587425,99.979355,34.466064,37.60918,-0.4973588,2.395298,0.40715408,-24.463871,-36.28442,-16.34785,39.157793,-27.554544,-7.484644,-7.268468,-80.661563,85.69078
419,2102604092,96.98485,35.120667,37.616367,-0.28852367,2.6269312,0.13771582,-26.789091,-36.565212,-15.560893,39.152984,-27.510762,-7.482349,-7.714953,-81.270983,85.431432
420,2102620759,99.03456,35.77964,37.511242,-0.18878174,2.766439,-0.15296078,-27.711016,-36.572792,-11.91923,39.149838,-27.464655,-7.484898,-8.176803,-81.88053,85.232778
421,2102637426,102.23866,36.452766,37.410946,-0.1405096,2.8533556,-0.45139265,-28.012394,-36.257797,-6.2845654,39.147496,-27.417099,-7.492421,-8.643676,-82.484827,85.128035
422,2102654093,102.617355,37.001564,37.595646,-0.14467621,2.8714316,-0.67204714,-29.540459,-34.01402,-3.3761811,39.145085,-27.369242,-7.503622,-9.136017,-83.051727,85.071765
423,2102670760,101.36578,37.404488,38.046673,-0.22831059,2.7984107,-0.81052685,-32.14112,-29.685648,-3.160102,39.14128,-27.322602,-7.517131,-9.671702,-83.546488,85.019097
424,2102687427,97.65494,37.732132,38.713146,-0.3529067,2.6671903,-0.89697456,-35.46689,-23.971601,-3.9475665,39.135398,-27.278149,-7.532081,-10.262817,-83.946015,84.953304
425,2102704094,90.78494,37.940994,39.663204,-0.5275345,2.4657195,-0.90735245,-39.94869,-16.401764,-6.9098806,39.126606,-27.237054,-7.547204,-10.928628,-84.219378,84.838139
426,2102720761,86.512405,38.09897,40.628483,-0.80881596,2.1616318,-0.901072,-43.745274,-7.8793507,-8.331968,39.113126,-27.201027,-7.562222,-11.657716,-84.350701,84.699273
427,2102737428,84.85292,38.207108,41.605045,-1.1981878,1.7529352,-0.8787985,-46.808243,1.5817463,-8.023805,39.093156,-27.171811,-7.576869,-12.437853,-84.324339,84.565543
428,2102754095,82.42479,38.189995,42.78541,-1.6791735,1.241478,-0.78876734,-50.41196,12.870666,-8.813818,39.06517,-27.15112,-7.590015,-13.278052,-84.109828,84.418646
429,2102770762,80.47272,38.057526,44.11497,-2.26721,0.6166731,-0.6416025,-54.16291,25.839064,-9.89569,39.027383,-27.140842,-7.600708,-14.180767,-83.679177,84.253718
430,2102787429,81.345566,37.7175,45.440296,-2.690709,0.14801905,-0.43966722,-55.158028,36.579636,-10.824399,38.982538,-27.138375,-7.608036,-15.100067,-83.069516,84.073311
431,2102804096,85.04636,37.144966,46.768322,-2.9259624,-0.14235485,-0.17476177,-53.229588,44.854565,-11.879563,38.933772,-27.140748,-7.610949,-15.987227,-82.32194,83.875318
432,2102820763,91.42445,36.383873,48.13476,-3.1154594,-0.392596,0.14924765,-49.45572,52.443245,-12.711492,38.881848,-27.147291,-7.608462,-16.811489,-81.447886,83.66346
433,2102837430,101.182785,35.399094,49.501644,-3.1848145,-0.52913237,0.5354867,-43.01864,58.28944,-13.281641,38.828768,-27.15611,-7.599537,-17.528466,-80.476395,83.442099
434,2102854097,112.11597,34.21582,51.01183,-3.2906742,-0.7118063,1.0023518,-35.913563,64.93649,-14.566342,38.773923,-27.167973,-7.582831,-18.127025,-79.39412,83.199327
435,2102870764,124.35567,32.827827,52.668697,-3.445651,-0.952875,1.5528121,-28.174406,72.53237,-16.5588,38.716495,-27.183854,-7.556951,-18.596598,-78.185247,82.923347
436,2102887431,139.71358,31.184761,54.368526,-3.507285,-1.1090068,2.1828206,-18.056253,78.88948,-18.761885,38.65804,-27.202337,-7.520571,-18.897536,-76.870422,82.610649
437,2102904098,157.86443,29.283325,56.140903,-3.5086584,-1.2139279,2.898964,-5.921347,84.53246,-21.392868,38.599562,-27.222569,-7.472255,-18.996225,-75.461548,82.254101
438,2102920765,161.2385,27.76162,57.80038,-3.5466614,-1.3279456,3.418572,2.132534,87.15221,-23.779032,38.540451,-27.244701,-7.415279,-18.960683,-74.009011,81.857784
439,2102937432,148.35648,26.66903,59.31577,-3.6107225,-1.436828,3.7153058,5.759436,86.202896,-25.835169,38.480272,-27.268648,-7.353357,-18.864692,-72.572296,81.427198
440,2102954099,127.338684,25.695328,60.7936,-3.6756287,-1.5330067,3.92878,7.635112,83.082504,-28.052362,38.419012,-27.294198,-7.287877,-18.73744,-71.187588,80.959659
441,2102970766,93.22984,25.015713,62.176334,-3.7614803,-1.6260675,3.979291,6.1091456,76.99952,-30.253704,38.356321,-27.321299,-7.221555,-18.635621,-69.904263,80.455431
442,2102987433,56.800964,24.237457,63.541386,-3.774763,-1.6431307,4.031922,5.23526,68.66897,-32.70835,38.293408,-27.348685,-7.154356,-18.548367,-68.75978,79.910292
443,2103004100,18.546135,23.33524,64.892365,-3.7097483,-1.5793823,4.096191,5.224688,58.080364,-35.47706,38.231579,-27.375008,-7.086086,-18.461289,-67.791774,79.319008
444,2103020767,-31.354992,22.658085,66.13669,-3.6275463,-1.4760939,4.018745,2.61205,44.091373,-38.285362,38.17112,-27.39961,-7.019107,-18.417755,-67.056918,78.680919
445,2103037434,-90.835594,22.125256,67.28595,-3.5058498,-1.3147491,3.8319056,-1.7767731,26.742756,-41.20706,38.112689,-27.421522,-6.955242,-18.447368,-66.611205,77.994135
446,2103054101,-134.51712,21.65907,68.53131,-3.4125938,-1.1697401,3.7045705,-4.0188146,13.728278,-42.596848,38.055812,-27.441018,-6.893499,-18.514348,-66.3824,77.284188
447,2103070768,-161.34271,21.3023,69.873245,-3.358942,-1.0495287,3.6299443,-4.202389,5.541937,-42.253204,37.99983,-27.45851,-6.833,-18.584388,-66.290034,76.579968
448,2103087435,-182.10432,21.04353,71.22334,-3.2952194,-0.9031277,3.5461836,-3.666554,-1.5282054,-41.002148,37.94491,-27.473562,-6.773897,-18.645497,-66.315504,75.896599
449,2103104102,-190.09032,20.880444,72.62691,-3.2407246,-0.7501476,3.491949,-1.460203,-5.420691,-38.35526,37.890898,-27.486064,-6.715698,-18.669834,-66.405849,75.257345
450,2103120769,-202.79149,20.95456,73.94211,-3.1687517,-0.5539367,3.3253934,-0.80524075,-11.024436,-35.208874,37.838085,-27.495296,-6.660275,-18.683255,-66.58959,74.67053
451,2103137436,-221.16138,21.277885,75.15538,-3.0741215,-0.3079824,3.0362911,-1.870838,-18.686298,-31.599329,37.78685,-27.500429,-6.60967,-18.714436,-66.901028,74.143875
452,2103154103,-230.69026,21.78806,76.37242,-2.9864368,-0.046196878,2.7250686,-2.2711897,-24.199697,-26.629128,37.737076,-27.501199,-6.564252,-18.752289,-67.304356,73.700056
453,2103170770,-235.03004,22.525116,77.55864,-2.8991823,0.2410309,2.3581882,-2.717955,-28.607134,-20.45577,37.688756,-27.497182,-6.524949,-18.797588,-67.781142,73.359126
454,2103187437,-241.42125,23.134338,78.46794,-2.8267946,0.4437633,2.0598075,-2.3331342,-32.95966,-15.176686,37.641643,-27.489786,-6.490619,-18.836474,-68.33047,73.106181
455,2103204104,-248.66232,23.585098,79.084335,-2.7751122,0.546945,1.8513002,-0.77023757,-36.795048,-10.847302,37.595391,-27.48067,-6.459764,-18.849311,-68.943721,72.925393
456,2103220771,-255.67375,24.082344,79.49571,-2.7331543,0.6093744,1.6485882,1.052325,-40.28483,-6.54764,37.549838,-27.470514,-6.432288,-18.831772,-69.615135,72.816266
457,2103237438,-263.8598,24.53196,79.631256,-2.706871,0.598096,1.4885182,3.4513834,-43.52605,-2.8106828,37.504723,-27.460546,-6.407479,-18.774249,-70.340569,72.769421
458,2103254105,-265.1246,25.136929,79.6525,-2.6944485,0.5700519,1.3210416,6.5122414,-44.808624,1.8561548,37.459816,-27.451045,-6.385462,-18.665712,-71.087379,72.800357
459,2103270772,-259.07745,25.920586,79.55963,-2.6962795,0.5281217,1.1393995,10.182486,-44.038765,7.5582504,37.414878,-27.442243,-6.366472,-18.496004,-71.821358,72.926328
460,2103287439,-250.72733,26.703815,79.20586,-2.719554,0.41355875,1.0011897,14.719276,-42.06414,13.109098,37.369552,-27.43535,-6.349786,-18.250683,-72.522427,73.144813
461,2103304106,-238.15878,27.53415,78.618256,-2.7649956,0.23642847,0.8961296,20.157707,-38.442894,18.841171,37.323469,-27.43141,-6.334851,-17.914721,-73.163142,73.458833
462,2103320773,-230.9361,28.29889,78.033356,-2.7655096,0.11084548,0.7858925,23.265234,-36.062332,23.355627,37.277377,-27.429563,-6.321753,-17.526967,-73.764181,73.848093
463,2103337440,-230.33951,28.96434,77.44971,-2.7166405,0.037936717,0.676527,23.798918,-35.201294,26.369862,37.2321,-27.428931,-6.310478,-17.130318,-74.350869,74.287591
464,2103354107,-230.34503,29.61657,76.76712,-2.651661,-0.0318698,0.58104944,23.33599,-34.10797,28.76986,37.187906,-27.429462,-6.300794,-16.741385,-74.919335,74.767089
465,2103370774,-233.65968,30.215767,76.0421,-2.5526543,-0.070534915,0.4930172,20.994364,-33.55133,30.108227,37.145362,-27.430638,-6.292577,-16.391479,-75.478524,75.268893
466,2103387441,-235.81601,30.786255,75.08841,-2.4617653,-0.16229594,0.45020485,18.71953,-31.974009,30.896189,37.104333,-27.433343,-6.285074,-16.079487,-76.011424,75.783829
467,2103404108,-236.26585,31.330437,73.890884,-2.3822489,-0.31369668,0.45675611,16.640266,-29.175293,31.166937,37.064629,-27.438571,-6.277461,-15.802149,-76.497679,76.303278
468,2103420775,-239.57709,31.797356,72.586685,-2.277811,-0.46014532,0.49062967,13.017605,-26.565975,30.243006,37.026665,-27.44624,-6.269284,-15.585189,-76.940445,76.807328
469,2103437442,-244.77762,32.188126,71.13159,-2.1575851,-0.6210841,0.5622282,8.251588,-23.774956,28.19654,36.990705,-27.456591,-6.259914,-15.447663,-77.336694,77.27727
470,2103454109,-234.53854,32.51155,69.8898,-2.0778074,-0.7512492,0.61135674,5.658128,-20.130127,26.69548,36.956075,-27.469112,-6.249725,-15.353361,-77.672196,77.722195
471,2103470776,-207.7789,32.754982,68.91133,-2.0394344,-0.83923775,0.6317558,5.324429,-15.737487,25.763987,36.922084,-27.483099,-6.239196,-15.264621,-77.934487,78.151595
472,2103487443,-172.02878,32.908882,67.99202,-2.0221004,-0.92052704,0.6611004,5.9366436,-10.648659,24.615795,36.888382,-27.498441,-6.228178,-15.165677,-78.111965,78.561858
473,2103504110,-122.53723,32.967583,67.23958,-2.0404654,-0.98045254,0.68327904,8.358565,-4.723656,23.655323,36.854374,-27.514782,-6.21679,-15.026368,-78.190693,78.956113
474,2103520777,-70.39021,32.905807,66.47444,-2.0530205,-1.0303515,0.73083925,10.210213,1.3459868,21.688234,36.820157,-27.531955,-6.204609,-14.856198,-78.16826,79.317584
475,2103537444,-16.083412,32.714455,65.684525,-2.0581827,-1.0724628,0.8082328,11.374428,7.5495625,18.602629,36.785854,-27.549829,-6.191138,-14.666624,-78.042434,79.627628
476,2103554111,50.126274,32.39518,65.05728,-2.0893803,-1.0876178,0.88599443,13.780291,14.342842,15.311951,36.751031,-27.567956,-6.176371,-14.436952,-77.803387,79.882827
477,2103570778,126.06532,31.935593,64.55969,-2.1381712,-1.0776284,0.9720268,16.931135,21.578934,11.529711,36.715395,-27.585916,-6.160171,-14.154766,-77.443738,80.074989
478,2103587445,166.48268,31.519325,64.14226,-2.1686344,-1.0657606,1.0557055,18.42656,26.999722,8.252354,36.679251,-27.603679,-6.142576,-13.847657,-76.993743,80.212528
479,2103604112,168.19339,31.158241,63.833126,-2.1815681,-1.0501641,1.132379,18.272396,30.416452,5.6703415,36.642892,-27.621182,-6.123703,-13.543117,-76.486802,80.307034
480,2103620779,151.1451,30.750977,63.641804,-2.1885366,-1.0197574,1.2127147,17.273283,32.77909,3.098637,36.606416,-27.638178,-6.103491,-13.255229,-75.940484,80.358678
481,2103637446,102.77092,30.344818,63.569904,-2.1807108,-0.9789595,1.2925382,14.818641,33.437065,0.8419131,36.570071,-27.654494,-6.081949,-13.008252,-75.3832,80.37271
482,2103654113,51.84382,29.823517,63.703922,-2.188136,-0.9083911,1.3717551,12.808117,33.803078,-1.4821407,36.533602,-27.669634,-6.059086,-12.794783,-74.819815,80.348008
483,2103670780,-0.38838196,29.174171,64.05763,-2.2121525,-0.8053819,1.4507561,11.315169,33.909504,-3.9226637,36.496733,-27.683057,-6.034907,-12.606197,-74.254657,80.28263
484,2103687447,-79.4965,28.493065,64.59906,-2.2304268,-0.6821263,1.5254531,8.869825,32.452427,-6.014185,36.459559,-27.694426,-6.009483,-12.458367,-73.713783,80.182394
485,2103704114,-179.9014,27.752289,65.35713,-2.2494545,-0.5331194,1.5954313,5.8678827,29.682774,-7.8301334,36.422068,-27.703311,-5.982892,-12.360569,-73.21907,80.051892
486,2103720781,-244.35078,27.124374,65.918396,-2.2832108,-0.42022693,1.662777,3.6188364,27.802607,-9.377501,36.384014,-27.710315,-5.955179,-12.300255,-72.755693,79.8956
487,2103737448,-270.89087,26.63758,66.24841,-2.330636,-0.3499778,1.7263384,2.0739183,26.817137,-10.570472,36.34517,-27.716148,-5.926407,-12.26569,-72.308741,79.719425
488,2103754115,-283.27747,26.19057,66.57155,-2.3897114,-0.28839242,1.7841625,0.8796742,25.806166,-11.433326,36.305341,-27.720955,-5.896671,-12.251029,-71.878638,79.52887
489,2103770782,-266.51202,25.836193,66.77644,-2.463848,-0.2528116,1.8359609,0.35773695,25.307697,-11.924959,36.264277,-27.725169,-5.866072,-12.245067,-71.456843,79.330121
490,2103787449,-261.0149,25.495934,67.10878,-2.5393085,-0.208767,1.8787923,-0.6438416,23.63443,-11.905057,36.221955,-27.728648,-5.834759,-12.255798,-71.062936,79.131703
491,2103804116,-268.97165,25.164711,67.591675,-2.6160078,-0.15336189,1.9115915,-2.1616664,20.661436,-11.338602,36.178355,-27.731204,-5.802899,-12.291826,-70.718579,78.942726
492,2103820783,-257.3597,24.930511,68.008606,-2.7037706,-0.118926674,1.934907,-3.3493476,17.662523,-10.23169,36.133292,-27.733186,-5.770651,-12.347648,-70.424204,78.772198
493,2103837450,-234.68398,24.77987,68.414276,-2.799859,-0.098258406,1.9473491,-4.44924,14.248612,-8.523692,36.086628,-27.734824,-5.738195,-12.421802,-70.186727,78.630136
494,2103854117,-224.70451,24.601837,68.80528,-2.8417397,-0.058327228,1.9472656,-5.3703866,11.15592,-7.3326273,36.039266,-27.735796,-5.705741,-12.511308,-70.000795,78.507926
495,2103870784,-225.54753,24.401768,69.15279,-2.8241682,-0.0005682707,1.9337976,-6.005719,8.590177,-6.739093,35.992197,-27.735805,-5.673511,-12.611403,-69.857625,78.395608
496,2103887451,-231.57634,24.227592,69.49475,-2.7746162,0.06379488,1.9060102,-6.562073,5.9191804,-6.1457195,35.945953,-27.734742,-5.641744,-12.720771,-69.758972,78.293179
497,2103904118,-248.20357,24.055542,69.820145,-2.6752396,0.14239249,1.8627892,-6.985287,3.3839772,-5.8480644,35.901366,-27.732369,-5.610698,-12.837192,-69.702572,78.195711
498,2103920785,-252.94301,23.977795,70.077866,-2.564725,0.20755807,1.8039517,-7.098906,0.850361,-5.156915,35.858621,-27.72891,-5.580632,-12.955507,-69.688399,78.109762
499,2103937452,-244.8984,24.003971,70.265686,-2.4443445,0.25757888,1.7285409,-6.907018,-1.7260246,-4.005901,35.817882,-27.724617,-5.551823,-13.070624,-69.717166,78.042997
500,2103954119,-239.60959,24.071625,70.39493,-2.278555,0.31224164,1.6350827,-6.439381,-4.0579433,-2.9853287,35.779906,-27.719413,-5.524572,-13.177947,-69.784798,77.993242
501,2103970786,-232.1012,24.204575,70.45059,-2.074461,0.36519018,1.5227752,-5.649361,-6.167716,-1.9382154,35.745332,-27.713326,-5.499192,-13.272103,-69.887593,77.960938
502,2103987453,-229.19444,24.318043,70.49379,-1.9478092,0.38377264,1.4328113,-4.9967985,-7.926404,-0.6764997,35.712869,-27.70693,-5.475312,-13.355383,-70.0197,77.949663
503,2104004120,-233.0752,24.399796,70.525314,-1.9046469,0.36647877,1.3685169,-4.510971,-9.254868,0.7460407,35.681125,-27.700822,-5.452503,-13.430566,-70.173948,77.962097
504,2104020787,-236.89703,24.50969,70.50075,-1.8942251,0.32378146,1.3093395,-3.928719,-10.20678,2.3500104,35.649555,-27.695426,-5.430681,-13.496045,-70.344061,78.001264
505,2104037454,-242.88805,24.624187,70.432465,-1.9475899,0.24643871,1.2665892,-3.366602,-10.707363,4.1668763,35.617095,-27.691319,-5.409571,-13.552155,-70.522517,78.070712
506,2104054121,-250.93907,24.782364,70.28172,-1.9872513,0.15758231,1.215044,-2.5543628,-10.744036,5.9500833,35.583974,-27.688693,-5.38932,-13.594728,-70.701584,78.16988
507,2104070788,-260.4881,24.991058,70.03914,-2.0089722,0.057192713,1.1529427,-1.4581305,-10.284284,7.69551,35.550491,-27.68774,-5.370104,-13.61903,-70.872989,78.298138
508,2104087455,-273.57367,25.211311,69.73085,-2.078371,-0.07489106,1.1027021,-0.30563867,-9.241467,9.547116,35.515851,-27.688988,-5.351726,-13.624124,-71.027013,78.457257
509,2104104122,-290.1569,25.452915,69.34387,-2.1794596,-0.23468658,1.0590639,0.96949863,-7.581154,11.449602,35.479527,-27.692899,-5.334075,-13.607966,-71.153366,78.648084
510,2104120789,-289.09015,25.60823,69.00932,-2.2363834,-0.33435738,1.0258002,2.1913228,-6.02949,12.705626,35.442254,-27.698472,-5.316978,-13.571444,-71.253857,78.859844
511,2104137456,-268.72095,25.661129,68.74019,-2.2504416,-0.36825192,1.0065122,3.317209,-4.6157584,13.25209,35.404747,-27.70461,-5.300203,-13.516157,-71.330786,79.080712
512,2104154123,-239.07062,25.668888,68.46234,-2.247281,-0.37571865,0.9962592,4.479445,-2.9430616,13.371327,35.367292,-27.710872,-5.283599,-13.4415,-71.379837,79.303567
513,2104170790,-194.28955,25.598427,68.21178,-2.208253,-0.3327425,0.9974046,5.620993,-1.189518,12.858102,35.330488,-27.716418,-5.266976,-13.347817,-71.399662,79.517869
514,2104187457,-146.98868,25.503471,67.91252,-2.1949406,-0.29646942,1.0139017,6.797086,1.1360737,12.144685,35.293906,-27.721359,-5.250078,-13.234532,-71.380727,79.72028
515,2104204124,-97.86713,25.385994,67.55704,-2.2103062,-0.2698714,1.0462837,8.016054,4.0927625,11.234878,35.257068,-27.725857,-5.23264,-13.100931,-71.312514,79.907528
516,2104220791,-35.459404,25.188263,67.21394,-2.208147,-0.20332646,1.0953741,9.197664,7.2981324,9.720484,35.220266,-27.729246,-5.214384,-12.947637,-71.190878,80.069536
517,2104237458,37.74466,24.918999,66.8663,-2.2018242,-0.10836014,1.1627827,10.351286,10.876202,7.6735725,35.183569,-27.731052,-5.195004,-12.775116,-71.009608,80.197429
518,2104254125,88.25697,24.702068,66.53743,-2.1856203,-0.052330166,1.210391,11.639341,13.31224,6.624223,35.147142,-27.731924,-5.174831,-12.581127,-70.787737,80.307833
519,2104270792,114.39717,24.539093,66.239,-2.1537323,-0.034949303,1.2354503,13.061754,14.416423,6.65661,35.111246,-27.732506,-5.15424,-12.363431,-70.547463,80.418777
520,2104287459,130.45795,24.374432,65.94905,-2.1181383,-0.031463444,1.257824,14.543587,14.995481,7.081134,35.075944,-27.73303,-5.133276,-12.121038,-70.297538,80.536796
521,2104304126,127.436295,24.23843,65.67775,-2.0757704,-0.058600694,1.2673607,16.123112,14.604655,8.307682,35.041348,-27.734007,-5.112153,-11.852319,-70.054127,80.675257
522,2104320793,127.84404,24.040508,65.42873,-2.018116,-0.06364614,1.2873602,17.68221,14.041781,9.319806,35.007713,-27.735068,-5.090697,-11.557615,-69.820097,80.830587
523,2104337460,132.79886,23.773079,65.2025,-1.9456453,-0.043751687,1.3198824,19.209515,13.353072,10.05693,34.975286,-27.735797,-5.068699,-11.237456,-69.597546,80.998202
524,2104354127,123.20662,23.505634,65.00807,-1.859437,-0.039099604,1.3447385,20.793327,11.736324,11.380382,34.944295,-27.736449,-5.046287,-10.890901,-69.401941,81.187875
525,2104370794,103.64513,23.21696,64.84816,-1.7573414,-0.038171977,1.3670983,22.404856,9.338842,13.077774,34.915006,-27.737085,-5.023502,-10.517487,-69.246294,81.405838
526,2104387461,95.2529,23.021866,64.56726,-1.6892099,-0.045615166,1.3741379,23.745888,7.1748657,14.338936,34.886853,-27.737845,-5.0006,-10.121722,-69.126713,81.64482
527,2104404128,97.50758,22.939236,64.15344,-1.6592693,-0.06648785,1.3619127,24.793566,5.2097216,15.1983595,34.859199,-27.738953,-4.977901,-9.708496,-69.039884,81.898126
528,2104420795,103.27638,22.899578,63.68388,-1.6420078,-0.09059608,1.3398623,25.664726,3.0333066,15.902183,34.831832,-27.740463,-4.95557,-9.280751,-68.989329,82.163162
529,2104437462,117.67206,22.937752,63.116146,-1.6511078,-0.120550364,1.3033466,26.273317,0.8751422,16.2582,34.804314,-27.742472,-4.933848,-8.842862,-68.974743,82.434132
530,2104454129,123.19847,23.003265,62.544888,-1.6577654,-0.16381937,1.2547164,26.807201,-2.0945513,16.964205,34.776685,-27.745202,-4.912936,-8.396075,-69.009652,82.716869
531,2104470796,118.944244,23.092167,61.976757,-1.659853,-0.22003165,1.1940365,27.268387,-5.947006,18.053085,34.749021,-27.748869,-4.893035,-7.941602,-69.108769,83.017754
532,2104487463,117.8174,23.261593,61.32781,-1.6836405,-0.28818655,1.1155047,27.483088,-10.096754,19.020557,34.72096,-27.753672,-4.874443,-7.483551,-69.277048,83.334763
533,2104504130,115.95015,23.50259,60.617832,-1.7231598,-0.3701861,1.0190096,27.483347,-14.746547,20.020527,34.692241,-27.759842,-4.85746,-7.025495,-69.522824,83.668438
534,2104520797,113.67807,23.728905,59.952656,-1.749938,-0.42311233,0.92811966,27.21629,-17.986052,20.635246,34.663075,-27.766894,-4.841991,-6.57189,-69.822592,84.012359
535,2104537464,112.41156,23.942406,59.33121,-1.7649126,-0.4433345,0.84357405,26.646051,-19.573185,20.769434,34.63366,-27.774283,-4.827931,-6.127789,-70.148812,84.358516
536,2104554131,109.226074,24.180496,58.716015,-1.7778854,-0.45287097,0.75342035,25.809855,-20.563116,20.729162,34.604029,-27.781831,-4.815374,-5.697625,-70.491531,84.704002
537,2104570798,104.54129,24.42347,58.13323,-1.7821321,-0.43995637,0.66346264,24.677698,-20.39942,20.381395,34.574327,-27.789164,-4.804316,-5.28633,-70.831521,85.043692
538,2104587465,101.33835,24.738777,57.499493,-1.801157,-0.4293986,0.5576558,23.220684,-20.063723,19.84079,34.544308,-27.796321,-4.795022,-4.899319,-71.165916,85.374372
539,2104604132,99.40733,25.13271,56.81061,-1.83634,-0.4230553,0.43433857,21.427532,-19.624802,19.124815,34.513702,-27.803372,-4.787783,-4.542193,-71.492996,85.693119
540,2104620799,97.68625,25.55687,56.129856,-1.8705807,-0.39832994,0.30608368,19.276073,-18.092354,18.053371,34.482526,-27.810011,-4.782682,-4.220925,-71.794535,85.994009
541,2104637466,96.80229,26.027897,55.439175,-1.9091959,-0.36037934,0.16899967,16.748096,-15.653649,16.643953,34.450706,-27.816017,-4.779865,-3.94179,-72.055429,86.271408
542,2104654133,97.76878,26.311455,54.88442,-1.955759,-0.3426869,0.08677721,15.005963,-12.92718,15.233983,34.41811,-27.821728,-4.778419,-3.691691,-72.270882,86.525308
543,2104670800,100.739914,26.379616,54.487858,-2.0089283,-0.3453821,0.06720686,14.152186,-9.808566,13.818417,34.384628,-27.827484,-4.777299,-3.455821,-72.434358,86.755615
544,2104687467,105.76883,26.355244,54.168804,-2.0709572,-0.35586864,0.07753563,13.617498,-6.096055,12.237461,34.350112,-27.833415,-4.776007,-3.228863,-72.535959,86.959573
545,2104704134,113.26227,26.170052,53.971745,-2.1425562,-0.38256106,0.13653946,13.727249,-1.8915961,10.567324,34.314403,-27.839791,-4.773731,-3.000076,-72.567486,87.135695
546,2104720801,122.347305,25.949097,53.829395,-2.2176876,-0.40012628,0.21030807,13.790544,3.4564755,8.555878,34.277442,-27.84646,-4.770226,-2.770234,-72.509878,87.278293
547,2104737468,133.18805,25.699501,53.738552,-2.2967062,-0.4072255,0.2972226,13.76673,10.018533,6.1755476,34.239164,-27.853247,-4.765272,-2.540788,-72.342902,87.381219
548,2104754135,146.69258,25.29697,53.774296,-2.3833199,-0.42354873,0.43139172,14.288906,17.421577,3.6076794,34.199442,-27.860306,-4.758082,-2.30264,-72.052542,87.441347
549,2104770802,162.8216,24.764751,53.925648,-2.4764462,-0.44363433,0.60674953,15.220055,25.845613,0.7879368,34.158168,-27.8677,-4.74797,-2.048972,-71.621782,87.454479
550,2104787469,164.51074,24.310772,54.01289,-2.5331984,-0.4440332,0.74554014,15.695781,31.438778,-1.1816758,34.115948,-27.875101,-4.735544,-1.787376,-71.097802,87.434784
551,2104804136,150.24365,23.935143,54.032207,-2.5496035,-0.42468286,0.8457999,15.724826,33.805767,-2.174778,34.073455,-27.882179,-4.721447,-1.525296,-70.534373,87.398538
552,2104820803,128.10957,23.55103,54.065083,-2.5450659,-0.3928307,0.9414401,15.6362915,34.912964,-2.7594948,34.031037,-27.888726,-4.705756,-1.264691,-69.95249,87.352546
553,2104837470,93.28392,23.209007,54.06673,-2.507225,-0.34235293,1.0127239,15.22007,33.66423,-2.6158142,33.98925,-27.894432,-4.688877,-1.011023,-69.391419,87.308949
554,2104854137,56.013634,22.751629,54.16551,-2.4619436,-0.29175308,1.1150622,15.154748,32.233356,-2.3440318,33.948218,-27.899295,-4.670293,-0.758444,-68.854196,87.269882
555,2104870804,16.803001,22.167152,54.371807,-2.4100971,-0.24147494,1.2523322,15.483134,30.752785,-1.9771031,33.90805,-27.90332,-4.649421,-0.500392,-68.34165,87.23693
556,2104887471,-33.785686,21.574642,54.58533,-2.3274918,-0.17689371,1.380527,15.696343,27.158974,-0.92573965,33.869258,-27.906268,-4.626412,-0.238786,-67.889,87.221501
557,2104904138,-93.781494,20.937782,54.83566,-2.2188272,-0.10166997,1.5119743,15.947245,21.874887,0.698115,33.832278,-27.907962,-4.601212,0.027001,-67.524419,87.233136
558,2104920805,-137.8988,20.459023,55.003933,-2.1481133,-0.049834043,1.5929623,15.56072,17.810184,1.6296825,33.796476,-27.908793,-4.574663,0.286346,-67.227583,87.260297
559,2104937472,-165.03711,20.171371,55.067097,-2.1178637,-0.022891223,1.6128168,14.413564,14.932369,1.8388505,33.761178,-27.909175,-4.547783,0.526572,-66.97871,87.290945
560,2104954139,-185.99872,19.953331,55.102276,-2.1002903,-0.0071389377,1.6052456,12.932185,12.098734,1.8657277,33.726173,-27.909294,-4.521029,0.742108,-66.777064,87.32204
561,2104970806,-194.07861,19.866371,55.07227,-2.112154,-0.011747122,1.5531206,10.907709,10.009426,1.3885165,33.69097,-27.90949,-4.495144,0.923903,-66.61024,87.345182
562,2104987473,-206.58725,19.821507,55.02232,-2.109105,-0.012918711,1.4764271,8.605905,6.3882723,1.3129123,33.655818,-27.909705,-4.470537,1.067335,-66.503769,87.367064
563,2105004140,-224.46431,19.812038,54.956425,-2.0884504,-0.0096566975,1.3764267,6.049041,1.0780039,1.6988503,33.62101,-27.909866,-4.447597,1.168152,-66.485802,87.395378
564,2105020807,-233.2853,19.938786,54.817562,-2.0865984,-0.021896124,1.226984,2.9116006,-4.225735,1.8263193,33.586233,-27.910231,-4.427147,1.216679,-66.556231,87.425817
565,2105037474,-236.65263,20.186153,54.613117,-2.094079,-0.044861704,1.0309515,-0.76222,-10.044901,1.894849,33.551332,-27.910979,-4.409964,1.203975,-66.723646,87.457398
566,2105054141,-229.82431,20.383339,54.4997,-2.0852985,-0.06389809,0.89958,-3.0802798,-14.417261,2.0929396,33.516577,-27.912044,-4.394971,1.152637,-66.963934,87.49228
567,2105070808,-210.36052,20.531853,54.481754,-2.062316,-0.080323875,0.83867073,-3.912972,-16.969736,2.3544166,33.482205,-27.913383,-4.380993,1.087421,-67.246763,87.53152
568,2105087475,-182.73535,20.706657,54.487354,-2.0309105,-0.09815672,0.7960391,-4.1358356,-19.005894,2.7287736,33.448356,-27.915019,-4.367726,1.01849,-67.563528,87.577
569,2105104142,-144.85223,20.86768,54.55595,-1.9852304,-0.11422837,0.80098677,-3.2318501,-19.920273,3.2454605,33.415269,-27.916923,-4.354376,0.964626,-67.895533,87.631091
570,2105120809,-95.474785,21.144844,54.57918,-1.949503,-0.14267492,0.78062344,-2.390139,-20.449617,3.6175494,33.382777,-27.919301,-4.341366,0.92479,-68.23636,87.691383
571,2105137476,-34.42382,21.54977,54.54838,-1.9246006,-0.18433297,0.7297745,-1.6780595,-20.67324,3.8431525,33.3507,-27.922373,-4.329203,0.896822,-68.580914,87.755436
572,2105154143,39.94081,21.986835,54.549953,-1.8937263,-0.22979337,0.7096715,-0.04904473,-19.669792,4.084542,33.319138,-27.926203,-4.317375,0.896005,-68.908744,87.823512
573,2105170810,128.33366,22.487469,54.559246,-1.8621817,-0.28238755,0.7045517,2.2561684,-17.568647,4.2781467,33.288102,-27.930909,-4.305632,0.933608,-69.201555,87.894814
574,2105187477,180.44029,22.883774,54.514614,-1.8399734,-0.3214714,0.7114234,4.223607,-16.388643,4.517145,33.257436,-27.936267,-4.293775,1.004001,-69.474699,87.9701
575,2105204144,191.95795,23.150093,54.419506,-1.826479,-0.3442169,0.73794174,5.902311,-16.156366,4.8203406,33.226995,-27.942004,-4.281476,1.102373,-69.743972,88.050439
576,2105220811,187.48224,23.389465,54.285145,-1.8208714,-0.36290675,0.77516127,7.6260924,-15.961173,5.094135,33.196647,-27.948052,-4.268557,1.229475,-70.009992,88.135341
577,2105237478,152.99857,23.552158,54.096233,-1.8257627,-0.3715501,0.8249631,9.161548,-16.297205,5.3628507,33.166218,-27.954245,-4.254808,1.382167,-70.281612,88.224722
578,2105254145,118.47632,23.715214,53.908207,-1.8312302,-0.38000643,0.90482664,11.385966,-15.720277,5.6119113,33.135697,-27.960578,-4.239728,1.571933,-70.543617,88.318254
579,2105270812,85.71422,23.885933,53.721317,-1.8374815,-0.38919187,1.0154653,14.352498,-14.109139,5.828276,33.105072,-27.967065,-4.222804,1.811141,-70.778769,88.415392
580,2105287479,27.375366,23.981312,53.494465,-1.851903,-0.38886374,1.1510253,17.441021,-12.579301,6.0368648,33.074207,-27.973546,-4.20362,2.101825,-70.988424,88.516006
581,2105304146,-50.559364,24.0163,53.238384,-1.8727026,-0.38098258,1.3163052,20.853561,-10.793723,6.2298317,33.042995,-27.979896,-4.181682,2.449384,-71.168319,88.619837
582,2105320813,-103.578094,24.135632,53.01807,-1.8804779,-0.37297553,1.4055934,23.170158,-9.660683,6.4877243,33.011654,-27.986112,-4.158255,2.835553,-71.32933,88.727966
583,2105337480,-131.27977,24.339748,52.83479,-1.8742905,-0.3638919,1.4091358,24.18823,-9.389027,6.8207555,32.980416,-27.992177,-4.134769,3.23869,-71.485814,88.841645
584,2105354147,-151.15236,24.567791,52.664776,-1.8622513,-0.3512286,1.3811245,24.724684,-9.303925,7.183394,32.949378,-27.998031,-4.11175,3.650768,-71.640879,88.961368
585,2105370814,-151.99602,24.855068,52.52502,-1.8391314,-0.33636108,1.2921157,24.358719,-9.6945095,7.599028,32.918726,-28.003637,-4.090215,4.056747,-71.802454,89.088018
586,2105387481,-167.16428,25.094456,52.365826,-1.8185291,-0.3121032,1.2028337,23.764256,-10.28665,8.020253,32.888417,-28.008839,-4.070168,4.452818,-71.973898,89.221689
587,2105404148,-198.59364,25.278019,52.18514,-1.801096,-0.27775335,1.1175022,22.99067,-11.037188,8.443218,32.858399,-28.013468,-4.051543,4.835996,-72.157851,89.362409
588,2105420815,-220.30568,25.487602,52.02254,-1.7754765,-0.23770936,0.97995615,21.320063,-12.348186,8.91226,32.828808,-28.01743,-4.03521,5.19133,-72.363654,89.510947
589,2105437482,-239.57918,25.698666,51.867756,-1.7444515,-0.19006953,0.8025179,18.876534,-14.172754,9.417517,32.799734,-28.020598,-4.021835,5.505939,-72.599867,89.667906
590,2105454149,-255.90634,25.759445,51.759403,-1.6732168,-0.1764274,0.39525223,15.998334,-12.306663,8.908612,32.771847,-28.023538,-4.015247,5.772578,-72.804978,89.816383
591,2105470816,-266.18228,25.662937,51.70663,-1.5566187,-0.20118201,-0.26993608,12.591792,-6.4013076,7.2840734,32.745903,-28.026891,-4.019746,5.982441,-72.911666,89.937784
592,2105487483,-275.65753,25.462078,51.684864,-1.4126201,-0.2432107,-1.0973206,8.548741,1.5833163,5.0291033,32.722359,-28.030945,-4.038035,6.12492,-72.885277,90.021602
593,2105504150,-283.29398,25.114582,51.70714,-1.2304883,-0.31443763,-2.1458254,3.905291,12.826718,1.8404411,32.701851,-28.036186,-4.073799,6.190008,-72.671498,90.052276
594,2105520817,-282.8141,24.725994,51.762363,-1.0269423,-0.3916099,-3.3226414,-1.7539877,24.79824,-1.6688734,32.684735,-28.042713,-4.129176,6.160775,-72.258194,90.024461
595,2105537484,-274.3109,24.297588,51.850323,-0.8023877,-0.4734072,-4.6262417,-8.485937,37.37591,-5.477153,32.671362,-28.050603,-4.20628,6.019343,-71.635262,89.933175
596,2105554151,-259.6919,23.737972,51.989353,-0.5383301,-0.58214945,-6.1589966,-16.087904,52.877316,-10.167532,32.66239,-28.060305,-4.30893,5.751211,-70.753973,89.763716
597,2105570818,-237.39633,23.066143,52.17873,-0.23729801,-0.71340156,-7.9072275,-24.686417,70.81525,-15.629512,32.658435,-28.072195,-4.440717,5.339771,-69.573719,89.503224
598,2105587485,-225.87305,21.722954,52.66302,-0.13318157,-0.8727589,-9.310331,-30.888718,90.29578,-21.118395,32.656215,-28.086741,-4.595889,4.824959,-68.068789,89.151251
599,2105604152,-226.67065,19.636074,53.47212,-0.24632311,-1.0644733,-10.331469,-34.363464,111.59401,-26.657219,32.65211,-28.104482,-4.76808,4.252235,-66.208889,88.706964
600,2105620819,-229.67192,17.075954,54.493412,-0.46776438,-1.28376,-11.231163,-36.822865,134.8749,-32.54589,32.644314,-28.125878,-4.955266,3.638521,-63.960974,88.164532
601,2105637486,-239.82614,13.873062,55.80097,-0.8636675,-1.5339183,-11.857208,-37.307533,160.03902,-38.614273,32.62992,-28.151443,-5.152886,3.016729,-61.293657,87.520961
602,2105654153,-246.70946,10.3174095,57.26244,-1.2936225,-1.8185022,-12.567499,-37.76832,188.2959,-45.475796,32.60836,-28.181751,-5.362344,2.387257,-58.155392,86.763031
603,2105670820,-249.30261,6.4147453,58.876217,-1.751257,-2.138612,-13.383511,-38.32428,219.77225,-53.181797,32.579172,-28.217395,-5.585403,1.748519,-54.492521,85.876668
604,2105687487,-256.98956,1.860733,60.778385,-2.3661413,-2.4964707,-13.99412,-37.14826,253.86388,-61.298027,32.539736,-28.259003,-5.818638,1.129381,-50.261456,84.855034
605,2105704154,-267.45612,-3.2990723,62.94829,-3.1116018,-2.8940833,-14.473024,-34.62362,290.9159,-69.973434,32.487876,-28.307238,-6.059855,0.552321,-45.412858,83.68881
606,2105720821,-261.9972,-8.374968,64.21422,-3.5006933,-3.1678894,-14.8389015,-34.681683,318.90326,-76.12638,32.429531,-28.360036,-6.30717,-0.025707,-40.097804,82.420037
607,2105737488,-239.95496,-13.35516,64.4819,-3.5041618,-3.3028727,-15.049349,-37.438274,336.62146,-79.40506,32.371128,-28.415084,-6.557992,-0.649678,-34.487446,81.096619
608,2105754155,-208.56107,-18.551693,64.29428,-3.3362007,-3.378285,-15.139994,-41.258717,350.0231,-81.36833,32.315525,-28.471389,-6.810325,-1.337323,-28.653728,79.74048
609,2105770822,-162.82709,-23.794249,63.32356,-2.8642426,-3.3478944,-15.098948,-47.16209,355.67392,-81.11771,32.267788,-28.527187,-7.061974,-2.123358,-22.725829,78.388518
610,2105787489,-115.7755,-29.584694,62.288563,-2.4064674,-3.3079407,-14.829166,-52.36329,360.43945,-80.33207,32.22768,-28.582319,-7.309127,-2.996079,-16.718505,77.04965
611,2105804156,-67.90156,-35.964603,61.224407,-1.9788065,-3.2635202,-14.321924,-56.703255,364.6834,-79.093216,32.1947,-28.636711,-7.547826,-3.941133,-10.640448,75.73143
612,2105820823,-8.323528,-42.546814,59.48006,-1.3060036,-3.1252613,-13.606121,-62.43782,361.89185,-75.745224,32.172933,-28.688799,-7.774595,-4.981763,-4.608917,74.46901
613,2105837490,60.36976,-49.448246,57.195255,-0.45203638,-2.9117613,-12.651962,-68.97346,353.37112,-70.594284,32.165399,-28.737328,-7.985461,-6.131321,1.280602,73.292439
614,2105854157,107.13913,-55.710896,58.610256,0.24768686,-2.8160908,-11.645782,-71.4604,346.40698,-65.26671,32.169527,-28.784263,-8.179557,-7.322328,7.054052,72.204661
615,2105870824,130.34525,-61.19606,64.060104,0.79869413,-2.8438735,-10.597485,-69.68691,340.68243,-59.64341,32.182839,-28.831661,-8.356182,-8.483777,12.732093,71.210604
616,2105887491,142.97963,-66.43823,71.63733,1.3204799,-2.9144783,-9.388435,-65.530106,333.43494,-53.096153,32.204847,-28.880236,-8.512656,-9.575945,18.289342,70.325668
617,2105904158,136.6116,-71.14974,82.53346,1.7313929,-3.0778704,-8.063008,-57.673637,326.3048,-45.96299,32.233704,-28.931534,-8.647039,-10.537172,23.727755,69.559618
618,2105920825,132.17908,-75.793106,94.128494,2.3023105,-3.196834,-6.5070553,-49.48718,313.14444,-36.790764,32.272076,-28.984815,-8.75549,-11.361958,28.946829,68.946439
619,2105937492,130.60065,-80.395546,106.312256,3.0483468,-3.2633643,-4.7012835,-41.08402,293.4663,-25.440847,32.322882,-29.039204,-8.833845,-12.046692,33.837934,68.522425
620,2105954159,113.99568,-84.46202,121.46265,3.7676094,-3.3882942,-2.7348375,-29.612375,271.56708,-12.8674345,32.385675,-29.095676,-8.879426,-12.540232,38.364052,68.307968
621,2105970826,86.53775,-88.07372,139.08084,4.5202265,-3.5422435,-0.57588625,-15.728759,245.96054,1.3027115,32.461012,-29.154713,-8.889024,-12.802378,42.463394,68.32968
622,2105987493,71.7466,-91.74773,143.17918,5.117507,-3.6428401,1.1158862,-2.350635,225.79439,9.866909,32.546304,-29.215427,-8.870426,-12.841555,46.226634,68.494128
623,2106004160,69.446,-95.445854,132.48997,5.5183387,-3.6955957,2.2665925,10.642649,212.34633,12.035147,32.638276,-29.27702,-8.832649,-12.664178,49.765739,68.694714
624,2106020827,71.0625,-98.95453,114.230515,5.8539476,-3.7195795,3.211952,24.245432,200.15854,11.491457,32.735842,-29.339013,-8.779116,-12.260087,53.101715,68.886238
625,2106037494,82.4079,-102.37889,83.90941,6.064188,-3.6954198,3.7606485,37.77963,191.89769,6.1595893,32.836912,-29.400603,-8.716439,-11.630427,56.30001,68.988898
626,2106054161,84.82924,-105.26355,51.399868,6.207754,-3.6992517,4.279054,53.76914,183.17062,0.01435256,32.940375,-29.462257,-8.645121,-10.734275,59.352854,68.989137
627,2106070828,77.30617,-107.559875,17.124393,6.2913322,-3.73347,4.7866163,72.37168,173.57266,-6.7213745,33.045231,-29.524481,-8.565344,-9.52808,62.245732,68.877114
628,2106087495,73.94681,-109.56346,-27.876055,6.2296553,-3.7441125,4.927293,91.79668,167.66997,-17.903008,33.149059,-29.586883,-8.483222,-7.998135,65.040231,68.578731
629,2106104162,70.65219,-111.153984,-81.717514,6.031471,-3.747474,4.7695804,112.62711,164.59106,-32.77991,33.249584,-29.649341,-8.403729,-6.121016,67.783415,68.032399
630,2106120829,66.05008,-112.42147,-119.80621,6.057768,-3.2650437,4.901641,126.69274,157.21007,-42.48195,33.350547,-29.703758,-8.322035,-4.00947,70.403583,67.324367
631,2106137496,61.57512,-113.3873,-141.03188,6.3270636,-2.2418218,5.3240204,132.98967,145.55968,-46.74009,33.455998,-29.741122,-8.233301,-1.792976,72.829578,66.545366
632,2106154163,54.985535,-113.90465,-155.92064,6.669882,-0.9129144,5.793553,135.77945,132.54247,-49.344093,33.567163,-29.756337,-8.136742,0.470015,75.038619,65.722964
633,2106170830,46.295013,-113.99032,-157.9317,7.1810837,0.8624327,6.453789,132.66132,116.43528,-48.005913,33.686848,-29.741963,-8.029179,2.681037,76.979207,64.922865
634,2106187497,39.804123,-113.632095,-163.86531,7.62538,2.8245747,6.858334,127.91233,102.62786,-48.97803,33.813938,-29.694887,-7.914873,4.812909,78.689671,64.106564
635,2106204164,35.399986,-112.79805,-174.62424,7.9859276,4.963589,6.974871,121.75366,91.50852,-52.650608,33.947037,-29.612161,-7.798625,6.842137,80.214813,63.229054
636,2106220831,31.041466,-111.49647,-176.16916,8.460522,7.5385838,7.141675,109.85976,79.007164,-53.974365,34.088046,-29.486518,-7.679597,8.673133,81.531599,62.329481
637,2106237498,27.662025,-109.70735,-171.98541,8.998224,10.5041485,7.256418,93.001816,66.36013,-54.30214,34.238016,-29.311449,-7.558657,10.223163,82.637601,61.424445
638,2106254165,24.302193,-108.45187,-172.17105,9.554571,12.280464,7.309705,79.67287,54.817924,-53.79679,34.397259,-29.106775,-7.436829,11.551044,83.551233,60.527832
639,2106270832,20.817368,-107.8246,-175.8535,10.150686,12.751298,7.335686,69.98277,44.08963,-51.84711,34.566437,-28.894253,-7.314568,12.717424,84.28606,59.663713
640,2106287499,18.412674,-107.32062,-180.48422,10.773903,12.637826,7.2635427,60.275166,34.5015,-49.283348,34.746002,-28.683623,-7.193509,13.72201,84.861085,58.842324
641,2106304166,16.903221,-107.22763,-188.29843,11.420137,11.502385,7.098117,52.65613,26.329132,-45.950314,34.936338,-28.491917,-7.075207,14.599612,85.299904,58.076485
642,2106320833,16.328407,-106.934715,-189.65726,12.165684,10.333688,6.922038,40.89197,17.929846,-40.4568,35.139099,-28.319689,-6.95984,15.281145,85.598735,57.402205
643,2106337500,16.918526,-106.40568,-184.08775,13.013479,9.181003,6.7282615,24.5208,9.36994,-32.776073,35.35599,-28.166672,-6.847702,15.689825,85.754901,56.855937
644,2106354167,18.586617,-106.20088,-178.12273,13.9253845,7.1627517,6.480128,8.364633,1.7228765,-23.383802,35.58808,-28.047293,-6.7397,15.829236,85.783616,56.466207
645,2106370834,21.457596,-106.1991,-169.5617,14.920376,4.473725,6.193266,-8.99676,-5.311514,-11.915981,35.836753,-27.972731,-6.636479,15.67929,85.695091,56.267607
646,2106387501,22.899292,-106.003944,-164.35257,15.619357,2.816624,5.9919105,-21.097406,-10.428078,-4.170137,36.097076,-27.925787,-6.536614,15.327667,85.52129,56.198105
647,2106404168,22.698189,-105.661125,-163.66476,15.983557,2.2325835,5.887148,-26.749294,-13.359261,-0.6677259,36.363469,-27.888577,-6.438495,14.881845,85.298636,56.186976
648,2106420835,22.257866,-105.2896,-163.0383,16.207005,2.033278,5.8322654,-30.00318,-14.894231,1.6542306,36.633586,-27.854689,-6.341291,14.381792,85.050399,56.214547
649,2106437502,20.867813,-104.81081,-164.24962,16.182003,2.6582851,5.864374,-28.84855,-14.609022,1.2027793,36.903286,-27.810384,-6.243551,13.900983,84.806915,56.234593
650,2106454169,20.205368,-104.61436,-165.3753,16.119923,2.874415,5.899459,-25.865368,-12.884415,1.2818965,37.171951,-27.762477,-6.145227,13.469894,84.592175,56.255958
651,2106470836,20.422127,-104.73105,-166.03227,16.033787,2.614094,5.937433,-21.255068,-9.72704,2.1590514,37.439181,-27.718909,-6.04627,13.115643,84.430058,56.291942
652,2106487503,20.08126,-104.91447,-168.7373,15.72201,2.8659415,6.0553894,-11.866264,-4.53636,0.8063846,37.701214,-27.671143,-5.945347,12.917872,84.354452,56.305382
653,2106504170,19.559525,-105.262566,-173.07265,15.225656,3.3671992,6.2393355,1.8787363,2.6582654,-2.0809522,37.954975,-27.615023,-5.841358,12.949184,84.398756,56.270699
654,2106520837,19.32779,-105.38663,-174.72768,14.940447,3.5902247,6.342823,9.368662,6.798482,-3.4862041,38.203982,-27.555186,-5.735644,13.105328,84.512064,56.212596
655,2106537504,19.25299,-105.23471,-173.70937,14.874539,3.605279,6.3644347,10.145861,7.515167,-3.5401087,38.451891,-27.495098,-5.62957,13.274426,84.637317,56.153594
656,2106554171,19.371246,-105.0714,-171.83806,14.863922,3.48558,6.3674765,9.093385,7.2222023,-3.235271,38.699623,-27.437005,-5.523445,13.425982,84.757687,56.099673
657,2106570838,19.759888,-104.789696,-168.07578,15.009347,3.1185215,6.315899,3.4544525,4.5361166,-1.869538,38.949779,-27.38503,-5.41818,13.483556,84.833289,56.068514
658,2106587505,19.8023,-104.57187,-165.53993,15.0246105,3.0668383,6.32035,0.34388936,2.595282,-1.9825228,39.200189,-27.333916,-5.312841,13.489287,84.876544,56.035472
659,2106604172,19.483147,-104.44755,-164.4708,14.892045,3.3480163,6.389367,0.27154505,1.5943804,-3.7198458,39.44839,-27.278116,-5.206352,13.493813,84.903117,55.973475
660,2106620839,19.159027,-104.237,-162.48465,14.838794,3.5940561,6.4387555,-2.6310945,-1.2408729,-5.2577276,39.695703,-27.218215,-5.099039,13.449961,84.882436,55.885846
661,2106637506,18.68834,-103.98483,-160.30061,14.802448,3.929851,6.4941216,-6.806728,-5.2675934,-7.1721573,39.94241,-27.152717,-4.990804,13.336516,84.794643,55.76631
662,2106654173,18.594894,-103.894554,-160.88936,14.616572,4.311138,6.5729494,-9.664171,-9.123537,-6.9585905,40.18602,-27.080865,-4.881255,13.175446,84.642584,55.650333
663,2106670840,18.951256,-103.96346,-164.30865,14.291393,4.702084,6.6684,-11.672575,-13.071712,-4.182437,40.42421,-27.002497,-4.770115,12.980903,84.424722,55.580626
664,2106687507,19.398384,-104.12764,-169.70006,13.862143,5.2173758,6.7912693,-12.99621,-17.368994,-0.44217646,40.655246,-26.915541,-4.656927,12.764299,84.135239,55.573256
665,2106704174,20.0812,-104.43815,-177.87526,13.28868,5.8417006,6.944855,-13.1204815,-21.779825,5.0221386,40.876724,-26.818179,-4.541179,12.545624,83.772242,55.656958
666,2106720841,20.777046,-104.7408,-186.59734,12.723789,6.511612,7.1003127,-15.0075445,-27.858646,11.200665,41.088787,-26.709652,-4.42284,12.295498,83.307931,55.843636
667,2106737508,21.448227,-105.03077,-195.86066,12.170664,7.242397,7.2592697,-18.7365,-35.715317,17.994123,41.291631,-26.588945,-4.301852,11.983223,82.712676,56.143538
668,2106754175,22.327232,-105.42887,-207.5264,11.518991,8.055655,7.439204,-22.446865,-44.439934,26.597738,41.483614,-26.454684,-4.177865,11.609109,81.97201,56.586834
669,2106770842,23.360641,-105.90385,-221.19221,10.800286,8.943812,7.634898,-26.800156,-54.42706,36.829376,41.663619,-26.30562,-4.050617,11.16244,81.064892,57.200657
670,2106787509,26.274574,-106.31604,-225.3887,10.1898575,9.335861,7.72582,-30.896252,-64.275665,45.635475,41.83345,-26.150022,-3.921853,10.647502,79.993631,57.961248
671,2106804176,31.27977,-106.66696,-219.2281,9.692903,9.175476,7.701567,-34.501118,-73.816185,52.928844,41.994998,-25.997097,-3.793494,10.072483,78.763361,58.843395
672,2106820843,37.534134,-107.00231,-207.87282,9.248517,8.726796,7.615286,-38.543278,-84.046074,60.078297,42.14914,-25.85165,-3.666573,9.430095,77.362593,59.8447
673,2106837510,45.55329,-107.28698,-188.1095,8.904061,7.824238,7.4324355,-42.762558,-94.59611,66.30939,42.297541,-25.721246,-3.542699,8.717386,75.785991,60.949856
674,2106854177,54.40116,-107.63542,-167.11452,8.528409,6.810071,7.2281237,-47.2339,-106.13329,73.73953,42.439681,-25.607745,-3.42223,7.930154,74.017103,62.178848
675,2106870844,64.04877,-108.052284,-145.20235,8.118216,5.696649,7.0048227,-52.06654,-118.78791,82.52527,42.574985,-25.512801,-3.305483,7.062378,72.037304,63.554269
676,2106887511,75.44266,-108.45079,-115.91402,7.781186,4.161764,6.693567,-57.015453,-131.93564,90.969765,42.704671,-25.443438,-3.193924,6.11212,69.838377,65.070432
677,2106904178,88.42468,-108.855156,-80.63087,7.4918666,2.2677665,6.308163,-62.12677,-145.75674,99.546486,42.829535,-25.405642,-3.088788,5.076674,67.409098,66.72954
678,2106920845,94.968475,-108.523544,-52.563114,7.182934,0.8025888,5.8599434,-64.23001,-157.92972,105.916466,42.949251,-25.392266,-2.991122,4.006174,64.776936,68.494814
679,2106937512,94.42204,-107.36925,-32.05954,6.8630238,-0.20699269,5.3387012,-62.961357,-168.14912,109.63982,43.063635,-25.395716,-2.902144,2.956818,61.974451,70.322144
680,2106954179,90.484085,-105.75533,-13.672508,6.549079,-1.1011,4.7456617,-59.841354,-177.64233,112.14053,43.172786,-25.414068,-2.82305,1.959462,59.013745,72.191153
681,2106970846,80.90297,-103.4626,-0.81233597,6.227697,-1.6754018,4.078948,-53.931072,-185.71808,112.679504,43.276581,-25.441991,-2.755068,1.060611,55.918444,74.069145
682,2106987513,70.58911,-100.89231,16.029118,5.969956,-2.4833403,3.310218,-47.029987,-193.60323,112.18419,43.37608,-25.48338,-2.699898,0.276778,52.691724,75.938881
683,2107004180,59.772118,-98.058685,37.398815,5.780682,-3.559598,2.4353592,-39.197975,-201.36034,110.70803,43.472425,-25.542707,-2.659309,-0.376522,49.335718,77.784015
684,2107020847,43.98706,-94.559,55.664104,5.615366,-4.455281,1.4637408,-28.668941,-207.74306,107.09252,43.566014,-25.616962,-2.634913,-0.854338,45.873334,79.56889
685,2107037514,24.180313,-90.46248,72.86372,5.4915166,-5.2899337,0.38593864,-15.757243,-212.97136,101.47528,43.657539,-25.705128,-2.628481,-1.116959,42.323811,81.260145
686,2107054181,6.582054,-86.54164,86.021576,5.212294,-5.9561243,-0.6325331,-8.134338,-221.08865,95.672905,43.744411,-25.804397,-2.639023,-1.252531,38.639,82.854693
687,2107070848,-8.869617,-82.803116,93.876495,4.75515,-6.3865485,-1.5775704,-6.2760944,-232.28966,89.62804,43.823663,-25.910839,-2.665316,-1.357133,34.767506,84.348494
688,2107087515,-24.591717,-78.910835,99.17447,4.2267017,-6.7111764,-2.5367346,-6.718475,-244.77193,82.49586,43.894108,-26.022692,-2.707595,-1.469108,30.687974,85.723425
689,2107104182,-39.075768,-75.05402,100.73718,3.5706098,-6.8803396,-3.464961,-11.544434,-259.60623,74.67303,43.953618,-26.137364,-2.765344,-1.661515,26.361203,86.967975
690,2107120849,-57.230762,-70.65735,98.27443,2.8916743,-6.8397455,-4.460105,-15.783895,-274.08133,64.71451,44.001813,-26.25136,-2.839679,-1.92458,21.793181,88.04655
691,2107137516,-79.38305,-65.67546,91.797104,2.197445,-6.5888686,-5.530471,-19.162668,-288.03177,52.457993,44.038437,-26.361174,-2.931854,-2.243958,16.992652,88.92085
692,2107154183,-101.86921,-60.547096,80.24736,1.3854566,-6.102129,-6.588601,-25.9812,-303.72903,38.901806,44.061528,-26.462876,-3.041664,-2.676978,11.930501,89.569213
693,2107170850,-125.80701,-55.138737,63.3868,0.47629786,-5.359067,-7.655629,-35.226295,-320.60046,23.668695,44.069466,-26.552194,-3.169258,-3.264083,6.58716,89.963691
694,2107187517,-135.35861,-49.66513,53.775417,-0.3524208,-4.8302755,-8.587526,-39.77186,-333.32745,11.676243,44.063592,-26.632699,-3.312383,-3.926947,1.031702,90.158295
695,2107204184,-128.51784,-44.19332,52.273617,-1.0990925,-4.5453205,-9.357346,-39.501194,-341.66595,3.4882593,44.045274,-26.708454,-3.468339,-4.5853,-4.662731,90.216433
696,2107220851,-113.50842,-38.523838,52.592632,-1.836236,-4.2572293,-10.045777,-37.14244,-347.73743,-3.514011,44.01467,-26.779408,-3.635769,-5.204341,-10.458355,90.157866
697,2107237518,-85.6378,-32.72852,58.09093,-2.5195913,-4.0886135,-10.606295,-30.862705,-350.1014,-7.915372,43.972677,-26.847552,-3.812541,-5.718719,-16.293378,90.025943
698,2107254185,-53.11979,-26.782114,61.009624,-3.2807121,-3.7486734,-11.098686,-25.949976,-352.40924,-12.381188,43.917998,-26.91003,-3.997519,-6.151219,-22.166865,89.81959
699,2107270852,-16.33994,-20.670078,60.739613,-4.1281805,-3.209433,-11.523981,-22.66371,-354.79932,-17.087923,43.849195,-26.963521,-4.189585,-6.528947,-28.080187,89.534791
700,2107287519,33.111267,-14.470657,64.01434,-4.9599304,-2.7174559,-11.8074875,-16.80377,-354.17548,-19.43859,43.766529,-27.008812,-4.386376,-6.80901,-33.983112,89.210815
701,2107304186,93.789474,-8.179827,69.15584,-5.8052416,-2.2061665,-11.956747,-9.486025,-351.2567,-19.949667,43.669775,-27.045581,-4.585655,-6.96711,-39.837391,88.878321
702,2107320853,121.88992,-2.3854446,71.71202,-6.3467827,-1.7371033,-12.07312,-1.2007395,-344.03262,-21.308937,43.563995,-27.074533,-4.786874,-6.987122,-45.571268,88.523172
703,2107337520,114.42308,2.8329887,72.1299,-6.5403347,-1.3465636,-12.150421,8.532395,-331.84338,-23.366678,43.454989,-27.096976,-4.989381,-6.844915,-51.101991,88.133727
704,2107354187,91.3253,7.74654,71.408844,-6.554879,-0.9592701,-12.139578,19.211521,-316.0399,-25.12384,43.345741,-27.112964,-5.191707,-6.524723,-56.369322,87.714996
705,2107370854,40.579582,12.1729355,68.57959,-6.2948484,-0.60238916,-12.060814,30.869955,-295.85358,-27.170517,43.240827,-27.123004,-5.392721,-6.010224,-61.300215,87.262154
706,2107387521,-10.024605,16.425533,67.924805,-5.9169483,-0.2981018,-11.8277855,44.914494,-271.51978,-27.197926,43.142211,-27.127972,-5.589851,-5.261649,-65.825545,86.808855
707,2107404188,-59.021233,20.50507,69.63364,-5.428211,-0.04472187,-11.429071,61.390144,-242.97327,-25.017612,43.051741,-27.128717,-5.780336,-4.23848,-69.875099,86.391895
708,2107420855,-130.85957,24.080444,70.823166,-4.661893,0.1409314,-10.920046,79.69665,-209.29411,-22.21324,42.974043,-27.126368,-5.962337,-2.910203,-73.363334,86.021674
709,2107437522,-219.97142,27.197578,72.46222,-3.6444407,0.25061163,-10.276588,100.19436,-170.3812,-18.219322,42.913302,-27.122191,-6.133613,-1.240297,-76.203021,85.718019
710,2107454189,-275.79767,29.945312,73.82501,-2.993987,0.43316713,-9.609221,109.9815,-138.60493,-15.919484,42.863402,-27.114972,-6.293767,0.592728,-78.513103,85.452694
711,2107470856,-296.7547,32.266075,74.588776,-2.742755,0.694572,-8.930587,107.76916,-114.9197,-15.723956,42.817689,-27.103396,-6.44261,2.388881,-80.428431,85.190628
712,2107487523,-303.28424,34.124344,75.82791,-2.6098766,0.95380545,-8.167162,99.92263,-93.286835,-15.827321,42.774191,-27.087499,-6.578729,4.054258,-81.983212,84.926839
713,2107504190,-282.1374,35.51066,77.30972,-2.7595701,1.2473435,-7.348507,82.75656,-77.097244,-17.061241,42.728198,-27.06671,-6.701204,5.433534,-83.268166,84.642485
714,2107520857,-269.2785,36.252144,78.78296,-2.7826242,1.4797049,-6.416481,63.59473,-58.779114,-18.071356,42.681821,-27.042048,-6.808145,6.493446,-84.247818,84.341296
715,2107537524,-266.5191,36.31298,80.37576,-2.6532125,1.6393936,-5.3618994,42.816784,-37.835644,-18.704609,42.637601,-27.014725,-6.89751,7.207059,-84.878412,84.029553
716,2107554191,-244.51785,35.747467,82.03085,-2.7164116,1.8023663,-4.2376785,13.450662,-21.002504,-20.365398,42.592327,-26.984686,-6.968138,7.431237,-85.228454,83.69013
717,2107570858,-210.77477,34.491806,83.73422,-2.885685,1.9447565,-3.0290623,-23.118256,-6.7199607,-22.769026,42.544232,-26.952273,-7.018622,7.045933,-85.340453,83.310646
