PacketCounter,SampleTimeFine,Euler_X,Euler_Y,Euler_Z,Acc_X,Acc_Y,Acc_Z,Gyr_X,Gyr_Y,Gyr_Z,
0,531185854,15.55211258,-77.12810516,147.7142181,0,0,0,0,0,0, 
1,531202521,15.61964035,-76.87657166,147.4683838,9.407674789,0.529531658,2.276138306,-13.76752758,8.483997345,-15.21388149, 
2,531219188,15.41242981,-76.50315857,147.4216919,9.776444435,0.74409008,2.656435966,-18.37024498,8.387413025,-12.50287628, 
3,531235855,15.41902447,-75.92241669,147.2650299,10.01929283,0.643622339,2.346073389,-20.58310127,7.579986095,-10.25282478, 
4,531252522,15.42758274,-75.59067535,147.0379486,9.871437073,0.368768603,1.777438164,-24.4260273,8.582128525,-10.16996002, 
5,531269189,15.16354752,-75.61341095,146.9569244,9.387828827,-0.067159899,1.27882421,-32.08214188,8.160797119,-10.01935959, 
6,531285856,14.41174889,-75.96188354,147.2353973,9.39673233,-0.256247789,1.034710526,-37.99816132,2.889044523,-7.969702244, 
7,531302523,13.25944996,-76.44992828,147.8456879,9.791641235,-0.416981459,1.233417034,-39.66425323,1.552157521,-5.067642212, 
8,531319190,11.88410854,-76.88536072,148.6180115,10.14343929,-0.569082916,1.758202672,-39.95610428,4.080503941,-5.341686726, 
9,531335857,10.31808853,-77.17465973,149.418457,10.45667458,-0.508914948,2.31094408,-49.60804367,6.772718906,-8.099359512, 
10,531352524,8.785188675,-77.27092743,150.0114136,9.988426208,0.004293384,2.468888521,-58.13059998,10.57623959,-11.6238842, 
11,531369191,7.480256557,-77.22280121,150.3699341,9.6225214,-0.027877973,2.331479311,-60.68159485,12.82218647,-12.12732315, 
12,531385858,6.460809231,-77.06881714,150.5948181,9.63690567,0.148921937,2.103131056,-52.31123352,15.56290245,-11.65410995, 
13,531402525,5.822525024,-76.93869781,150.4979401,9.980628967,0.394925505,2.059006214,-48.01908112,12.43860912,-12.62771511, 
14,531419192,5.477761269,-76.84646606,150.072876,10.25599289,0.376579493,2.483245134,-51.46397018,9.270374298,-14.33192444, 
15,531435859,5.274833202,-76.71668243,149.2791901,10.29114246,0.430209398,2.883548498,-57.57134247,9.972360611,-16.02249718, 
16,531452526,5.299818516,-76.50787354,148.2143555,10.09536076,0.145235792,3.303509474,-59.97992325,12.64500046,-18.88212395, 
17,531469193,5.789134502,-76.24061584,146.7152863,9.20754528,0.029621441,3.841835976,-57.43354416,13.39401436,-25.17730141, 
18,531485860,6.504510403,-76.01333618,145.1507721,8.314585686,-0.434178114,3.116531134,-47.5343895,7.984630585,-26.25107574, 
19,531502527,6.811184883,-75.88554382,144.1353912,8.766623497,-0.270499289,2.33093524,-39.83097839,1.711036205,-18.60565186, 
20,531519194,6.549987316,-75.76971436,143.6436157,9.700537682,0.085682034,3.381960392,-43.35902023,2.44145155,-11.2467308, 
21,531535861,6.35401535,-75.69675446,143.0897064,10.03841782,0.453888059,4.270566463,-43.0904007,-0.715585411,-11.65015888, 
22,531552528,6.382698059,-75.58451843,142.1414337,9.577312469,0.730473816,4.488226414,-52.6305542,-0.257026225,-17.20049477, 
23,531569195,6.346731186,-75.40448761,141.1713409,8.482046127,0.530378938,4.211593628,-57.88583374,2.499876261,-17.3931427, 
24,531585862,5.725996971,-75.40532684,140.707077,7.991611004,0.062281802,3.254291058,-63.65438461,-8.293424606,-8.304426193, 
25,531602529,4.701573372,-75.59152222,140.6357574,8.897713661,-0.142405406,2.82967639,-65.06838226,-18.66245651,-1.470602393, 
26,531619196,3.780385971,-75.8057251,140.4556885,10.24091816,-0.279229611,2.661399364,-65.20291901,-19.86255264,-3.348748922, 
27,531635863,3.160278797,-75.8669281,139.9828644,10.9119463,-0.295034826,2.949053526,-64.15008545,-10.05982018,-8.587362289, 
28,531652530,2.724993467,-75.7350235,139.3968201,10.43216324,-0.277791768,3.210581541,-59.61902618,2.117640495,-11.07342243, 
29,531669197,2.314375401,-75.54277802,138.8213959,9.320918083,-0.181341156,3.155241489,-57.48270035,6.115663052,-11.21156979, 
30,531685864,1.985048056,-75.38217926,138.2129211,8.537236214,0.064956278,2.812259197,-54.49571609,4.423559666,-11.66549492, 
31,531702531,1.792721868,-75.34866333,137.5259705,8.816282272,0.328677028,2.930229187,-50.86533356,-2.958987236,-12.46501541, 
32,531719198,1.86601007,-75.37752533,136.6154633,9.219669342,0.292058349,3.263482094,-47.97530746,-6.593075752,-15.45869732, 
33,531735865,2.049641609,-75.42688751,135.5473785,9.544734001,0.439975262,3.699409008,-50.5735321,-7.869889259,-17.54453087, 
34,531752532,2.249045134,-75.44663239,134.4088593,9.087520599,0.52668035,3.63860774,-53.78235626,-6.268178463,-18.38344574, 
35,531769199,2.306950331,-75.55860901,133.3922577,8.841867447,1.104954839,3.34813118,-55.26736069,-11.85209942,-16.02207756, 
36,531785866,2.29536891,-75.75098419,132.4977417,9.194598198,1.102471948,3.165105343,-52.4919281,-16.58862495,-13.43260574, 
37,531802533,2.482654095,-76.03259277,131.4918518,9.649704933,1.054575801,3.151680231,-47.19073486,-21.91378593,-14.23728657, 
38,531819200,2.875064611,-76.30560303,130.2454681,10.3748064,1.441818714,3.178520918,-49.03746796,-21.49409676,-17.03857613, 
39,531835867,3.206706762,-76.5243454,128.9589996,9.920050621,1.75779891,3.296256065,-55.18139267,-18.21788597,-16.9784832, 
40,531852534,2.929106712,-76.8105011,128.1670837,9.662694931,1.344948173,3.204068422,-63.04086304,-21.84552383,-9.178214073, 
41,531869201,2.073294163,-77.14169312,128.0246735,9.724123001,0.713962674,2.591579199,-59.88175201,-24.02364159,0.022673972, 
42,531885868,1.077070713,-77.51095581,128.1712646,9.612077713,0.351312429,2.14618516,-51.42156219,-25.99224854,3.653367519, 
43,531902535,0.201523349,-77.94962311,128.2340698,9.680048943,0.161516517,1.874571562,-49.07555389,-29.92974663,2.161064863, 
44,531919202,-0.559958935,-78.47349548,128.1200104,9.646525383,0.255469352,2.153020144,-52.59373474,-34.74046326,-0.513439357, 
45,531935869,-1.4220891,-79.04168701,127.9868851,9.418836594,0.478158265,2.324766159,-59.75843048,-37.19814301,-1.210131645, 
46,531952536,-2.713222027,-79.6772995,128.1515198,9.440716743,0.654411912,1.994256735,-67.95872498,-41.23386383,1.394495249, 
47,531969203,-4.537969589,-80.32458496,128.8878479,9.599485397,0.544430017,1.590071797,-66.18251038,-42.1639061,6.205036163, 
48,531985870,-6.89117384,-80.96284485,130.243866,9.557778358,0.175277144,1.344600916,-61.12623978,-42.15375519,10.39175797, 
49,532002537,-9.794999123,-81.59384155,132.2206116,9.527100563,-0.098589934,1.186834812,-57.20906067,-42.60650635,13.31404305, 
50,532019204,-13.23392391,-82.27402496,134.7844543,9.450227737,-0.183804423,0.883902371,-54.21587753,-46.62581635,13.95319462, 
51,532035871,-17.49114799,-83.03207397,138.1935425,9.569802284,-0.110735022,1.002631068,-52.74956512,-52.91241837,14.05419827, 
52,532052538,-23.07632065,-83.82772064,142.8818359,9.507349014,-0.013753369,1.068169951,-55.82319641,-57.89510345,14.49454784, 
53,532069205,-31.17804527,-84.65122986,150.0232239,9.553370476,-0.017823953,0.97243762,-59.92980957,-65.39461517,16.61598015, 
54,532085872,-42.89118958,-85.37339783,160.7822113,9.691612244,0.093603939,0.453111202,-59.82323837,-70.03218842,19.61190414, 
55,532102539,-59.70530701,-85.87497711,176.7211304,9.885230064,0.345267206,-0.292002201,-55.40732193,-77.11746979,23.11654091, 
56,532119206,-79.82993317,-85.94285583,-163.9949799,10.09629726,0.228662297,-0.623612821,-53.46483994,-79.99692535,25.63976288, 
57,532135873,-98.43943787,-85.51450348,-146.1704865,10.21933937,-0.146087602,-0.61021173,-50.12903976,-80.25850677,27.6674099, 
58,532152540,-113.7541885,-84.65258026,-131.6796265,10.40488911,-0.52727443,-0.228484064,-52.64316559,-86.79803467,29.7915535, 
59,532169207,-124.406395,-83.52110291,-121.9790421,10.55015755,-0.666134775,0.37214309,-60.20047379,-86.35784149,31.10765266, 
60,532185874,-131.6494141,-82.24581909,-115.7605743,10.37426567,-0.554792702,0.361996233,-64.36936188,-84.70324707,32.79763031, 
61,532202541,-136.3499603,-80.87650299,-111.8887177,10.18267822,-0.374871135,-0.276047528,-52.27778244,-82.9378891,36.47729874, 
62,532219208,-139.4065552,-79.46580505,-109.3846512,9.674109459,-0.343592465,-1.445324421,-35.37773895,-81.39888763,38.85951233, 
63,532235875,-141.8756714,-77.9934082,-107.233078,9.641551018,-0.460321009,-2.090251923,-21.55262184,-85.65262604,37.69596481, 
64,532252542,-143.6188049,-76.51338196,-105.6140594,11.54051495,-1.601212144,-1.933100343,-9.809004784,-84.87526703,37.92206955, 
65,532269209,-145.030014,-75.14250183,-104.2789612,13.18797684,-2.27221489,-2.036593437,-6.97654438,-79.45102692,33.21990967, 
66,532285876,-146.4960327,-73.93945313,-102.9447632,13.78126621,-2.133647919,-2.505919933,-10.7767725,-72.91491699,24.06396675, 
67,532302543,-147.8091278,-72.9450531,-101.8493271,12.95564938,-1.614029765,-3.375998974,-15.7697506,-61.55977249,17.68474579, 
68,532319210,-148.4038086,-72.18917084,-101.5094604,11.36502934,-2.007926464,-4.147257328,-16.19856071,-42.95792007,19.85630989, 
69,532335877,-148.4881287,-71.54311371,-101.6694717,11.85420036,-2.84612298,-4.379035473,-14.12627602,-32.51935577,23.84902382, 
70,532352544,-148.3420868,-70.89437866,-101.8509979,12.34526062,-2.961420298,-4.743153572,-1.507393003,-32.22558594,24.26728249, 
71,532369211,-147.9554443,-70.15390015,-101.9599915,12.12409401,-2.395278692,-5.135076046,17.07022858,-37.33764267,26.07820129, 
72,532385878,-147.4661407,-69.35787964,-102.0653992,12.08196735,-2.069889784,-5.249936581,23.49089622,-39.76941299,28.10317802, 
73,532402545,-147.1192322,-68.5909729,-102.1299133,12.20076752,-2.065773487,-5.100226879,17.3054409,-38.35770416,26.77849579, 
74,532419212,-146.9065857,-67.87214661,-102.1490173,12.46308422,-2.277699232,-4.758998394,11.83764076,-36.20205688,24.60697937, 
75,532435879,-146.6535187,-67.22833252,-102.1872253,12.66856098,-2.403575659,-4.658931732,13.23532009,-32.02815628,22.682827, 
76,532452546,-146.2805939,-66.70017242,-102.267662,12.80272579,-2.455351591,-4.479660988,18.11818504,-25.53135109,19.89174652, 
77,532469213,-145.8656769,-66.33861542,-102.4188004,12.64396858,-2.173903227,-4.12806797,16.77708817,-16.14144897,15.94638824, 
78,532485880,-145.5186157,-66.09989929,-102.6389389,12.3008213,-1.879630089,-3.955344439,8.94739151,-9.019421577,13.37715244, 
79,532502547,-145.082901,-66.00593567,-103.0417938,12.03957081,-1.533913016,-3.884725094,4.276817799,0.717636228,12.26999474, 
80,532519214,-144.5262909,-66.03206635,-103.585434,11.7858448,-1.345548987,-3.948974848,3.844449759,8.654747963,11.03875351, 
81,532535881,-143.7852173,-66.20267487,-104.2958069,11.50598335,-1.536677361,-4.048744678,5.767752647,18.11986923,9.227675438, 
82,532552548,-142.8894501,-66.51272583,-105.158287,10.94063568,-1.563359976,-3.711328506,6.640142918,27.03586388,6.874231339, 
83,532569215,-141.866333,-66.96006775,-106.154213,10.11023903,-1.586084127,-3.280550957,6.791654587,35.38831329,3.732024431, 
84,532585882,-140.7498474,-67.49819946,-107.2253342,9.624567986,-1.617743373,-3.069845438,8.037166595,40.47334671,0.717678428, 
85,532602549,-139.4819794,-68.16802979,-108.4727478,9.287297249,-1.933347583,-2.618333817,7.053215504,48.67573166,-2.564006805, 
86,532619216,-138.1427155,-68.97789001,-109.868454,8.860267639,-1.96911478,-2.089743614,2.671736002,56.4248848,-7.423476696, 
87,532635883,-136.8947754,-69.88575745,-111.2798233,8.339443207,-1.890996814,-1.859885693,-4.17879343,59.94010925,-13.28939056, 
88,532652550,-135.7185974,-70.89016724,-112.7811661,8.141007423,-1.526797891,-1.832821369,-14.08922577,64.10345459,-18.21860886, 
89,532669217,-134.1436615,-72.01354218,-114.7756042,8.147997856,-1.273112893,-2.0417099,-18.79174805,74.17453766,-19.26679611, 
90,532685884,-131.7259979,-73.25254059,-117.5625,8.00190258,-1.09837985,-2.118024349,-14.4012146,86.80386353,-18.82373238, 
91,532702551,-128.8878632,-74.48388672,-120.6611252,7.707909107,-1.09185338,-2.351337194,-8.194517136,86.84857941,-21.28697586, 
92,532719218,-126.0871353,-75.71376038,-123.7152481,7.523261547,-1.162692785,-2.532356262,-8.944477081,82.04813385,-28.21436691, 
93,532735885,-123.1735153,-76.9598465,-126.9708939,6.91551733,-1.359568715,-2.35863471,-14.91126633,80.30796051,-33.62633133, 
94,532752552,-119.8639374,-78.14502716,-130.720993,6.113698483,-1.500344634,-1.904225469,-21.06311417,78.48195648,-33.62046432, 
95,532769219,-116.4322586,-79.17710876,-134.6622009,5.980125427,-1.474434376,-1.696825504,-25.89069557,70.26048279,-31.07837486, 
96,532785886,-112.7711792,-80.03427124,-138.8610229,6.218680859,-1.654712915,-1.776278377,-28.0739727,62.87189102,-26.30779076, 
97,532802553,-108.2465591,-80.77639771,-143.9304962,6.026982307,-1.829967856,-1.429881454,-28.40345192,63.30055618,-22.47283554, 
98,532819220,-103.2100601,-81.36837006,-149.513855,5.507402897,-1.959205151,-1.040594459,-28.71380424,59.95720291,-18.72162247, 
99,532835887,-98.17567444,-81.80139923,-155.1282349,5.484181881,-1.811514258,-0.365897208,-31.150383,53.60078812,-15.11548519, 
100,532852554,-93.37464905,-82.10564423,-160.4271088,5.850417614,-1.724172831,-0.036374468,-26.71881485,46.45980835,-12.52418137, 
101,532869221,-89.33429718,-82.32831573,-164.8203888,6.128986835,-1.678018928,-0.039729379,-18.73004532,36.33880234,-11.44480038, 
102,532885888,-86.60728455,-82.4980011,-167.8890076,6.595529079,-1.640823722,0.040400356,-18.88441658,24.26447868,-10.03923035, 
103,532902555,-85.0843811,-82.62419128,-169.8059387,7.501354218,-1.723986745,0.034743231,-22.6640873,14.62279797,-7.713811874, 
104,532919222,-84.14742279,-82.69851685,-171.157196,8.475667,-1.9314605,-0.224815339,-24.19264984,10.20305443,-4.552155972, 
105,532935889,-83.64857483,-82.72743225,-172.0217133,9.145578384,-2.046333075,-0.613997877,-21.52113342,6.682819843,-1.636334181, 
106,532952556,-83.2127533,-82.7158432,-172.8133087,9.538852692,-2.143231392,-0.820118606,-20.92973518,6.42386198,0.700950384, 
107,532969223,-82.77204132,-82.68519592,-173.6116791,9.459097862,-2.249586821,-0.755350649,-21.05121613,6.694268703,1.722604275, 
108,532985890,-82.6599884,-82.64234924,-173.9721985,9.211071968,-2.25374794,-0.318227232,-14.69769478,3.54873848,2.753707409, 
109,533002557,-82.93876648,-82.59901428,-173.7821655,9.180500031,-2.233541489,0.014621048,-5.369050026,-0.623630881,3.226988792, 
110,533019224,-83.21634674,-82.54907227,-173.4685211,9.305531502,-2.070393562,0.404747576,2.054132223,-1.551950336,3.655527592, 
111,533035891,-83.67321777,-82.49407959,-172.9369202,9.43811512,-1.794540286,0.461119026,4.267696857,-3.279181242,4.065920353, 
112,533052558,-84.67084503,-82.44374084,-171.8781128,9.632813454,-1.445927739,0.513068676,3.159960985,-7.539203167,4.137162685, 
113,533069225,-86.23008728,-82.39459991,-170.2786407,9.604586601,-1.299072027,0.587886691,1.614081144,-11.98689079,4.209404469, 
114,533085892,-88.24212646,-82.33681488,-168.2424927,9.515713692,-1.267601013,0.57916218,0.392201245,-15.68443871,4.514927864, 
115,533102559,-90.43450928,-82.26019287,-166.0510254,9.504303932,-1.110931039,0.700688481,-1.220613003,-17.2494297,5.074899673, 
116,533119226,-92.44972992,-82.17933655,-164.0445251,9.586004257,-0.962486684,0.782247663,-1.611526966,-16.151371,4.720777035, 
117,533135893,-94.10838318,-82.14199829,-162.3986816,9.645819664,-0.894945681,0.727831483,-1.687647581,-13.37088871,1.7770679, 
118,533152560,-95.83348846,-82.16812134,-160.7144012,9.730130196,-0.829181254,0.566340983,-3.397808552,-13.46105766,-2.411488533, 
119,533169227,-97.43761444,-82.25945282,-159.1915588,9.901867867,-0.667348623,0.564727545,-5.733202457,-11.56465626,-6.489482403, 
120,533185894,-98.41479492,-82.42755127,-158.3901672,9.904420853,-0.398817718,0.868414342,-10.99227715,-4.90584898,-10.44517612, 
121,533202561,-99.26791382,-82.65535736,-157.803894,9.609974861,-0.272206455,1.010235429,-16.33642197,-2.433325768,-13.70879841, 
122,533219228,-100.6481628,-82.90239716,-156.7446289,9.493887901,-0.07777705,0.945420563,-19.80497551,-5.406878948,-15.41346264, 
123,533235895,-102.4934464,-83.184021,-155.3209686,9.397245407,0.035900418,0.758342445,-25.97055244,-6.923406601,-17.98509789, 
124,533252562,-104.6447601,-83.53201294,-153.6808472,9.304162025,-0.218445733,0.430149436,-31.37929916,-6.40520668,-22.2481308, 
125,533269229,-107.021553,-83.93508911,-151.8181763,9.303045273,-0.652240694,0.239036545,-31.57715988,-5.423098087,-25.81173515, 
126,533285896,-109.6258469,-84.35569,-149.6824493,9.451568604,-0.745553136,0.111726716,-28.84506798,-4.795095444,-27.26097488, 
127,533302563,-112.1033325,-84.80129242,-147.728241,9.531160355,-0.60060358,0.177490547,-31.97636414,-1.174388289,-28.12894058, 
128,533319230,-115.9143524,-85.17420197,-144.3716583,9.498778343,-0.661914647,-0.61813283,-28.07929039,-7.349668503,-26.77791595, 
129,533335897,-123.7214584,-85.21005249,-136.9938965,10.43856621,-0.831772387,-1.943367362,-27.35970306,-31.45594406,-19.49408531, 
130,533352564,-131.8110046,-84.95352173,-129.3668518,10.84264565,-1.348032355,-3.292958975,-29.45218849,-40.65098572,-11.08507442, 
131,533369231,-138.5279083,-84.54695129,-123.1414948,10.63609695,-1.373501062,-3.72060585,-31.06532669,-41.43371582,-6.324130058, 
132,533385898,-143.9400482,-83.9985733,-118.2736435,10.34179401,-1.034313679,-3.380381346,-34.10796738,-43.75874329,-1.467072725, 
133,533402565,-148.890564,-83.21427155,-113.8607407,10.15945816,-0.991590559,-3.075179577,-33.85031891,-55.1890831,2.073116064, 
134,533419232,-152.5125275,-82.49501801,-110.861351,9.65236187,-1.486100197,-2.584704876,-38.70393372,-48.15727234,2.180444717, 
135,533435899,-154.9043427,-82.13373566,-109.2071838,8.851665497,-2.141340733,-2.384896755,-45.10169983,-24.80482864,-1.774618268, 
136,533452566,-157.3595581,-81.92576599,-107.4511032,7.807108879,-2.031081438,-1.710005045,-42.93231201,-16.74614716,-7.890963078, 
137,533469233,-160.2321014,-81.70180511,-105.2018738,8.163826942,-1.203589439,-1.044547558,-38.74680328,-18.86847115,-12.73635101, 
138,533485900,-163.1445007,-81.42228699,-102.9513016,9.209261894,-0.513681829,-1.521765709,-41.16360474,-21.55527306,-13.26419544, 
139,533502567,-166.0177155,-80.95482635,-100.7266006,10.37993145,-0.276035339,-2.898526192,-40.47057343,-31.86149788,-11.98241711, 
140,533519234,-168.3653412,-80.38147736,-98.87274933,11.31413937,-0.515222549,-3.581476927,-31.08531189,-36.86074066,-9.679749489, 
141,533535901,-169.9637756,-79.90449524,-97.44411469,11.77487087,-1.053787231,-3.364645243,-11.43169689,-30.07612419,-8.765544891, 
142,533552568,-171.2781982,-79.61264801,-96.06576538,11.55649662,-1.271711588,-2.813001394,2.5283041,-18.81300735,-11.43648624, 
143,533569235,-172.72789,-79.45700836,-94.42050934,10.84623051,-0.934468389,-2.441766739,10.09062004,-10.84991646,-16.30438042, 
144,533585902,-174.3782501,-79.349617,-92.54145813,10.20903397,0.028299484,-2.184650898,11.78007984,-7.829126835,-19.77109718, 
145,533602569,-176.221283,-79.21945953,-90.56468964,9.833716393,0.767476141,-2.229020119,5.940396786,-8.677651405,-21.22291565, 
146,533619236,-178.1580811,-79.13568878,-88.56956482,9.619363785,1.082957983,-2.12294817,1.36182332,-5.191690922,-22.03486252, 
147,533635903,179.9347382,-79.10894012,-86.61345673,9.371659279,1.176560879,-1.719900966,0.830307543,-1.001560807,-21.88406563, 
148,533652570,178.1076965,-79.09647369,-84.76807404,9.242526054,1.208889723,-1.418328047,-0.881846607,0.5427019,-20.63339233, 
149,533669237,176.3134308,-79.08045959,-82.9845047,9.480097771,1.015138149,-1.513090968,-2.554895639,0.930171251,-19.90005684, 
150,533685904,174.5344543,-79.09257507,-81.27211761,9.82934761,0.873790741,-1.361376524,-5.812657356,3.171324492,-18.89844894, 
151,533702571,172.7626495,-79.18235016,-79.59284973,9.92523098,0.650544584,-1.62442565,-7.317368507,8.300750732,-17.79720497, 
152,533719238,171.1761322,-79.28090668,-78.07170868,9.613271713,0.91190064,-1.928426027,-5.484325409,9.065683365,-15.5565052, 
153,533735905,169.7532806,-79.37077332,-76.7784729,9.27963829,1.090797067,-2.046164989,-9.073935509,8.528468132,-12.74129391, 
154,533752572,168.5831451,-79.41009521,-75.73047638,8.886246681,1.043813944,-2.184951782,-8.348299026,5.340476036,-10.34396458, 
155,533769239,167.8963165,-79.35042572,-75.11475372,9.241001129,1.022850633,-2.684336185,-4.834717751,-1.242203355,-6.77643013, 
156,533785906,167.4590454,-79.2959671,-74.80675507,9.754323006,0.862160683,-3.236887217,-8.006736755,-1.530179858,-3.39374733, 
157,533802573,167.0295258,-79.27867126,-74.57054138,9.51613903,0.457373261,-3.32548666,-11.77147293,0.578725576,-2.133641243, 
158,533819240,166.7382965,-79.1499939,-74.45340729,9.407797813,0.143318191,-3.211940527,-10.4948473,-6.128686428,-2.377141237, 
159,533835907,166.175766,-78.98801422,-74.12187958,9.975860596,-0.110683173,-3.349973679,-14.14577579,-7.39243269,-5.314024925, 
160,533852574,164.9920959,-78.96453857,-73.2048111,10.03123665,-0.062815599,-2.999473572,-16.94968987,2.492714643,-9.953557014, 
161,533869241,163.580307,-79.02397156,-71.94685364,9.638392448,-0.207924888,-2.591238737,-10.56464767,8.629061699,-12.35747433, 
162,533885908,162.3106079,-79.06584167,-70.65838623,9.442234993,-0.159056738,-1.988649011,-0.249826491,8.023819923,-12.81115055, 
163,533902575,161.2460022,-79.10073853,-69.44432068,9.516192436,0.018006982,-1.536957622,7.670889854,7.621687889,-11.99794769, 
164,533919242,160.4857788,-79.15353394,-68.40355682,9.540084839,0.497742504,-1.405294895,15.72139835,8.139183044,-9.679104805, 
165,533935909,160.0581055,-79.20540619,-67.62661743,9.582557678,0.854489267,-1.502500415,20.13843536,7.141300678,-6.790130615, 
166,533952576,159.9169617,-79.2828598,-67.04733276,9.637348175,0.819890916,-1.728558779,25.68877792,7.81900692,-4.103395462, 
167,533969243,159.9978333,-79.38952637,-66.57234192,9.853121758,0.899862885,-1.55982554,32.87007141,9.044347763,-2.3607831, 
168,533985910,160.0722961,-79.57304382,-66.05030823,9.931553841,0.938638508,-1.454562783,35.28162766,13.50647068,-1.21225512, 
169,534002577,160.0826569,-79.83730316,-65.48300934,9.661685944,1.015536785,-1.358345628,34.12736893,18.15721321,0.091777191, 
170,534019244,160.1698914,-80.09333038,-65.03864288,9.497968674,1.051297903,-1.370794892,31.51927757,17.18524551,1.275563002, 
171,534035911,160.2215729,-80.31399536,-64.62319946,9.439393044,1.150416732,-1.570106983,27.69332314,15.02809143,0.933631063, 
172,534052578,160.2377625,-80.51834106,-64.26482391,9.507131577,1.175346971,-1.796772957,22.21325874,13.88291454,1.241290331, 
173,534069245,160.4140167,-80.74520111,-64.13201904,9.478222847,1.145066738,-1.891797185,18.48395729,14.40113258,3.851177931, 
174,534085912,161.0931549,-80.95874023,-64.48305511,9.482439041,1.027173042,-1.868397832,20.0075264,12.14955807,7.895471573, 
175,534102579,162.113327,-81.12872314,-65.13770294,9.556427956,0.560414195,-2.006057501,22.47295952,8.932941437,9.551592827, 
176,534119246,163.1902161,-81.25769806,-65.87584686,9.806188583,0.475507528,-2.065539837,20.91033554,6.566182137,9.301290512, 
177,534135913,164.4624176,-81.36203003,-66.90635681,9.973997116,0.457939237,-2.187539577,15.28207397,4.642839432,11.2269907, 
178,534152580,164.9509888,-81.53740692,-67.09828949,10.13005829,0.716674328,-2.318053961,17.99572372,10.95816135,4.928166866, 
179,534169247,165.3852386,-81.66078186,-67.2519455,10.31801414,0.892711163,-1.88677907,17.00707817,8.107806206,3.701212645, 
180,534185914,165.6251984,-81.80238342,-67.26592255,10.44441319,0.812851846,-1.692618847,13.65461159,9.514545441,2.767141104, 
181,534202581,165.689621,-81.87312317,-67.20702362,10.26290798,0.490326762,-1.772461891,7.451575279,5.556132317,1.105745435, 
182,534219248,165.4357452,-81.92337799,-66.90341949,10.04636192,0.253403932,-2.028466225,2.891744137,4.891442776,-1.193577528, 
183,534235915,164.9417419,-82.02043915,-66.28578186,9.74857235,-0.035446025,-2.107642651,7.136630535,8.29883194,-2.989093304, 
184,534252582,164.2657166,-82.13269043,-65.45398712,9.415928841,0.297457069,-2.113156557,8.946118355,9.698773384,-4.348245144, 
185,534269249,163.4925995,-82.22943878,-64.56807709,9.26938343,0.232063979,-2.242751122,6.355865002,9.000749588,-4.85159874, 
186,534285916,162.8618011,-82.27173615,-63.86077881,8.980323792,0.126346141,-2.155153751,4.27474165,5.543313503,-4.274607182, 
187,534302583,162.6485596,-82.26163483,-63.61091995,8.521769524,0.358816147,-1.973735094,2.134760857,1.521861792,-1.65826869, 
188,534319250,163.1351166,-82.18390656,-63.9207077,8.366947174,0.433730364,-1.991723299,10.84747601,-3.665563107,1.471341491, 
189,534335917,164.1873322,-81.97669983,-64.71754456,9.171784401,1.017912984,-1.979930639,15.84810352,-12.22216702,3.255398273, 
190,534352584,165.2616425,-81.75054932,-65.65859222,10.284482,1.484592676,-2.126553535,8.649666786,-13.59090614,4.591970921, 
191,534369251,166.4027557,-81.60581207,-66.73244476,10.32850361,1.519045472,-2.277799606,4.807896614,-9.079680443,7.422839642, 
192,534385918,167.8255157,-81.50678253,-68.00727081,10.06416321,0.9467839,-2.022311926,9.822075844,-6.630352974,10.18370247, 
193,534402585,169.2972107,-81.38694,-69.31440735,9.953467369,0.324788243,-1.769865394,10.87429619,-7.675017834,10.58738327, 
194,534419252,170.5026245,-81.2798996,-70.41551971,10.07358837,-0.117953636,-1.855350733,7.139562607,-6.385518551,9.25020504, 
195,534435919,171.3809357,-81.18953705,-71.22660065,9.93981266,0.103423245,-1.912368774,4.726806641,-4.841877937,7.016710758, 
196,534452586,172.0824738,-81.14980316,-71.85268402,9.73500061,0.312240183,-1.845239401,5.101378441,-1.497267604,5.897344589, 
197,534469253,172.7259674,-81.11637115,-72.42201233,9.677428246,0.625218809,-1.751288176,4.992447853,-0.985794604,5.485710621, 
198,534485920,173.1682434,-81.01882935,-72.85134125,9.837641716,0.76813072,-1.661980629,1.223076701,-4.607366085,3.800328732, 
199,534502587,173.5041351,-80.86434174,-73.15791321,9.851877213,0.965963244,-1.609464407,2.130996227,-7.854392529,2.376660585, 
200,534519254,173.7567291,-80.73723602,-73.40576172,9.707093239,0.744064569,-1.547678828,0.625724733,-6.167986393,2.128767967, 
201,534535921,174.10112,-80.6587677,-73.78110504,9.460178375,0.548705518,-1.452008605,-1.398812294,-3.400611639,3.759541512, 
202,534552588,174.6304321,-80.60897064,-74.39041901,9.522432327,0.443596721,-1.661549687,-4.148054123,-1.911514521,6.282840729, 
203,534569255,175.1295013,-80.52136993,-75.00064087,9.776128769,0.616654694,-1.788900852,-6.005987167,-4.12940836,6.177112579, 
204,534585922,175.3312073,-80.41552734,-75.32470703,10.11211109,0.618671,-2.000864744,-6.892390728,-4.960424423,3.369165182, 
205,534602589,175.3333588,-80.37817383,-75.45837402,10.19159698,0.484246045,-2.163633585,-7.604129791,-0.710188985,1.862421393, 
206,534619256,175.315979,-80.42328644,-75.57401276,10.03001308,0.156745747,-2.169156313,-7.697707653,4.251229286,2.097187757, 
207,534635923,175.2889862,-80.51222992,-75.6966629,10.24141788,0.18094261,-2.270090818,-8.692773819,6.871346474,2.372665644, 
208,534652590,175.1512451,-80.62587738,-75.72297668,10.31170368,-0.134578779,-2.120660543,-9.644134521,8.43694973,1.546617389, 
209,534669257,174.6069183,-80.8181076,-75.27085876,10.07300091,0.037895411,-1.94809556,-5.709740162,13.55444813,-2.623241663, 
210,534685924,173.947525,-81.06320953,-74.71153259,10.12975788,0.455958307,-1.839130163,-6.255703926,16.82557106,-3.096066475, 
211,534702591,173.0793457,-81.35764313,-73.99380493,9.906729698,0.259178638,-1.707068563,-9.364391327,19.96666336,-3.834625006, 
212,534719258,172.2747345,-81.65616608,-73.32343292,9.482415199,0.205962196,-1.441560745,-8.333823204,20.18662643,-2.897697449, 
213,534735925,171.6008453,-81.94280243,-72.80434418,9.26422596,0.748005748,-1.202844381,-9.44586277,19.30166435,-1.275821686, 
214,534752592,171.3808899,-82.11872864,-72.78392792,9.164355278,0.513242304,-1.01617384,-11.82649612,12.09340096,2.133046865, 
215,534769259,171.9118958,-82.1341095,-73.43554688,9.382226944,0.346674114,-1.062924504,-6.705982208,1.743271112,6.188112736, 
216,534785926,172.8802795,-82.03437805,-74.49017334,9.864614487,0.154960245,-1.167537928,-4.406513214,-5.50305748,8.604814529, 
217,534802593,173.7641449,-81.99248505,-75.4439621,9.988576889,-0.055094562,-1.520186782,-3.475016832,-1.861313701,8.358559608, 
218,534819260,174.7814026,-81.98149109,-76.52978516,9.842967987,0.26026845,-1.205161929,-3.318152189,-0.019542499,9.710001945, 
219,534835927,175.8384094,-81.95343018,-77.72770691,9.754434586,0.360436648,-1.15029192,-7.583654881,-0.966226637,10.6145277, 
220,534852594,176.9486694,-81.86669922,-78.9752655,9.519386292,0.431057006,-0.965888977,-7.328745365,-4.358836174,10.93807125, 
221,534869261,178.160553,-81.71900177,-80.26911163,9.736584663,0.313324511,-1.054563761,-3.941797018,-7.844675541,11.45926476, 
222,534885928,179.4536896,-81.57918549,-81.55832672,9.829395294,0.10013482,-1.169511676,1.242005467,-7.17025423,11.83021259, 
223,534902595,-179.2948456,-81.38500214,-82.82430267,9.983698845,-0.104795776,-1.243560553,0.152914345,-10.21504402,12.03866291, 
224,534919262,-178.2248383,-81.21807861,-83.87759399,10.18656921,-0.34068194,-1.376254916,1.917284727,-8.405555725,10.534235, 
225,534935929,-177.3688202,-81.0996933,-84.67590332,10.24620914,-0.208091632,-1.373569727,4.215794086,-5.437680721,8.371480942, 
226,534952596,-176.6365814,-81.12320709,-85.35753632,9.805752754,-0.286870122,-1.262733221,3.698263168,3.096313238,6.968903065, 
227,534969263,-175.802536,-81.04436493,-86.07744598,9.544985771,-0.078865662,-1.535082579,7.540132046,-2.942899942,7.70872736, 
228,534985930,-174.8647766,-80.98032379,-86.97753906,9.864173889,0.25029853,-1.410717726,3.116919518,-1.811420441,9.428992271, 
229,535002597,-174.2613525,-81.00147247,-87.59137726,9.695835114,-0.029272759,-1.334444165,-9.22E-04,3.119582415,6.346180916, 
230,535019264,-173.8800964,-80.8445282,-87.93086243,9.424741745,0.222089037,-0.998886228,2.921058655,-7.739340305,4.896221161, 
231,535035931,-173.6087952,-80.60564423,-88.17792511,10.13062954,0.093034931,-1.506171942,1.85824728,-12.71990204,4.67103529, 
232,535052598,-173.1061401,-80.71295166,-88.62732697,10.45921612,-0.020798931,-1.926082134,3.733224392,8.150687218,4.348813057, 
233,535069265,-172.5881653,-80.91874695,-89.07594299,10.0928297,-0.284717888,-1.554927588,4.691257954,14.03544426,3.472886086, 
234,535085932,-172.2543488,-81.05051422,-89.3310318,10.04206085,-0.539341033,-1.697050929,5.131691933,9.398576736,2.068616629, 
235,535102599,-172.1763611,-81.19400024,-89.33387756,10.04312229,-0.743985951,-1.949674964,4.67604208,9.772830009,-0.420906484, 
236,535119266,-172.212738,-81.42456055,-89.20534515,9.960400581,-0.823051274,-2.013463974,5.60235405,14.78858757,-2.343141556, 
237,535135933,-172.3195343,-81.71881104,-88.98778534,9.738426208,-0.702080548,-1.654313445,6.664222717,18.50287628,-3.61877203, 
238,535152600,-172.4302521,-81.92963409,-88.73554993,9.668525696,-0.473296285,-1.459844828,8.453421593,13.50719643,-3.179947376, 
239,535169267,-172.6786194,-82.11972809,-88.33655548,9.596535683,-0.559846163,-1.584859014,8.956262589,12.14144897,-4.166024685, 
240,535185934,-172.8093567,-82.20940399,-87.99378967,9.817117691,-0.256756246,-1.687353253,12.65003872,6.237792015,-2.87255621, 
241,535202601,-172.8049622,-82.36938477,-87.81342316,10.29994774,-0.234937131,-1.786126256,11.12176704,10.6159544,-2.068419218, 
242,535219268,-172.6557312,-82.65618134,-87.77113342,9.874675751,-0.19451949,-1.54978323,11.58475208,18.29681396,-1.934901714, 
243,535235935,-172.5607605,-82.94865417,-87.71295929,9.400931358,-0.327519983,-1.289159775,9.293152809,18.63446617,-2.131569147, 
244,535252602,-172.5616608,-83.16735077,-87.53037262,9.568449974,-0.35589385,-1.113063335,10.9305706,14.11858654,-2.461997747, 
245,535269269,-172.4715271,-83.3759613,-87.43854523,9.652348518,-0.208340839,-1.093675852,10.98923683,13.58711147,-1.732240081, 
246,535285936,-172.1298065,-83.54943848,-87.54042053,9.751338005,-0.158415228,-1.246474504,14.5253315,11.65886974,-0.172232807, 
247,535302603,-171.5775299,-83.64362335,-87.8447113,10.04624081,-0.118435659,-1.338366866,15.10245895,7.144086838,1.738662004, 
248,535319270,-171.2055206,-83.76244354,-88.02851868,10.09807491,-0.156163096,-1.388452411,11.47206974,8.496153831,0.648187399, 
249,535335937,-170.9707794,-83.91608429,-88.05645752,9.845516205,-0.101855747,-1.256038427,12.5125885,10.39131832,-0.730397999, 
250,535352604,-170.7927399,-84.00615692,-88.07256317,9.824122429,-0.121831067,-1.364339232,9.822980881,6.618152142,-0.240823537, 
251,535369271,-170.6307526,-84.09638214,-88.11257935,9.811056137,-0.036940619,-1.51923728,7.432314873,6.654187679,-0.114053398, 
252,535385938,-170.4714355,-84.18492889,-88.17906189,9.730111122,0.251712203,-1.316495538,5.686091423,6.588043213,0.046634339, 
253,535402605,-170.3294525,-84.26373291,-88.28739166,9.727853775,0.458077013,-1.194791317,2.165547609,6.074826717,0.384017646, 
254,535419272,-170.1083832,-84.35587311,-88.51546478,9.857970238,0.468245775,-1.052637815,-0.24709861,6.975460529,0.951403201, 
255,535435939,-169.7169495,-84.45362854,-88.92020416,9.901760101,0.35903129,-0.981340408,-0.565285206,7.482949734,1.881733418, 
256,535452606,-169.2097473,-84.52407074,-89.43141174,9.91713047,0.361824423,-0.848852634,0.018255454,5.978984833,2.721996546, 
257,535469273,-168.6927032,-84.52532959,-90.0355835,10.05226421,0.399617761,-1.054782152,-4.94177866,2.011115551,3.999942064, 
258,535485940,-168.1515961,-84.60102081,-90.75052643,9.800296783,0.016637707,-1.109941602,-10.11862183,6.536063194,3.713439941, 
259,535502607,-167.6929932,-84.63487244,-91.37551117,9.652173996,-0.114488237,-0.864064097,-9.691017151,3.994321585,3.662624121, 
260,535519274,-167.407074,-84.6231308,-91.79925537,9.816485405,-0.120918073,-0.891076267,-8.026650429,1.095000744,3.124180317, 
261,535535941,-167.1960449,-84.64093781,-92.14539337,10.01535892,-0.210994348,-1.04838264,-7.891774654,2.724583864,2.312180519, 
262,535552608,-167.0568237,-84.69238281,-92.42843628,10.1225071,-0.254887968,-0.931490123,-8.435557365,4.610012531,1.501372218, 
263,535569275,-166.9851837,-84.78488922,-92.67758942,10.09926128,-0.19970876,-1.03362155,-10.462883,6.959993362,0.734822392, 
264,535585942,-166.9097443,-84.9066925,-92.93151093,9.763175011,0.066028066,-1.082873821,-10.52047348,8.672523499,0.326222748, 
265,535602609,-166.6899414,-84.99211121,-93.36501312,9.69204998,0.005317893,-1.022622824,-12.60184193,6.752504349,1.713599801, 
266,535619276,-166.4357147,-85.08522797,-93.79415894,9.770401001,-0.281540006,-1.116161108,-10.26615143,7.202916145,1.525422812, 
267,535635943,-165.8649597,-85.34529114,-94.43044281,10.34595299,-0.531494677,-1.762499094,-3.683993578,17.15550041,0.011429679, 
268,535652610,-164.5465546,-85.7327652,-95.68618774,10.13860035,-0.339841336,-0.837097049,4.092105389,25.24145699,0.368983805, 
269,535669277,-163.2295532,-86.00110626,-96.92884827,9.859861374,-0.532817721,-0.821666241,4.768712521,18.2305088,1.321021438, 
270,535685944,-161.2749939,-86.3277359,-98.72546387,10.02142239,-0.457721174,-1.089933157,9.804735184,22.13010406,1.505536675, 
271,535702611,-156.6209869,-86.97360229,-103.3373718,10.19095325,0.042016409,-0.526913941,3.098702431,43.21990585,1.769701838, 
272,535719278,-151.5229797,-87.48316956,-108.6842651,9.444066048,0.252635032,0.116345637,-14.45183372,35.52235031,1.194255829, 
273,535735945,-150.0670624,-87.62538147,-110.4721603,9.557672501,-0.137490988,-0.304563016,-19.72395325,10.92207527,0.456130981, 
274,535752612,-148.9529114,-87.65949249,-111.7563095,9.916146278,-0.585519731,-0.729917884,-10.07191658,4.589304924,2.327433348, 
275,535769279,-148.0746613,-87.62653351,-112.5118332,9.693938255,-0.888239801,-0.52331394,7.539491653,0.546888947,3.216450214, 
276,535785946,-150.3012848,-87.38775635,-110.2212601,9.809939384,-0.754945338,-0.481257558,3.772670031,-14.13817024,2.788680792, 
277,535802613,-151.8224945,-87.18527222,-108.6395493,9.899550438,-1.122406125,-1.173218131,3.585684061,-11.58099461,2.505506039, 
278,535819280,-152.7202454,-86.99808502,-107.5464478,10.10541058,-1.137383223,-1.349679708,11.73663712,-10.21949959,2.785171986, 
279,535835947,-152.7237244,-86.93458557,-107.444725,9.954128265,-0.513585985,-0.286239594,5.950553894,-2.251177073,1.933009505, 
280,535852614,-153.8106232,-86.7720871,-106.5091019,10.20096874,-0.540295303,-0.439652294,-9.089183807,-8.822631836,2.09618926, 
281,535869281,-152.2398682,-86.924263,-108.1089096,10.45685863,-1.15330863,-1.097660422,-1.545701504,11.78600311,1.017599463, 
282,535885948,-151.3280945,-87.00082397,-108.7942047,9.632118225,-0.971629739,-0.29454726,13.70277405,6.340486526,0.169460163, 
283,535902615,-151.3121948,-86.96875,-108.4554443,10.0127039,-0.313818365,-0.194457933,21.29559135,-0.946608543,0.373696327, 
284,535919282,-151.0919495,-86.96178436,-108.3662643,9.964410782,0.076484397,-0.253276616,18.62404823,0.751445532,0.326415062, 
285,535935949,-152.2616882,-86.81987,-106.9635086,9.717651367,0.39827311,0.004353424,13.90553665,-8.436728477,0.414535522, 
286,535952616,-153.1442719,-86.70901489,-105.9634399,10.28667545,0.513688087,-0.350874424,7.002623081,-6.262806892,0.457820743, 
287,535969283,-152.3048859,-86.77681732,-106.6891785,10.08093071,0.449763298,0.002156378,6.965304375,5.948569775,0.774713874, 
288,535985950,-151.3789825,-86.85079193,-107.5313721,10.07026958,0.242710873,0.293121874,5.158174992,6.40801096,0.85061723, 
289,536002617,-150.0682068,-86.98065948,-108.8804321,10.11521435,0.101417668,0.114587791,-2.108066797,10.06042194,0.477555364, 
290,536019284,-148.5997314,-87.08570862,-110.3192291,9.911577225,-0.063329764,-0.164712608,1.952680707,8.799879074,1.135276794, 
291,536035951,-147.0863495,-87.1678009,-111.8158112,9.922989845,-0.031564448,-0.304427594,1.210052967,7.668039799,1.692224741, 
292,536052618,-142.8478851,-87.41593933,-115.9404984,10.05600071,-0.02937538,-0.234531641,7.148406506,19.96026802,1.561922312, 
293,536069285,-135.7954407,-87.76104736,-123.0582504,10.1476059,0.55088532,0.048615254,-3.486922741,28.45232582,0.678847373, 
294,536085952,-132.5214386,-87.89429474,-126.5277023,9.471334457,0.033962607,0.284422219,-11.42890739,12.31557465,0.285293669, 
295,536102619,-131.6794586,-87.91165161,-127.426239,10.00146484,0.030381527,-0.011291908,-3.266938448,3.202426434,1.108178377, 
296,536119286,-130.9699402,-87.93493652,-128.2072906,10.06183052,-0.095393471,0.006867649,-4.208436012,3.207600355,0.663029611, 
297,536135953,-131.3920746,-87.94910431,-127.8434143,10.04980564,-0.059025139,-0.124038182,-3.404709101,0.985877752,-0.585301459, 
298,536152620,-131.2972107,-87.99260712,-128.0875244,10.26731586,-0.096541025,-0.351321459,-8.859934807,3.119057894,-1.035636902, 
299,536169287,-130.9673767,-88.03816223,-128.5644531,9.900669098,-0.332852125,-0.04918972,-8.733062744,3.547264338,-0.816738009, 
300,536185954,-130.9691467,-88.07725525,-128.6805267,10.03817463,-0.34179759,-0.242614403,-6.964081287,2.719025373,-1.042296171, 
301,536202621,-125.6460876,-88.26065826,-134.1015015,10.02763844,-0.695887566,-0.407970428,-5.635849476,15.95645237,-1.604227304, 
302,536219288,-118.1274567,-88.42467499,-141.6726532,9.840826035,-0.7751261,-0.367582887,-2.853090763,17.33657837,-0.853313565, 
303,536235955,-110.0936127,-88.5438385,-149.737381,9.940690041,-0.716323555,-0.423761725,-1.710033417,15.56826401,-0.696896553, 
304,536252622,-100.2123566,-88.63426971,-159.6717987,9.876391411,-0.505993783,-0.369028091,-2.896312714,16.57881546,-0.876288235, 
305,536269289,-91.85520172,-88.67529297,-168.0777893,9.939445496,-0.639522374,-0.361631274,-2.682547569,13.04101372,-0.719192207, 
306,536285956,-83.01074982,-88.67500305,-176.898056,9.956480026,-0.619114876,-0.085383385,1.627130747,13.23578453,-0.009809668, 
307,536302623,-76.1778183,-88.63455963,176.3413391,9.88615036,-0.517964244,0.114681818,4.531368256,10.81995296,1.137991786, 
308,536319290,-72.65725708,-88.58791351,172.9313812,9.867819786,-0.611818433,0.032568701,6.768407822,6.540429115,1.826807141, 
309,536335957,-71.49239349,-88.54626465,171.9097748,9.982398033,-0.673611045,-0.093163684,8.643064499,3.244828939,2.377992392, 
310,536352624,-73.45913696,-88.5185318,174.0359039,9.86104393,-0.588142216,-0.115510926,9.595128059,-1.609489679,2.987152338, 
311,536369291,-78.24602509,-88.49156189,178.9887848,9.778847694,-0.718596339,-0.304793507,9.91753006,-6.104994297,3.894124746, 
312,536385958,-84.36213684,-88.45452881,-174.703949,9.606737137,-0.801156878,-0.3602525,11.36886501,-8.605234146,4.129621983, 
313,536402625,-91.00386047,-88.40345001,-167.8776855,9.63793087,-0.433700502,-0.168698519,10.95398998,-10.0591774,3.905843735, 
314,536419292,-99.01109314,-88.33387756,-159.7426605,9.845335007,-0.117921151,-0.03997267,7.562007427,-13.15648556,3.27650094, 
315,536435959,-107.8890381,-88.20441437,-150.7007141,10.11367416,-0.048309632,-0.350171834,9.636554718,-16.68785095,4.113424778, 
316,536452626,-112.6374054,-88.06771851,-145.776825,10.42474556,-0.49969995,-0.454839617,10.39210033,-10.81626606,4.769300461, 
317,536469293,-113.6904907,-87.97667694,-144.5520782,10.44057274,-0.505763888,-0.44695428,10.29183292,-3.438391209,4.417967796, 
318,536485960,-112.6952438,-87.92292786,-145.3454437,10.26290131,-0.355618,-0.15807651,12.1775589,1.343790293,4.02331543, 
319,536502627,-111.3348007,-87.89624786,-146.493927,10.20230865,-0.305950314,-0.056295466,12.81120491,2.780983686,2.801819563, 
320,536519294,-109.462677,-87.9046402,-148.2447662,10.26212311,-0.27947107,-0.046033468,7.376377106,4.822623253,1.256783605, 
321,536535961,-106.9130707,-87.94919586,-150.7916107,10.04718113,-0.259667695,-0.004808306,0.323891819,7.126049042,-0.442088038, 
322,536552628,-105.5345612,-87.98812103,-152.2166901,9.783409119,-0.177699938,0.038289942,-2.723065615,4.587855816,-0.993875325, 
323,536569295,-106.0149841,-87.99045563,-151.737442,9.696008682,-0.042589106,0.16722703,-0.005276216,0.095759481,-0.045001514, 
324,536585962,-108.7426605,-87.94671631,-148.9651031,9.731920242,-0.07336887,0.177524954,2.59429121,-5.407928944,1.16930294, 
325,536602629,-112.9101563,-87.85132599,-144.7082214,9.928994179,0.050831635,0.026368298,5.259999752,-9.779163361,2.409483671, 
326,536619296,-113.9509659,-87.81949615,-143.7104187,9.914499283,-0.200380892,-0.004984022,-2.555968046,-1.83984983,1.268808246, 
327,536635963,-116.0527725,-87.78707123,-141.7098999,9.732187271,-0.468461961,0.118406266,-6.146548748,-4.015917778,0.264342278, 
328,536652630,-118.296936,-87.73246765,-139.5288086,10.16505814,-0.54716301,-0.201365769,-3.807341814,-5.067025185,0.986863852, 
329,536669297,-119.1783066,-87.69709778,-138.6601715,10.18543339,-0.568724096,-0.233839571,-0.747570693,-1.865744352,1.267399669, 
330,536685964,-120.5188828,-87.63876343,-137.3442535,10.34520817,-0.608190954,-0.326591253,-1.49927783,-3.562944412,1.854890943, 
331,536702631,-119.9223557,-87.66317749,-137.9593506,9.937214851,-0.899990976,-0.453389972,-1.046765327,3.014992714,-0.101093322, 
332,536719298,-119.7551804,-87.68404388,-138.1450043,9.772752762,-0.790672004,-0.171929896,-1.061403036,1.990100503,-0.47360447, 
333,536735965,-118.7730408,-87.71672821,-139.0973969,9.899326324,-0.654253125,0.004774807,1.851510167,3.933745861,-0.220576584, 
334,536752632,-118.1752243,-87.74501801,-139.6533813,9.991382599,-0.468673199,0.141045824,2.5571661,2.933864832,-0.499486148, 
335,536769299,-117.7901535,-87.77630615,-140.014389,10.07394409,-0.388380706,0.11874675,1.516662478,2.580754995,-0.903936267, 
336,536785966,-117.7207947,-87.79806519,-140.0761719,10.03679371,-0.288753331,0.047824744,0.477196574,1.670120597,-0.718884349, 
337,536802633,-117.6130066,-87.81143951,-140.2017365,10.00915146,-0.108831838,-0.012411606,-1.010741115,1.560165524,-0.214928955, 
338,536819300,-117.455307,-87.81555939,-140.4022217,9.920742035,-0.045687851,0.03000907,-2.498441935,1.450312734,0.354281306, 
339,536835967,-117.4121933,-87.81743622,-140.5195465,9.8489151,-0.153503329,0.082527645,-4.433226109,1.196593404,0.424306452, 
340,536852634,-117.6012802,-87.81412506,-140.3945313,9.85221386,-0.399921328,0.216997832,-3.811157703,0.563972592,0.427572101, 
341,536869301,-118.1868362,-87.80840302,-139.8249817,9.95877552,-0.516012251,0.269569486,-0.935670316,-0.418946922,0.075371772, 
342,536885968,-118.9435349,-87.8075943,-139.0802612,10.0524044,-0.498501718,0.217239588,-0.701915979,-0.641354799,-0.399314761, 
343,536902635,-119.6801224,-87.81286621,-138.3666382,10.05792522,-0.428787917,0.091089644,-1.373865128,-0.411186278,-0.688200414, 
344,536919302,-120.2384491,-87.81573486,-137.8154602,9.941609383,-0.391119301,-0.043633733,-0.375943214,-0.143264636,-0.416219175, 
345,536935969,-121.0452957,-87.80215454,-136.97995,9.874718666,-0.342194825,-0.056672651,1.754732609,-1.206703782,0.087973222, 
346,536952636,-121.5339661,-87.79460144,-136.4304047,9.893553734,-0.324835986,0.044726942,3.67156148,-0.471760273,0.105197765, 
347,536969303,-122.081665,-87.78547668,-135.8183746,9.931815147,-0.289860934,0.161718652,3.921503305,-0.650588214,0.088254973, 
348,536985970,-123.2385788,-87.75493622,-134.5876617,10.07931423,-0.316872269,0.015928268,4.404341221,-2.591915846,0.385708064, 
349,537002637,-124.2697067,-87.72807312,-133.4959106,10.08475971,-0.145939305,-0.147145033,3.664723158,-2.217778206,0.276930928, 
350,537019304,-125.4017715,-87.7011795,-132.3284149,9.92532444,-0.421628058,-0.288609922,2.137193918,-2.383543015,0.093057334, 
351,537035971,-127.6059952,-87.67695618,-130.0757141,9.87157917,-0.535484314,-0.32153368,2.85551548,-4.42618227,-1.692756176, 
352,537052638,-129.0953064,-87.68218231,-128.5881195,9.982812881,-0.687576532,-0.553830564,-0.150730744,-1.816644907,-2.112560987, 
353,537069305,-127.6179047,-87.69378662,-130.0892944,9.685264587,-0.357384145,-0.408547997,-1.296156406,4.11075592,2.071613073, 
354,537085972,-126.552475,-87.60780334,-131.2060852,9.988770485,-0.510375142,-0.360882342,-3.004754305,-0.080398276,6.129190445, 
355,537102639,-126.5900879,-87.52219391,-131.1487885,10.15316772,-0.622248352,-0.444404304,1.218940496,-2.349299431,4.405967236, 
356,537119306,-126.7545013,-87.45770264,-130.8582458,10.03983974,-0.744626641,-0.469560891,7.605033398,-2.0895226,3.005695581, 
357,537135973,-126.4808426,-87.42139435,-130.9941254,9.968789101,-0.652149796,-0.466386467,8.334354401,-0.168851748,2.311438084, 
358,537152640,-125.7026672,-87.42260742,-131.6648407,9.848152161,-0.555902958,-0.29411903,6.489689827,2.367657661,1.327256799, 
359,537169307,-125.5748062,-87.41018677,-131.6777649,9.806524277,-0.459955424,-0.145101354,6.951910019,0.438649625,0.958664358, 
360,537185974,-125.9470901,-87.35351563,-131.1694641,9.84453392,-0.286450386,-0.06406486,8.176963806,-2.274638414,2.272467852, 
361,537202641,-126.8063965,-87.24068451,-130.180191,9.886806488,-0.278726369,-0.1608316,7.752691746,-5.423593521,4.112460136, 
362,537219308,-127.9393234,-87.10538483,-128.9352875,9.975540161,-0.310328156,-0.180413708,6.694362164,-7.020994663,4.545955181, 
363,537235975,-128.8611145,-86.9879303,-127.9160538,9.967487335,-0.331459731,-0.090358973,5.802128792,-6.016718388,3.904061556, 
364,537252642,-129.8788147,-86.87851715,-126.8091583,9.888094902,-0.289392412,0.044309884,5.322276592,-6.079905987,3.149396181, 
365,537269309,-131.0816803,-86.74688721,-125.5319366,9.926159859,-0.267725796,0.022751929,4.357778072,-7.554531574,3.587399006, 
366,537285976,-132.3902893,-86.5923996,-124.1738892,10.04855728,-0.340188771,-0.115287319,2.862610579,-8.902029991,4.116531849, 
367,537302643,-133.3927307,-86.44713593,-123.1344604,10.10418606,-0.364911377,-0.258665413,2.170363188,-7.901865482,4.149444103, 
368,537319310,-134.04422,-86.31815338,-122.4563293,9.992946625,-0.425035119,-0.375291288,1.586188555,-6.4038167,4.162058353, 
369,537335977,-134.4766235,-86.20388031,-121.9932861,9.983899117,-0.522516012,-0.403126001,1.820659757,-5.308116913,4.016077995, 
370,537352644,-134.7154236,-86.11164093,-121.7291336,9.999550819,-0.60586983,-0.356000364,1.548819423,-3.84683609,3.540783644, 
371,537369311,-134.8823242,-86.04225922,-121.5518646,10.01990223,-0.674796999,-0.323769331,0.658176005,-2.660519361,2.787385702, 
372,537385978,-134.9589691,-85.99029541,-121.469368,10.04377556,-0.708984673,-0.319810212,0.374028653,-1.667117834,2.315343142, 
373,537402645,-134.766983,-85.9641571,-121.6360245,10.08566761,-0.725046337,-0.322445393,1.577761531,0.167923257,1.949325085, 
374,537419312,-134.3806152,-85.95334625,-121.9661865,10.0542717,-0.719166279,-0.324722737,3.51456809,1.304627657,1.780793309, 
375,537435979,-134.0255127,-85.95111847,-122.2491302,9.991806984,-0.670870245,-0.303937852,4.436151505,1.538189769,1.257013679, 
376,537452646,-133.7493134,-85.95214081,-122.4460297,9.887583733,-0.654446781,-0.239150196,4.808342457,1.407347441,0.866932333, 
377,537469313,-133.6352234,-85.94285583,-122.4848404,9.881095886,-0.632831514,-0.21200268,4.562230587,0.486519724,0.847735584, 
378,537485980,-133.5939941,-85.93153381,-122.4671631,9.949152946,-0.604725301,-0.252052248,3.6340518,0.232339188,0.753980279, 
379,537502647,-133.5970917,-85.92417908,-122.397316,9.973678589,-0.541066647,-0.311908931,4.063038349,0.229624242,0.430120438, 
380,537519314,-133.4419403,-85.93658447,-122.481163,9.966238022,-0.411647409,-0.248418108,4.313825607,1.502703667,0.041319691, 
381,537535981,-133.4447632,-85.93697357,-122.4400253,9.983625412,-0.308576316,-0.230757207,2.333989382,0.630104423,0.18476361, 
382,537552648,-133.3269653,-85.93206024,-122.544632,10.09999466,-0.392407954,-0.312680304,0.849618018,0.84660852,0.857135415, 
383,537569315,-133.1458893,-85.92821503,-122.7169724,9.998062134,-0.47139433,-0.355242908,0.60210979,1.105885983,1.004318833, 
384,537585982,-133.1792603,-85.91726685,-122.6914444,9.927398682,-0.580489576,-0.365961283,-0.427783281,0.19030875,0.747858763, 
385,537602649,-133.1785736,-85.91975403,-122.7023849,9.906463623,-0.63317275,-0.329460591,-0.546318889,0.859888732,0.256453544, 
386,537619316,-133.2451935,-85.9169693,-122.6417847,9.928348541,-0.683445394,-0.367902339,-0.316329628,0.421079159,0.273460329, 
387,537635983,-133.2426147,-85.92119598,-122.6459274,10.01702309,-0.721889436,-0.40862748,-0.031772554,0.898448646,0.162672639, 
388,537652650,-133.0705872,-85.94498444,-122.8228149,10.02715206,-0.710070729,-0.345529199,-0.219334349,2.238556385,-0.196167663, 
389,537669317,-132.9244232,-85.97323608,-122.9722595,9.973110199,-0.686923802,-0.296828896,-0.128831878,2.330198765,-0.484195322, 
390,537685984,-132.9467773,-85.98887634,-122.944664,9.971514702,-0.669091761,-0.316894561,0.395773828,1.263327122,-0.449054629, 
391,537702651,-133.0772247,-85.99474335,-122.804863,9.933842659,-0.677136838,-0.35411033,0.597089648,0.511722505,-0.334373772, 
392,537719318,-133.2813416,-85.99425507,-122.5871582,9.897387505,-0.743710458,-0.362227738,0.827949643,0.015911888,-0.285056502, 
393,537735985,-133.5071411,-85.99073792,-122.340004,9.8695364,-0.766120851,-0.37580651,1.325143456,-0.198857009,-0.250274509, 
394,537752652,-133.7358398,-85.98731232,-122.0822449,9.898910522,-0.793181598,-0.38398537,1.758702278,-0.221280903,-0.295788258, 
395,537769319,-133.927597,-85.98970795,-121.8634033,9.948411942,-0.737391174,-0.397417635,1.644520879,0.135881767,-0.440179855, 
396,537785986,-133.9868774,-86.00228119,-121.7794876,9.935852051,-0.688204944,-0.398876697,1.518775344,0.974620819,-0.497859597, 
397,537802653,-134.1031036,-86.00889587,-121.6439743,9.915241241,-0.668312311,-0.383826494,1.167497277,0.560092032,-0.380399793, 
398,537819320,-134.2662964,-86.00948334,-121.4819489,9.952334404,-0.684858024,-0.346437931,-0.031798165,0.23604022,-0.21033147, 
399,537835987,-134.4092255,-86.01345825,-121.3521652,9.95058918,-0.709020436,-0.338933945,-0.756214917,0.468757272,-0.259892076, 
400,537852654,-134.5314941,-86.0222168,-121.2468948,9.937003136,-0.708173335,-0.366765708,-0.982823253,0.751098812,-0.405487448, 
401,537869321,-134.671463,-86.02674866,-121.1205215,9.890499115,-0.683120131,-0.379051894,-0.809630275,0.499671787,-0.275131643, 
402,537885988,-134.7848816,-86.02625275,-121.012146,9.911089897,-0.708117664,-0.410580784,-0.261057407,0.347788393,-0.02156589, 
403,537902655,-134.8544159,-86.03326416,-120.9567261,9.927609444,-0.72692579,-0.367100477,-0.818005502,0.814323783,-0.183220446, 
404,537919322,-134.9810791,-86.03868866,-120.8548813,9.863836288,-0.79215914,-0.34912312,-1.464687824,0.615633309,-0.259405434, 
405,537935989,-135.3361053,-86.02896881,-120.5233078,9.832713127,-0.807370901,-0.321765363,-1.386377096,-0.702415407,-0.302511603, 
406,537952656,-135.837677,-86.00747681,-120.0442123,9.855833054,-0.813535213,-0.372378528,-1.378705978,-1.637970686,-0.265590906, 
407,537969323,-136.4174042,-85.97576904,-119.4870987,9.849001884,-0.867260456,-0.413002938,-1.401399016,-2.30770421,-0.116307281, 
408,537985990,-136.9783325,-85.94039917,-118.9441376,9.877069473,-0.923573971,-0.405815035,-1.11822474,-2.443374395,0.030664802, 
409,538002657,-137.4735718,-85.90988159,-118.4533615,9.838057518,-0.924232841,-0.321433812,-0.292945266,-2.090598106,-0.055438694, 
410,538019324,-138.2556458,-85.85877991,-117.6624832,9.810800552,-0.853989303,-0.226271808,0.427584797,-3.877238035,-0.243269444, 
411,538035991,-139.1863403,-85.7938385,-116.7193298,9.844325066,-0.822265327,-0.263619959,0.632435143,-4.977341175,-0.301243752, 
412,538052658,-140.3876801,-85.70796204,-115.5092392,9.828253746,-0.877002716,-0.371212214,0.36193946,-6.741173744,-0.565144241, 
413,538069325,-141.6785431,-85.61349487,-114.2051086,9.78960228,-0.873556256,-0.353565246,0.561283171,-7.477065563,-0.818761289, 
414,538085992,-142.9871979,-85.50556183,-112.8667984,9.761593819,-0.709248066,-0.397091299,1.627680898,-8.26482296,-0.766959667, 
415,538102659,-144.4343262,-85.36819458,-111.3837051,9.792562485,-0.479319364,-0.475376815,1.907448769,-10.17832375,-0.627997994, 
416,538119326,-146.0156097,-85.21717834,-109.8442078,9.842570305,-0.188023373,-0.610128284,-2.804156303,-11.11288166,-0.855182886, 
417,538135993,-147.6854095,-85.07200623,-108.3409424,9.826998711,0.155007556,-0.910323441,-10.25798321,-10.8104496,-1.423785329, 
418,538152660,-149.4942322,-84.92572784,-106.8289642,9.631728172,0.336797655,-1.117419243,-18.11646652,-10.95003605,-1.953099489, 
419,538169327,-151.5802917,-84.73664856,-105.2017212,9.629208565,0.51318109,-1.166584969,-27.93420982,-13.53649712,-1.830865979, 
420,538185994,-153.4865417,-84.56610107,-103.9103317,9.532002449,0.584679127,-1.097747326,-37.30322266,-11.73002338,-1.415608644, 
421,538202661,-155.0215912,-84.3718338,-103.0513382,9.050245285,0.639517903,-1.045191646,-40.6017189,-11.96899033,0.851928473, 
422,538219328,-156.0637054,-84.08570099,-102.6222305,8.914151192,0.567122221,-0.708038568,-37.08005524,-15.99076748,5.074027061, 
423,538235995,-156.5568542,-83.72695923,-102.6202774,9.415625572,0.185592428,-0.209143132,-29.54887009,-19.01422691,8.969871521, 
424,538252662,-157.0628815,-83.20191193,-102.4101639,10.35630894,-0.388426661,0.009562992,-17.31036949,-28.86520958,11.36680889, 
425,538269329,-157.5843048,-82.51114655,-101.9462967,12.05142403,-0.942069709,-0.662602425,-3.018577337,-38.9563446,13.05095959, 
426,538285996,-157.6919861,-82.17501831,-101.8856888,12.21337032,-1.166890264,-0.570673704,-1.087849617,-18.2960701,7.33308506, 
427,538302663,-158.2856903,-82.0428772,-101.328949,10.89829731,-0.984896123,-0.146004379,-1.670051098,-8.497028351,-1.066410661, 
428,538319330,-159.638382,-81.89538574,-100.0428314,10.19846725,-0.471742213,-0.382594138,-4.306855202,-11.53810692,-6.630133629, 
429,538335997,-161.366745,-81.69929504,-98.43482208,9.714038849,0.073147625,-0.75741142,-6.239555359,-15.21349907,-9.002913475, 
430,538352664,-163.3497314,-81.42528534,-96.5269165,9.415390968,0.413839638,-1.003121376,-7.203905582,-20.09123039,-10.48473263, 
431,538369331,-165.1743011,-81.10764313,-94.83244324,9.398950577,0.451462865,-1.079870582,-6.609409809,-22.08487892,-9.695465088, 
432,538385998,-166.5674286,-80.76294708,-93.52481079,9.34691906,0.396499723,-1.067805648,-4.922066689,-22.5471096,-6.756055355, 
433,538402665,-167.5752563,-80.38468933,-92.56640625,9.368805885,0.474057198,-1.031958699,-1.93290472,-23.74629784,-4.010367393, 
434,538419332,-168.2493134,-79.96062469,-91.84796143,9.487894058,0.609782338,-0.976163983,1.345816016,-25.81456375,-1.346283317, 
435,538435999,-168.5776215,-79.51181793,-91.51811218,9.653148651,0.683693588,-0.991502225,3.423101187,-26.7012043,1.732389927, 
436,538452666,-168.5903473,-79.0708847,-91.41451263,9.858523369,0.783339202,-1.048267961,2.712000608,-25.4796257,5.038241386, 
437,538469333,-168.3562012,-78.70296478,-91.63877106,9.905646324,0.862648785,-1.12552464,0.551435888,-20.56307411,7.473650455, 
438,538486000,-168.013092,-78.39192963,-92.05220795,9.803598404,0.987836957,-1.093273401,-1.441984057,-16.85611153,8.673682213, 
439,538502667,-167.6777344,-78.11771393,-92.38213348,9.778717041,0.92148596,-1.086712599,-3.817038536,-14.46486187,8.859460831, 
440,538519334,-167.3691711,-77.85482025,-92.69155121,9.811400414,0.736407936,-1.071240067,-5.551289082,-13.70181084,8.982966423, 
441,538536001,-167.0732574,-77.57963562,-93.18488312,9.78291893,0.513626456,-1.099096894,-7.677249908,-14.4279213,9.633132935, 
442,538552668,-166.7508392,-77.32326508,-93.7207489,9.916567802,0.369242072,-1.161907077,-8.473050117,-13.13694954,10.12019825, 
443,538569335,-166.3137512,-77.12663269,-94.20233917,10.02002621,0.361784548,-1.181060076,-6.856537342,-9.188717842,10.66676998, 
444,538586002,-165.7624054,-76.99528503,-94.76911163,9.964532852,0.446581483,-1.210359812,-3.479935408,-5.127127171,10.68475914, 
445,538602669,-165.1682892,-76.92851257,-95.3894577,9.833799362,0.606206477,-1.102442622,-1.87737298,-1.25402379,10.05241776, 
446,538619336,-164.593338,-76.91985321,-96.00678253,9.732092857,0.742115319,-0.997920632,-3.3089571,2.217349768,9.250139236, 
447,538636003,-163.9994507,-76.97180939,-96.70336151,9.606174469,0.951454103,-0.773314357,-4.509886265,5.89669323,8.772143364, 
448,538652670,-163.3848572,-77.0014801,-97.42715454,9.421477318,0.943671405,-0.613609135,-5.480967045,4.828962803,9.575805664, 
449,538669337,-162.7397003,-77.01138306,-98.18461609,9.467989922,0.936682224,-0.768794358,-5.491365433,3.878372669,10.29175663, 
450,538686004,-161.936203,-77.04543304,-99.07233429,9.644765854,0.929121077,-0.893607914,-3.497377396,5.880979538,11.46054173, 
451,538702671,-161.0432281,-77.10208893,-100.0466156,9.716864586,0.960602283,-0.93510288,-3.233285427,7.669440269,12.0417099, 
452,538719338,-160.0961151,-77.2017746,-101.0879288,9.817798615,0.985006273,-0.909491837,-3.889368773,10.53916836,11.85096264, 
453,538736005,-159.0527039,-77.34092712,-102.1976624,9.762794495,1.012856841,-0.901720643,-2.148574829,13.20202255,11.6032753, 
454,538752672,-157.7665253,-77.45596313,-103.440712,9.713111877,0.968268156,-1.217748284,4.583866596,12.64488506,13.38655186, 
455,538769339,-156.4042664,-77.4516449,-104.6682358,10.3385601,0.890374362,-2.09977746,10.05006981,6.223131657,15.65968227, 
456,538786006,-155.3842773,-77.40945435,-105.6201019,11.403162,0.503853858,-3.226891994,5.664131165,3.004570484,13.23101139, 
457,538802673,-154.8946381,-77.52070618,-106.1691895,11.53688812,-0.442799211,-3.447753906,-2.566201448,9.326849937,4.553600788, 
458,538819340,-154.9522095,-77.7157135,-106.3044891,11.63644505,-1.223442912,-3.321862221,-11.17871189,11.61551762,-2.500442028, 
459,538836007,-155.5402222,-77.80104828,-106.0692291,13.42903137,-1.437559366,-3.30642724,-21.29073143,3.696949244,-3.986188173, 
460,538852674,-156.0065308,-78.10584259,-105.9630508,14.87321854,-2.086102486,-2.865693092,-21.54057312,16.45388222,-7.857640266, 
461,538869341,-155.9065399,-78.75334167,-106.2219925,13.36749077,-2.105850935,-1.955360889,-9.02897644,37.06859207,-12.13855553, 
462,538886008,-154.981369,-79.36144257,-107.1051788,10.08006573,-2.021290302,-2.090323925,3.662999868,37.67702866,-5.188749313, 
463,538902675,-153.3957214,-79.62445068,-108.3332901,8.489325523,-2.179910898,-2.479423761,22.86026192,20.38093185,6.028705597, 
464,538919342,-151.0535583,-79.92370605,-110.1843338,8.364313126,-2.356050968,-2.100982189,31.39399147,25.42275238,9.854744911, 
465,538936009,-148.9619904,-80.18774414,-111.9373093,9.105423927,-2.366677046,-1.117911458,22.05085945,23.1701889,8.560624123, 
466,538952676,-147.1611023,-80.58925629,-113.7728653,10.28944588,-1.92128396,-0.316465706,-0.391068786,30.537817,3.583580494, 
467,538969343,-144.9008179,-81.20846558,-116.3137207,9.946133614,-1.156530499,0.095041275,-14.77579975,44.62971497,-0.055515956, 
468,538986010,-142.8185577,-81.66096497,-118.7860489,9.039978981,-0.326230526,0.047651656,-21.62700272,35.27404785,2.532054424, 
469,539002677,-141.305069,-81.81597137,-120.8161163,9.230409622,-0.012392201,-0.405876607,-29.58778572,18.40792465,8.781270981, 
470,539019344,-139.6286774,-81.82917786,-123.0241699,10.07262039,-0.512014329,-1.25909543,-30.41871643,12.90499973,14.73412514, 
471,539036011,-137.3402252,-81.91835022,-125.8619461,10.60889721,-1.358543754,-1.765079141,-31.11620522,20.26453209,15.17779732, 
472,539052678,-134.5296173,-82.1619873,-129.3450623,10.0036993,-2.308325529,-1.732568502,-38.21632004,30.94097328,11.32421207, 
473,539069345,-130.7260437,-82.56209564,-133.9058075,9.305988312,-2.740187645,-1.109135151,-42.87739182,43.33234787,7.6377635, 
474,539086012,-126.2505035,-83.00691986,-139.0821991,8.418937683,-2.785317659,-0.514691889,-39.48461914,47.45474625,4.026364326, 
475,539102679,-121.6225052,-83.37833405,-144.2510223,8.102860451,-2.487623453,-0.121972382,-30.16807938,43.25033951,2.640419722, 
476,539119346,-117.247345,-83.61135101,-149.007431,8.19360733,-2.231416702,-0.004311413,-20.93850708,35.34475708,4.280055046, 
477,539136013,-113.5193405,-83.70605469,-153.0345764,8.508052826,-2.171047688,-0.253611624,-16.36999512,26.8683033,6.838878632, 
478,539152680,-110.0196381,-83.72667694,-156.7962036,8.965286255,-2.201502562,-0.346321255,-14.27905846,23.71957588,8.528549194, 
479,539169347,-106.482811,-83.7296524,-160.5712738,9.474197388,-1.960231066,-0.160724282,-12.85001755,23.87996864,8.072216034, 
480,539186014,-103.2824554,-83.75141907,-163.9826355,9.835928917,-1.574869752,-0.090948582,-11.35030651,22.23102379,4.937838554, 
481,539202681,-100.1503906,-83.79698181,-167.3408203,9.997429848,-1.07454133,0.163041934,-12.29431534,22.27761269,2.226715565, 
482,539219348,-96.95530701,-83.83391571,-170.7926178,9.798741341,-0.8434605,0.344712317,-14.10554028,22.71844101,1.582965016, 
483,539236015,-94.32473755,-83.82390594,-173.7138062,9.328230858,-0.745001376,0.446129233,-16.33631516,19.01160049,2.91499424, 
484,539252682,-92.55461884,-83.74893951,-175.805954,9.259572029,-0.550810575,0.577176929,-18.50409889,13.60945797,5.775387287, 
485,539269349,-91.47109985,-83.60432434,-177.2769623,9.292981148,-0.389037281,0.703511119,-22.61306,9.722278595,9.474756241, 
486,539286016,-90.80870056,-83.42890167,-178.3182983,9.526847839,-0.474796236,0.559689224,-22.24826622,7.146811008,11.14097977, 
487,539302683,-90.30613708,-83.24895477,-179.2133179,9.473390579,-0.395158023,0.68091011,-23.09802437,6.421599865,11.34231091, 
488,539319350,-89.96074677,-83.07595825,179.9646454,9.247251511,-0.11858201,0.935700893,-28.15701294,6.137148857,10.88110828, 
489,539336017,-89.79620361,-82.94456482,179.2116089,9.04221344,-0.091448642,1.040056944,-34.88417053,5.794266224,8.373336792, 
490,539352684,-90.0891571,-82.83982086,178.8390961,8.999385834,-0.259308636,0.949338913,-39.66981506,3.037459135,6.796797752, 
491,539369351,-90.41195679,-82.75630188,178.4174805,8.961890221,-0.458474427,1.001260757,-44.37464905,3.402626514,5.548755169, 
492,539386018,-91.01351166,-82.70547485,178.2449036,9.017115593,-0.57224673,1.118216276,-46.27794647,1.512895942,3.596581697, 
493,539402685,-91.51210022,-82.72015381,177.9326935,9.349276543,-0.833372712,1.06759429,-48.40209961,2.622332811,-0.302949488, 
494,539419352,-91.72931671,-82.82531738,177.2933807,9.578110695,-0.983051598,1.09112668,-50.9866066,5.214891434,-5.650164127, 
495,539436019,-91.24132538,-83.02670288,175.8366852,9.468564034,-1.098185539,1.362353683,-57.36099625,11.27141094,-11.27307034, 
496,539452686,-90.10138702,-83.29512787,173.6675262,8.975660324,-1.202997565,1.640832067,-60.72866821,15.86689472,-15.40466404, 
497,539469353,-89.14199829,-83.59654236,171.6930389,8.66600132,-1.276579618,1.638904214,-60.03002167,13.56139851,-17.66158295, 
498,539486020,-88.80731964,-83.90384674,170.4467163,8.70889473,-1.857827187,1.401924014,-54.13819504,7.947836876,-18.09540558, 
499,539502687,-89.1368866,-84.22280121,169.9584503,9.077262878,-2.49020505,1.694248199,-48.8021965,2.80850482,-18.71558762, 
500,539519354,-90.29291534,-84.53686523,170.368576,9.542228699,-2.879427671,2.1051507,-44.75632477,-2.401108027,-18.38283539, 
501,539536021,-92.52845001,-84.77591705,172.0622406,10.48506737,-2.992561102,2.079362631,-32.80836105,-9.032028198,-14.1790266, 
502,539552688,-94.10993195,-84.92619324,173.2561035,11.45498562,-2.567355871,2.165377617,-23.41381264,-5.845470905,-8.999182701, 
503,539569355,-95.20751953,-85.02830505,174.0369873,11.76594353,-1.761471272,2.349063873,-19.04408073,-3.568699598,-6.087238312, 
504,539586022,-96.75759125,-85.10107422,175.31987,11.46092987,-1.068157673,2.117722988,-16.17002106,-6.137360096,-4.698552132, 
505,539602689,-98.43037415,-85.12966919,176.7576752,10.96104336,-0.589696348,2.072551489,-14.26269913,-7.08874321,-2.330578327, 
506,539619356,-103.208107,-84.99751282,-178.5540924,10.87848759,-0.604009092,1.415448785,-6.248847485,-25.31403923,3.57333231, 
507,539636023,-111.195816,-84.57198334,-170.7833557,14.23842812,-1.529740095,0.454682827,-14.77784729,-48.06048584,12.14837742, 
508,539652690,-114.3790665,-84.24565125,-167.9097595,13.14649391,-2.782270908,-1.769804716,-19.25053787,-23.14689445,11.87672138, 
509,539669357,-118.0820618,-83.90089417,-164.219223,11.46624756,-2.897598505,-2.092154264,-1.785416126,-29.69924355,8.754790306, 
510,539686024,-122.7361908,-83.33179474,-159.6315918,12.25094032,-1.706527472,-1.755551815,-5.555974483,-43.6850853,14.22602081, 
511,539702691,-126.9690552,-82.49872589,-155.5384979,11.63653088,-1.884056211,-3.731983185,-10.13084507,-53.40369415,23.96733856, 
512,539719358,-129.3153992,-81.7612915,-153.4519653,10.85435867,-2.079934359,-4.191840649,-16.64544678,-40.75790405,24.46944427, 
513,539736025,-128.5844116,-81.53540802,-154.3582458,8.989010811,-1.436943412,-2.892017365,-9.832522392,-2.280506372,15.7551775, 
514,539752692,-127.7084732,-81.64012909,-155.3289642,7.460841656,-0.672427058,-1.548312068,-4.96223259,10.71206284,0.569633126, 
515,539769359,-129.4213715,-81.75144958,-153.698822,7.779838085,-0.834143519,-1.617536664,-5.890746593,-6.733634949,-13.7751236, 
516,539786026,-132.3688965,-81.66535187,-150.68013,9.771835327,-1.68554318,-1.81426239,2.47418642,-22.9556942,-12.93949127, 
517,539802693,-134.2679291,-81.52024841,-148.5065308,11.74664688,-2.720888615,-1.847532988,15.16723061,-19.66103554,-6.496587276, 
518,539819360,-134.7858582,-81.63196564,-147.4634705,12.64607906,-3.470938444,-2.174894094,30.92349052,-1.643330097,-10.9712677, 
519,539836027,-134.9192505,-82.10716248,-146.6959686,11.66170406,-2.802777767,-1.852297664,37.67622757,15.69764328,-24.59129333, 
520,539852694,-134.6243896,-82.7843399,-146.1943359,9.456110954,-1.453479052,-1.288284779,47.61954498,26.01897812,-31.42819405, 
521,539869361,-134.5511932,-83.37770844,-145.3984985,7.821737289,-0.064464904,-0.764298677,51.89833069,21.12257385,-29.19696808, 
522,539886028,-135.1105957,-83.81315613,-144.0179901,7.236021996,0.687364042,-0.85749048,48.86031723,12.09505844,-24.82697296, 
523,539902695,-136.3992615,-84.10452271,-142.0089417,7.170533657,0.891524673,-1.010488391,42.66637802,3.905256748,-21.04331779, 
524,539919362,-138.1108856,-84.26920319,-139.7053833,7.72332716,0.69792372,-1.056572437,34.90377426,-2.010505199,-16.7083416, 
525,539936029,-139.5302124,-84.38451385,-137.7887573,8.313617706,0.460725009,-1.06421113,29.38066101,-2.024857759,-12.81993294, 
526,539952696,-140.8416748,-84.43775177,-136.0370941,8.87878418,0.294883341,-1.000177622,26.02400208,-3.835665703,-9.599114418, 
527,539969363,-141.7579193,-84.48143768,-134.755722,9.453885078,0.256307453,-1.120970726,21.65371132,-2.329581499,-7.103515625, 
528,539986030,-141.8074036,-84.6338501,-134.4106903,9.723692894,0.186795726,-1.200479984,17.74616432,6.247413635,-6.858220577, 
529,540002697,-141.152298,-84.87104034,-134.7696838,9.477053642,0.036132481,-1.122234941,17.96747589,12.65222931,-6.970803261, 
530,540019364,-140.1289215,-85.0998764,-135.4658661,9.306447029,0.009362868,-0.613825321,19.90433121,13.23215771,-5.52308321, 
531,540036031,-138.8185425,-85.28569794,-136.4245758,9.229562759,0.018773608,-0.115853086,21.40732574,11.90344429,-3.202554703, 
532,540052698,-137.084259,-85.45895386,-137.8320923,9.247202873,-0.050471462,0.142113596,19.99211502,12.58105278,-1.518490314, 
533,540069365,-134.8827057,-85.64756012,-139.7331696,9.195515633,-0.060565121,0.186561793,18.48549461,14.57716942,-1.113258123, 
534,540086032,-132.3032684,-85.83764648,-142.0453491,8.781694412,0.058249179,0.191208899,16.51844597,15.59902573,-0.745318055, 
535,540102699,-129.9828491,-85.98575592,-144.1219177,8.395840645,0.006525394,0.306902528,15.06130695,12.81578732,-0.435314089, 
536,540119366,-128.0027008,-86.05831146,-145.8453369,8.4897089,-0.009763552,0.436349362,15.76908207,8.59178257,1.549384236, 
537,540136033,-126.5778427,-86.03153229,-146.9458313,8.951728821,-0.135323793,0.437255561,19.73049355,2.914325953,4.470786095, 
538,540152700,-125.3677521,-85.97620392,-147.7685852,9.974038124,-0.221429497,0.206856281,23.47303009,1.099139094,5.139998913, 
539,540169367,-123.2415848,-86.02005005,-149.4917908,10.69774914,-0.131500378,-0.240295842,24.54194832,7.695987225,2.344662428, 
540,540186034,-121.0905685,-86.1151123,-151.2065582,10.71104431,0.076085828,-0.626024485,26.53527069,9.270330429,-0.620597422, 
541,540202701,-120.263092,-86.18977356,-151.5595551,10.58852673,-0.041626614,-0.968128145,28.63457489,3.771704674,-2.659412622, 
542,540219368,-119.6347427,-86.29107666,-151.6994934,10.9423418,-0.50334245,-0.818402648,29.42657661,3.786778688,-4.509679794, 
543,540236035,-115.1440964,-86.55610657,-155.6797943,12.02766609,-0.932282746,0.381646574,31.20073509,20.82448006,-6.779716015, 
544,540252702,-102.4743652,-86.94789886,-167.6578064,13.11335468,-0.863314688,2.241395235,42.74670792,46.29344177,-8.533784866, 
545,540269369,-85.5413208,-87.1885376,176.4674683,12.05134678,-0.263830811,3.044575214,64.865242,49.69989777,-10.39385605, 
546,540286036,-74.59587097,-87.16448212,166.6738129,10.41608906,1.47609663,2.313581705,69.92564392,28.94794655,-3.058103085, 
547,540302703,-77.9330368,-87.06162262,171.0429535,10.70073318,2.285744667,0.264888138,61.70885468,-11.16195488,9.660998344, 
548,540319370,-88.1620636,-86.91091919,-177.9377594,12.35930061,1.880960464,-1.833770752,46.63776779,-33.16051483,13.70953751, 
549,540336037,-94.60546112,-86.75128174,-171.0026855,13.3377285,1.020832181,-3.121031761,28.98185921,-22.97751236,9.620274544, 
550,540352704,-99.59902954,-86.75985718,-165.9385529,13.22369194,0.068641596,-4.492852688,3.862931013,-16.71501923,-2.007231236, 
551,540369371,-99.95636749,-87.1452179,-165.9150848,12.30662251,-0.974878013,-4.561973095,-19.94897652,4.188054562,-22.14210892, 
552,540386038,-91.95341492,-87.77604675,-174.5046539,9.447984695,-2.427433968,-3.08043623,-34.55683136,27.0039463,-34.57421494, 
553,540402705,-85.13948822,-88.21381378,178.2299194,8.120026588,-4.049958706,-1.634248853,-26.76158333,15.00544739,-25.9745388, 
554,540419372,-72.85057068,-88.23764038,165.7958374,8.322666168,-4.296336651,0.807102978,-8.273688316,22.8179245,-5.233723164, 
555,540436039,-67.95214844,-87.87578583,161.2029419,8.745914459,-3.272316694,1.704282284,18.5857811,16.51118469,17.77482605, 
556,540452706,-72.58990479,-87.47214508,166.3794708,9.541162491,-1.364023685,0.520758629,32.15896225,-3.271633148,27.49742126, 
557,540469373,-78.25996399,-87.14762115,172.5223541,10.4546442,-0.382470638,-0.436973751,28.0721283,-11.42610168,23.61039925, 
558,540486040,-80.34207916,-86.92133331,174.889328,11.23936939,0.294975579,-0.381501257,16.98695755,-4.271361351,15.1607933, 
559,540502707,-78.90122986,-86.81629181,173.3135834,10.62671757,0.291393071,-0.316606581,-7.878930569,6.651165485,5.741952896, 
560,540519374,-78.04629517,-86.73110199,172.0022583,9.084139824,0.393488348,-0.328369588,-27.19050217,5.805933952,4.615465164, 
561,540536041,-77.43619537,-86.55235291,170.8384094,8.070149422,-0.127601296,-0.224233449,-32.99620438,6.717784882,10.0712328, 
562,540552708,-77.00074005,-86.29821014,169.9174194,7.600445271,-0.778469563,0.272209108,-28.95319557,7.190480232,14.60450172, 
563,540569375,-77.80802917,-86.04839325,170.320343,7.670262337,-1.383534908,0.583467603,-24.22692871,2.143769741,15.44624901, 
564,540586042,-79.67160034,-85.83058929,171.7928314,8.066207886,-1.810195684,0.563834548,-23.60722733,-3.136348009,14.50640202, 
565,540602709,-81.65779114,-85.65702057,173.4473572,8.559514046,-2.314417839,0.610680461,-20.09950447,-5.136868,11.93014431, 
566,540619376,-82.8926239,-85.5269165,174.4551086,8.909582138,-2.539696217,0.745362103,-13.73079014,-3.117567778,8.793251038, 
567,540636043,-83.40736389,-85.45817566,174.8640442,8.806669235,-2.472472191,0.769025683,-6.334905148,-0.993465543,4.727061272, 
568,540652710,-84.22055054,-85.46650696,175.6907349,8.439351082,-2.061192989,0.824251175,0.742160082,-3.531876326,0.313646734, 
569,540669377,-86.0710144,-85.53410339,177.619278,8.354183197,-1.712327361,1.006456375,4.404201508,-8.974027634,-2.892942667, 
570,540686044,-88.41107941,-85.62404633,-179.8981171,8.45205307,-1.45384717,1.129917979,8.207974434,-11.3231411,-4.480138779, 
571,540702711,-91.31430817,-85.72108459,-176.7704315,8.783035278,-0.959192157,1.246175408,13.01602554,-13.77954674,-5.424571514, 
572,540719378,-94.76577759,-85.85055542,-173.0342102,8.994128227,-0.53086251,1.004158378,16.56268692,-15.65666676,-8.266094208, 
573,540736045,-97.99786377,-86.0633316,-169.5648651,9.359628677,-0.627904832,0.946371257,13.81908512,-12.79508018,-13.96225166, 
574,540752712,-101.6413269,-86.31761932,-165.712677,9.980254173,-1.543577433,0.760250747,12.11129189,-12.16765976,-17.2848568, 
575,540769379,-105.1318817,-86.49758911,-162.0397644,10.92242622,-1.890507579,0.703645706,10.59995174,-10.58423138,-13.3359499, 
576,540786046,-105.3716125,-86.64363861,-161.7878876,11.11931896,-1.18461597,0.952064157,0.791323781,1.774173021,-8.345631599, 
577,540802713,-104.8329697,-86.78582001,-162.4827423,10.81100082,-0.282429159,0.865688682,-9.195745468,4.861735344,-7.280554771, 
578,540819380,-105.4529114,-86.91790009,-162.0849457,11.46952724,0.359922767,1.056827784,-13.2392149,1.131000161,-7.667782307, 
579,540836047,-101.8801575,-87.13208008,-165.9823761,12.45498276,0.687302768,2.302988052,-19.08263206,15.13604641,-9.251559258, 
580,540852714,-94.67755127,-87.38731384,-173.5515442,11.63918018,0.49705711,2.809063435,-21.34521294,23.9630146,-11.64383888, 
581,540869381,-92.92952728,-87.59621429,-175.7714996,11.02413273,0.009442446,2.008647919,-28.06163406,6.907619476,-11.749403, 
582,540886048,-99.93384552,-87.67308044,-169.3279877,11.76954556,-1.22295177,0.353820503,-33.89216232,-15.0960741,-5.947528839, 
583,540902715,-108.7418137,-87.64200592,-161.173996,13.39240074,-2.5720191,-1.258068919,-39.52577591,-19.58005524,-2.781327724, 
584,540919382,-119.829689,-87.38446808,-150.7070923,13.95994854,-3.53837347,-3.566303015,-37.69242477,-30.86783409,3.152456284, 
585,540936049,-127.1159821,-86.91993713,-143.9825287,13.04502869,-4.568864346,-5.06153059,-34.09634399,-31.76847458,12.47172642, 
586,540952716,-124.1959686,-86.67845917,-147.2732239,10.42040443,-3.682359934,-3.79566884,-21.81402397,0.871237516,18.43671799, 
587,540969383,-114.2495499,-86.76081848,-157.2847595,7.112169266,-2.133182526,-1.584120035,-2.833865643,32.74766541,12.68859291, 
588,540986050,-108.6952362,-86.92858887,-162.5352478,5.646697521,-0.319115102,-1.100856781,18.78919029,20.21257973,-2.802203417, 
589,541002717,-106.9052505,-87.24408722,-164.0347748,7.021829128,0.453074723,-0.890245676,17.64159966,10.55496025,-16.41777802, 
590,541019384,-109.3432922,-87.46967316,-161.3236694,9.034516335,-0.84798497,-0.48003155,16.28909492,-2.498458862,-14.96647263, 
591,541036051,-115.4795151,-87.52243805,-154.702652,11.15426254,-2.911576509,-0.637365878,28.84032631,-14.39621162,-9.343562126, 
592,541052718,-117.6257248,-87.69837189,-151.9308014,11.85089874,-3.588639498,-0.49159199,37.47448349,-1.056504011,-12.34476089, 
593,541069385,-118.0805588,-88.08133698,-150.9182739,10.4149456,-2.599722624,-0.629835188,33.54740524,9.192674637,-21.21053696, 
594,541086052,-123.4716644,-88.524086,-145.0172577,8.698602676,-0.879654884,-1.086794376,30.50354958,4.985996723,-27.99352074, 
595,541102719,-136.6281738,-88.89253235,-131.2588501,7.749680519,0.317581028,-1.614744425,36.06029129,0.371623784,-28.63723564, 
596,541119386,-156.5919037,-89.07719421,-110.5699615,7.772016525,0.846772611,-1.419543266,43.43158722,-2.485939264,-24.11460686, 
597,541136053,-174.3074951,-89.09172821,-92.09381104,8.392491341,0.635175347,-0.83590585,45.51818848,-3.163681269,-17.1278286, 
598,541152720,175.6483459,-89.0338974,-81.2899704,9.441234589,0.422155678,-0.32712844,45.6640892,-3.059729576,-10.38327789, 
599,541169387,169.0494843,-88.98201752,-74.02881622,9.896749496,0.935222507,0.038330019,39.76412201,-1.605810404,-7.708981037, 
600,541186054,162.4350891,-88.94910431,-66.91582489,9.391241074,1.403315425,0.14884913,29.93476868,0.464891285,-7.757805824, 
601,541202721,157.3980255,-88.92370605,-61.50360107,8.70396328,1.460718632,0.07375998,22.55972672,1.08990562,-5.983316898, 
602,541219388,156.2898865,-88.94390106,-60.11798096,8.15681839,1.316341639,0.135546461,16.71477699,2.181044817,-0.72599262, 
603,541236055,161.3895569,-88.96599579,-65.04460144,8.094633102,1.236054182,0.29320237,10.49869537,-0.28036952,5.735319614, 
604,541252722,171.9126892,-88.95995331,-75.47009277,8.439021111,0.878438056,0.307553381,6.045068741,-2.500710487,11.18172455, 
605,541269389,-176.1333466,-88.90782928,-87.34962463,9.075310707,0.442756385,0.237291679,4.701835632,-3.121652365,13.3899889, 
606,541286056,-164.7811279,-88.88513184,-98.62782288,9.402731895,0.012309891,0.164438605,4.654835701,1.286712408,13.33348751, 
607,541302723,-155.1166229,-88.82780457,-108.1756058,9.35890007,-0.301626176,-0.052559894,7.278103828,1.193097949,12.15986156, 
608,541319390,-149.7661133,-88.65245056,-113.4471741,10.26483727,-0.362111062,-0.307538122,4.905648708,-5.647270679,11.29563713, 
609,541336057,-146.3102722,-88.55084991,-116.774704,11.0378418,-0.203720823,-0.270713091,7.826238155,-2.158741713,7.642980099, 
610,541352724,-146.4165802,-88.37153625,-116.4762268,11.05821514,0.168321446,-0.0871225,11.59106922,-8.78413868,5.840667248, 
611,541369391,-147.2979889,-88.10349274,-115.3628082,11.29530811,-0.059988011,-0.349239856,14.01103306,-14.12291527,7.339579582, 
612,541386058,-145.6551208,-87.93511963,-116.6117783,11.61154175,-0.966085374,-0.306445956,23.75742912,-6.542971134,8.024931908, 
613,541402725,-140.6458435,-87.95627594,-121.019043,11.56694126,-1.949429035,0.632863998,36.37350082,7.15884304,7.095553875, 
614,541419392,-130.3610535,-88.17329407,-130.4391937,11.26864815,-2.374672651,1.92862308,52.30578995,23.06891441,4.760053635, 
615,541436059,-113.7528381,-88.38869476,-145.875473,10.67684937,-2.244916439,2.470929146,70.81258392,30.68780518,4.105437279, 
616,541452726,-101.5207977,-88.39587402,-156.7553101,10.47041225,-0.769424975,1.407868981,81.51829529,17.95023918,5.355484962, 
617,541469393,-101.7610397,-88.28502655,-155.2255249,11.56407833,-0.337741315,-0.963264883,77.44573212,-3.579963207,6.214228153, 
618,541486060,-101.3929062,-88.22877502,-154.4168701,12.8810339,-0.608736634,-2.051700592,70.73241425,-1.745728254,3.228428841, 
619,541502727,-96.73617554,-88.28810883,-158.1999359,12.16324234,0.167837396,-2.220290661,52.5711441,7.761051178,-2.153063297, 
620,541519394,-108.9717789,-88.43127441,-145.4936676,11.19180393,1.287887931,-3.791586876,28.06304932,-18.91808701,-12.93779087, 
621,541536061,-132.677597,-88.58666992,-121.7166748,11.32435799,0.766711712,-4.602983475,3.890594959,-26.52626991,-26.45464516, 
622,541552728,-149.1220398,-88.90032959,-105.2687912,10.78644466,-1.041042447,-3.308990002,0.03637654,1.338939667,-28.20217323, 
623,541569395,-149.565155,-89.23587799,-104.7499924,10.27989292,-2.862240553,-1.42581737,4.480353355,17.5067749,-10.38015175, 
624,541586062,-98.00419617,-89.37068176,-156.0290222,10.51832771,-3.038146019,0.453224123,17.46575928,34.79733658,14.17042065, 
625,541602729,-65.37789154,-88.8117218,171.9263611,11.09365273,-0.97831434,0.744690597,35.1075325,34.98941803,27.84113693, 
626,541619396,-57.52596283,-88.30465698,164.44841,11.15295029,0.735303342,-0.423140377,22.67732239,24.93403053,21.44825172, 
627,541636063,-49.40619278,-87.99572754,156.3293915,10.49611759,1.123469114,-0.869287968,0.385888189,24.18879509,5.745831013, 
628,541652730,-39.36332703,-87.64807129,145.9152069,9.339316368,1.004584193,-0.071412645,-21.73962212,31.9640255,-2.209209442, 
629,541669397,-34.35923004,-87.20166016,140.3956146,8.14936161,-0.307372272,0.203835547,-30.50457191,30.88289261,4.394675732, 
630,541686064,-34.62215424,-86.76790619,140.2032318,7.626805305,-1.751973987,0.173649937,-27.21729088,22.37580681,14.49981213, 
631,541702731,-36.87651443,-86.38832855,142.0744629,8.041100502,-2.409086943,0.33661887,-23.09004021,15.11423397,18.96645164, 
632,541719398,-38.61751556,-86.05394745,143.4625244,8.519824028,-2.017288208,0.645670414,-21.26023674,13.06269264,16.83116531, 
633,541736065,-39.70589066,-85.81072235,144.2189026,8.919754028,-1.627408028,0.445359319,-19.93385696,9.848430634,11.91374016, 
634,541752732,-39.98215866,-85.61421204,144.1735535,9.167186737,-1.643347025,0.486289322,-19.18745422,9.74336338,7.581263542, 
635,541769399,-39.97991943,-85.46940613,143.8989563,8.666609764,-1.98495698,0.613332093,-16.18312073,8.040148735,4.773053169, 
636,541786066,-40.94067383,-85.40091705,144.6758728,8.563762665,-2.331827402,0.713315248,-11.06815052,1.279860973,5.648313999, 
637,541802733,-42.10351563,-85.40040588,145.7707367,8.718225479,-2.667949438,0.668147922,-4.173308372,-2.905889034,4.110192299, 
638,541819400,-42.58140182,-85.44749451,146.348587,8.64913559,-2.681665421,0.798309386,6.003649712,-3.390571356,0.266826749, 
639,541836067,-42.25357056,-85.52131653,146.2245026,8.396309853,-2.475934505,1.182011366,12.366992,-2.319116592,-3.316577673, 
640,541852734,-42.07294846,-85.67527771,146.296402,8.128808022,-2.085613489,1.337931275,15.26639462,-6.523779392,-5.869207859, 
641,541869401,-42.20828629,-85.92878723,146.7319946,8.220474243,-1.549137592,1.165699959,18.07786751,-12.02115059,-8.709345818, 
642,541886068,-42.07581711,-86.21891785,146.9396362,8.407889366,-0.91633898,1.018935919,20.51023102,-12.95292473,-10.98291874, 
643,541902735,-41.54502106,-86.55389404,146.7561188,8.694957733,-0.427224398,0.91986078,20.99829102,-13.99915981,-13.85519123, 
644,541919402,-40.57733536,-86.8942337,146.0773163,9.440743446,-0.225782558,1.029351592,17.53232765,-13.34048367,-15.09036255, 
645,541936069,-39.14909363,-87.18777466,144.892868,9.995509148,-0.919145465,0.562327504,14.86155796,-10.66339207,-14.04016399, 
646,541952736,-40.08683777,-87.49298096,146.0284271,10.62432766,-1.433546424,0.37544474,11.93221378,-15.61228275,-9.172049522, 
647,541969403,-36.885746,-87.52567291,142.7554779,11.5086832,-0.678859949,1.646444082,-3.984107971,4.28845787,-7.837001801, 
648,541986070,-27.51408386,-87.37683868,133.0201721,10.96360111,0.616686046,2.194187641,-21.09168816,21.83866692,-17.16469193, 
649,542002737,-17.66721344,-87.47850037,122.7059479,10.75052166,1.521109819,1.41447711,-27.27293587,5.532559395,-27.87464523, 
650,542019404,-7.898293495,-87.61904144,112.4441376,10.89460754,0.529780865,1.149922967,-28.85677528,-1.893967271,-27.41849518, 
651,542036071,0.00100278,-87.56064606,104.0864105,10.84748363,-1.257143855,1.882158279,-26.88759041,5.43173933,-20.68401718, 
652,542052738,6.303245068,-87.56153107,97.4318161,10.93593216,-2.50855422,1.835307837,-20.63314056,-0.540454865,-16.86892319, 
653,542069405,12.83320999,-87.84169769,90.57263184,12.17368126,-3.23117733,0.602805555,-19.2394886,-18.81577873,-13.41908836, 
654,542086072,20.93415833,-88.46074677,81.99810791,14.10539436,-2.95916152,-1.973863482,-27.97384644,-39.8030014,-5.085098743, 
655,542102739,33.35665512,-89.23690033,69.06443024,14.96456623,-2.378971815,-4.750421524,-30.33086967,-47.78679657,7.258548737, 
656,542119406,26.77839279,-89.40258789,75.30071259,11.52596092,-2.313245773,-5.023643494,-20.39490509,-5.845712662,8.802210808, 
657,542136073,16.02887726,-89.06980133,86.39302063,7.14055872,-1.625433922,-2.617680788,20.63315392,22.33870697,0.944541872, 
658,542152740,22.0778141,-88.94724274,80.84778595,6.294763565,-0.587228119,-0.545060337,30.42066193,5.661725998,-7.896769524, 
659,542169407,35.76389694,-88.97703552,67.49303436,7.550330162,-1.22360301,-0.38238132,20.18663406,-7.927109241,-11.89688206, 
660,542186074,52.99829865,-89.04305267,50.79639053,10.14835358,-2.226289988,-0.44194299,32.60633469,-14.25240803,-9.672335625, 
661,542202741,69.80443573,-89.0369339,34.92474365,12.53705692,-2.759297609,-0.24326168,56.42090988,-13.17028713,-8.073976517, 
662,542219408,81.9699173,-88.8431015,23.91626549,12.61321735,-2.233798981,-0.890175045,69.59430695,-8.430891991,-14.25171375, 
663,542236075,88.40418243,-88.47736359,18.61551094,10.5283699,-1.529685974,-1.778228998,68.29052734,-4.962974548,-22.62992859, 
664,542252742,90.43073273,-88.06164551,17.78187561,8.62456131,-0.795491338,-1.807160139,71.71522522,-0.645081758,-25.07279396, 
665,542269409,93.02687836,-87.71792603,16.57891083,7.554638863,-0.515455961,-1.877046347,83.78733063,-2.659065247,-20.68546295, 
666,542286076,98.63363647,-87.42458344,12.64592075,6.86904335,-0.750509501,-1.724560261,100.8352203,-11.11295795,-16.67948341, 
667,542302743,108.0213623,-87.12124634,5.154009342,7.091178417,-1.044875026,-1.387255192,114.3808823,-24.35854912,-12.90219688, 
668,542319410,119.598114,-86.73277283,-4.420744896,8.204447746,-0.979020178,-1.372694492,121.0998535,-36.91372299,-9.034291267, 
669,542336077,129.8025665,-86.24094391,-12.60085678,9.26194191,-0.750626445,-1.806915641,122.5058899,-40.85052872,-7.279916286, 
670,542352744,137.7804871,-85.73271942,-18.55791664,9.789856911,-0.351317346,-2.015253067,122.2653351,-38.53476334,-4.895370483, 
671,542369411,145.0099487,-85.24272156,-23.80003357,10.42283726,0.001086473,-1.920767426,120.3351593,-37.78107834,0.803842068, 
672,542386078,150.6543579,-84.84440613,-27.49269104,10.94863224,0.477684081,-1.456676006,118.0463943,-29.82455063,3.271251917, 
673,542402745,154.3551941,-84.57989502,-29.27038002,10.92486286,0.60012573,-0.889459848,115.9583664,-18.03951073,1.185381055, 
674,542419412,156.1065826,-84.42866516,-29.25122833,10.38770676,0.312921494,-0.517006397,106.3359909,-7.643558025,-4.10549593, 
675,542436079,156.8341522,-84.29079437,-28.29306793,10.36884689,-0.241513208,-0.53433162,100.9803314,-4.795204163,-8.68145752, 
676,542452746,156.8018494,-84.16145325,-26.68610382,11.15885353,-0.163715482,-0.474547535,94.11215973,-2.792372465,-12.16712284, 
677,542469413,155.2806854,-84.25543213,-23.63593483,11.38860893,0.308098257,-0.275147408,90.93096161,13.15405273,-14.77937508, 
678,542486080,153.1942139,-84.47316742,-20.02840996,9.950242996,0.778715312,-0.402957469,90.34754181,21.47169876,-13.65779495, 
679,542502747,151.6798706,-84.76662445,-17.04537582,8.872188568,0.682388008,-0.405468971,87.47240448,23.83938599,-6.907254219, 
680,542519414,151.5213776,-85.1365509,-15.34951878,8.036399841,0.311507076,-0.390354544,91.99298096,24.23530006,2.515266418, 
681,542536081,153.4612274,-85.51559448,-15.57436848,7.72797823,-0.423474282,-0.989471078,103.0963898,20.08562279,11.31497669, 
682,542552748,157.434967,-85.83849335,-17.69750214,7.962193966,-1.667744875,-2.159576654,111.5506058,14.05145168,16.62656593, 
683,542569415,161.5514526,-86.18597412,-19.89640617,8.835699081,-2.956815243,-3.097985029,115.5206833,16.73126984,15.73245335, 
684,542586082,163.3165436,-86.6811142,-19.73770714,10.32395363,-4.13808918,-2.289864063,115.5529785,28.92864418,8.216012955, 
685,542602749,162.5821075,-87.03244781,-17.04017639,11.70702457,-4.39225626,-1.021437883,117.6877289,23.19111443,-2.515512705, 
686,542619416,160.9981079,-87.0493927,-13.4964962,12.81629276,-2.740657806,0.133657321,117.4466476,4.794196129,-10.35928249, 
687,542636083,159.7819519,-87.11208344,-10.36328602,11.98390388,-0.73209095,0.092375442,114.9380112,7.136013031,-8.022784233, 
688,542652750,161.2851563,-87.12928772,-10.20288754,10.62302303,0.669580281,-0.474894941,99.96195984,1.516651869,-0.366748333, 
689,542669417,166.1934662,-86.97483063,-13.71861839,10.50219727,0.826332986,-1.091270685,83.99388123,-11.59014511,7.571774483, 
690,542686084,172.4108734,-86.84563446,-18.60374641,10.3167696,0.080534391,-0.687496603,80.51544189,-10.19489288,13.85615444, 
691,542702751,178.9086914,-86.71890259,-23.64686966,9.611946106,-1.363778949,0.018951666,87.91306305,-8.512468338,16.13975716, 
692,542719418,-174.4505768,-86.45574951,-28.72346878,9.79411602,-1.917693734,0.472799957,94.54264069,-14.74154949,18.50699234, 
693,542736085,-167.9905243,-86.23132324,-33.62147522,9.40209198,-1.73970449,0.482301056,94.47159576,-10.13622952,20.34656334, 
694,542752752,-162.4776306,-85.87280273,-37.65168381,8.227227211,-1.131042123,0.315461934,89.69345093,-16.25917244,21.34391785, 
695,542769419,-157.3736725,-85.43687439,-41.36669159,8.078174591,-0.412994206,0.380266905,84.13424683,-18.50131989,24.60627174, 
696,542786086,-152.7879181,-84.95189667,-44.64331055,8.070280075,-0.083480924,0.516617,79.38591766,-19.20729637,26.97741318, 
697,542802753,-150.0399933,-84.33123016,-46.20249939,8.671463013,-0.178200021,0.769454122,71.89592743,-28.28977013,25.28062439, 
698,542819420,-148.40802,-83.7427063,-46.7999649,9.56129837,-0.478772402,1.137384415,62.41269302,-28.23820496,21.07907486, 
699,542836087,-147.4539948,-83.27375793,-46.88709259,9.969642639,-0.911863506,1.372653604,52.21857452,-23.3457756,15.25250435, 
700,542852754,-147.2365265,-82.91149902,-46.40029907,10.04302216,-1.298746228,1.554059386,42.20090103,-20.04810333,8.596502304, 
701,542869421,-147.4357605,-82.64376831,-45.53547668,9.741547585,-1.749796987,1.648552656,39.70467377,-16.91120148,2.996685982, 
702,542886088,-148.125824,-82.36483002,-44.12401581,9.39081955,-2.159705877,1.717699528,42.73575974,-19.94889069,-0.602735579, 
703,542902755,-149.061142,-82.04273224,-42.41624451,9.285197258,-2.423589945,1.672572017,45.58452606,-23.66153908,-1.977843523, 
704,542919422,-149.7811432,-81.73699188,-40.90955734,9.316221237,-2.403614998,1.393497348,46.4863205,-22.23314476,-1.841570377, 
705,542936089,-150.2969818,-81.46059418,-39.65904999,9.673073769,-1.892181516,1.339481115,43.46389771,-19.82346535,-1.414024234, 
706,542952756,-150.9424896,-81.18149567,-38.42552185,9.870175362,-1.056334019,1.425127506,34.64762878,-20.06104279,-1.727496743, 
707,542969423,-152.052002,-80.85284424,-36.86897278,9.857596397,-0.559477508,1.27183795,25.88864517,-24.31093979,-3.608038902, 
708,542986090,-153.4917755,-80.46006012,-35.05054474,9.965361595,-0.689926445,1.005327821,21.49633026,-29.09941292,-5.167283535, 
709,543002757,-154.9110565,-80.02094269,-33.23762512,10.30963612,-1.274499178,0.779964149,22.26819038,-31.81110382,-5.326278687, 
710,543019424,-156.0378876,-79.6145401,-31.76904678,11.08622742,-1.541776299,1.080179691,19.3630085,-28.72169113,-4.25154686, 
711,543036091,-156.7381592,-79.31621552,-30.86297798,11.94448471,-1.250631452,1.868319869,11.67247963,-20.483181,-2.138447046, 
712,543052758,-157.2308807,-79.1018219,-30.32483864,12.33620644,-0.938572824,2.245665073,2.409753323,-14.33584881,-0.738786101, 
713,543069425,-157.831604,-78.90468597,-29.77147293,12.11792469,-0.865531564,1.867599845,-3.174773455,-13.51047897,-1.544062734, 
714,543086092,-158.7629547,-78.69312286,-28.9078598,11.87974167,-1.62063992,1.076137424,-4.756129742,-15.70505905,-4.873039246, 
715,543102759,-159.9635773,-78.41096497,-27.77457237,12.40286541,-2.921934605,0.789306164,-5.095617771,-20.81051254,-6.887332439, 
716,543119426,-161.102066,-78.21190643,-26.72215843,12.31474686,-3.882840872,0.37376377,-6.162372112,-15.74675846,-8.330374718, 
717,543136093,-162.248642,-78.03965759,-25.61802673,11.24457645,-3.916250467,-0.591773808,-3.649224997,-14.33663368,-9.968268394, 
718,543152760,-163.2273865,-77.73712921,-24.5553875,10.83970165,-3.167539597,-1.831810951,3.924993038,-21.54979515,-7.692493916, 
719,543169427,-163.9904327,-77.24375916,-23.63976669,10.80569077,-2.644432545,-3.455269814,8.158027649,-31.99136925,-3.388124466, 
720,543186094,-164.7423553,-76.65710449,-22.72510147,10.47305202,-2.742777586,-4.998826027,8.639957428,-37.45401382,-2.785113811, 
721,543202761,-165.5680542,-76.36048126,-21.74559021,9.622731209,-2.827731371,-4.630578518,7.880167007,-20.89819908,-9.04236412, 
722,543219428,-166.0942383,-76.50436401,-20.85530853,7.848794937,-2.888886213,-3.257261515,20.61461449,5.143893719,-14.61917305, 
723,543236095,-166.317215,-76.71213531,-19.94631004,7.06549263,-1.557700396,-2.208935261,39.93084717,8.95544529,-15.60512829, 
724,543252762,-166.798645,-76.87469482,-18.75499916,7.772003651,-1.062764764,-2.305724382,40.95653152,5.561920643,-18.51159477, 
725,543269429,-167.4845123,-76.88256073,-17.24250793,9.338632584,-1.631797075,-2.682301044,47.47768784,-4.256742477,-20.53964424, 
726,543286096,-168.0841827,-76.91947937,-15.61342144,10.68439388,-2.165202379,-2.538438559,59.47827148,-2.638478279,-22.4666996, 
727,543302763,-168.4329224,-77.09844208,-14.0720253,10.63283825,-2.460858345,-2.385524273,69.44576263,6.157018185,-22.88204765, 
728,543319430,-168.8598938,-77.38871765,-12.33207607,9.949767113,-1.993124843,-2.373959064,76.45828247,12.41478634,-26.36780548, 
729,543336097,-169.5617218,-77.71044922,-10.28339005,9.103383064,-1.342056751,-2.13085103,78.1865387,13.87162018,-29.97603416, 
730,543352764,-170.5862579,-78.02297974,-7.9752388,8.55562973,-0.574361265,-2.071227074,74.18726349,13.32532692,-32.22053528, 
731,543369431,-171.7989197,-78.32704926,-5.566233158,8.331384659,0.093512282,-2.096153259,68.98983002,13.35925674,-32.36135483, 
732,543386098,-172.8407135,-78.5883255,-3.36694479,8.232563019,0.415628463,-1.884991646,67.06214905,11.88332176,-28.53758812, 
733,543402765,-173.5287476,-78.75215149,-1.559826612,8.488566399,0.699029565,-1.556424022,65.32763672,7.106858253,-22.57080841, 
734,543419432,-174.0185547,-78.90465546,-0.048037104,8.616909981,0.769218981,-1.522313714,59.90361404,7.059567928,-18.69343376, 
735,543436099,-174.3907166,-78.99611664,1.211725235,8.797754288,0.732836843,-1.397907615,52.17035675,3.871476889,-15.17611217, 
736,543452766,-174.5977478,-79.05960083,2.203257084,9.281942368,0.690650642,-1.385347843,46.30459976,2.575480223,-11.8249855, 
737,543469433,-174.5993195,-79.1240921,2.915176153,9.508727074,0.50537312,-1.280072451,42.1795845,2.966053247,-8.581757545, 
738,543486100,-174.4805908,-79.22235107,3.434331417,9.272608757,0.384023488,-1.06695044,38.05609512,5.184300423,-6.541018963, 
739,543502767,-174.1927795,-79.32788849,3.722420692,8.838794708,0.344014376,-0.712454557,34.59856796,5.85120821,-3.967866421, 
740,543519434,-173.4447479,-79.39347839,3.491956711,8.732694626,0.250976533,-0.479959458,31.64349556,4.049837112,1.984267712, 
741,543536101,-172.4595032,-79.42536163,2.949545383,9.063268661,0.254833966,-0.32169497,27.4865036,2.498416901,5.579888821, 
742,543552768,-171.3244781,-79.49079132,2.196037292,9.106160164,0.314768791,-0.26192987,24.02188492,4.905970573,7.523594379, 
743,543569435,-169.9661713,-79.56747437,1.218598127,8.934303284,0.185428083,-0.479157895,24.20384407,6.11783886,9.665309906, 
744,543586102,-168.5768127,-79.63287354,0.182022363,8.963748932,0.237792462,-0.311440647,22.57029724,5.78369379,10.20604324, 
745,543602769,-167.1579285,-79.71498871,-0.849932134,9.615365982,0.038299505,-0.278236389,24.60581398,6.980798721,9.730903625, 
746,543619436,-165.8596649,-79.8004837,-1.776166439,10.39940453,-0.233408496,-0.070696846,23.60183716,7.125648499,8.334225655, 
747,543636103,-164.536377,-79.92282104,-2.708556652,11.17877579,-0.51113236,-0.020384496,24.72996521,9.42552948,7.575263977, 
748,543652770,-162.9104309,-80.12743378,-3.817316771,11.13383198,-0.447424144,-0.110063635,32.44672394,14.82709217,7.553963184, 
749,543669437,-161.1475677,-80.29692078,-5.04581356,10.67178726,-0.277386487,-0.140885562,33.54941559,13.32887268,8.726287842, 
750,543686104,-159.5336151,-80.45126343,-6.168144226,11.33340168,-0.51189965,0.157700911,30.87148285,12.29939556,7.439212322, 
751,543702771,-157.9591217,-80.881073,-7.191675186,12.40914822,-1.335809827,1.272823691,34.30201721,27.41201401,-0.101010777, 
752,543719438,-155.8727417,-81.72938538,-8.481485367,12.58332825,-2.026700735,2.411347389,49.13344955,51.1744194,-9.230355263, 
753,543736105,-152.8314056,-82.73748016,-10.34331608,11.33747959,-1.358970881,2.13332653,72.25448608,60.77715683,-12.59410954, 
754,543752772,-150.6226501,-83.08965302,-11.27470016,10.30681229,-0.161480635,-0.191072494,77.55147552,21.57414818,-3.946911097, 
755,543769439,-150.5534058,-82.76386261,-10.35834122,12.0208416,-0.050441146,-2.452943802,59.21345901,-20.65276337,3.710268974, 
756,543786106,-150.1064911,-82.71096802,-10.15175819,13.50957489,0.546287417,-3.600826979,39.59817505,-3.821295023,0.237719193, 
757,543802773,-151.1632385,-82.97627258,-8.96602726,12.39076805,1.374752402,-4.509212971,7.673868656,9.264649391,-15.48308086, 
758,543819440,-155.5044556,-83.37874603,-5.108298779,11.01413727,0.64103061,-4.468676567,-30.15117073,9.010120392,-35.3361969, 
759,543836107,-160.3448944,-83.77291107,-0.87464273,9.737952232,-0.721374452,-3.028008223,-37.50559998,11.03775883,-35.14473724, 
760,543852774,-163.1992798,-83.92778778,1.429520845,9.541583061,-2.564231873,-1.484602928,-33.31809616,4.037170887,-16.91001701, 
761,543869441,-162.0773926,-84.02804565,0.005990357,10.64738274,-3.581514835,-0.590157509,-17.1523304,8.282120705,6.795929432, 
762,543886108,-157.6387634,-84.37489319,-4.533597946,10.47330189,-2.917225838,0.223587781,-4.21119976,28.85668945,18.68562889, 
763,543902775,-152.3910675,-84.84140015,-9.726013184,9.562113762,-1.135832667,0.44140628,5.141830444,37.58417892,14.70888233, 
764,543919442,-149.3157959,-85.07976532,-12.80573463,9.413136482,0.518303037,-0.059641536,0.895523846,20.25274849,7.206414223, 
765,543936109,-148.1713562,-85.19091797,-14.30175591,9.840647697,1.377621174,-0.85792011,-20.29939842,9.533153534,3.036032438, 
766,543952776,-146.6543121,-85.31680298,-16.46461487,9.138586044,0.347423375,-1.496328354,-37.84567261,12.01987743,4.98927927, 
767,543969443,-142.5836029,-85.59815979,-21.21352577,8.178263664,-0.732691586,-0.753245115,-39.33406448,26.70408821,8.636755943, 
768,543986110,-136.9141083,-85.87019348,-27.48608589,7.030382156,-1.277126431,0.338370413,-34.68576813,30.42886925,10.82184792, 
769,544002777,-132.0329132,-85.98419189,-32.93375015,6.882193089,-1.466889381,0.571347952,-32.70225906,21.2592926,11.36639404, 
770,544019444,-129.0413971,-85.99117279,-36.47760773,7.492001057,-1.505243659,0.464181542,-32.17137527,11.48701286,9.327468872, 
771,544036111,-128.3260803,-85.87080383,-37.7624855,8.453278542,-1.570613742,0.385765702,-33.5257225,-0.328951687,9.01646328, 
772,544052778,-127.4183273,-85.77631378,-39.17974472,9.266064644,-1.725765824,0.410506219,-29.8897419,1.334131598,8.213443756, 
773,544069445,-126.0521774,-85.76834869,-40.95014572,9.134363174,-1.893058777,0.478255957,-23.49886322,5.921591759,4.98349905, 
774,544086112,-125.9344559,-85.74144745,-41.34182739,8.924463272,-2.024712801,0.498855859,-15.93073559,0.389146924,2.239192486, 
775,544102779,-126.3788147,-85.7454071,-41.0871048,8.724819183,-1.984048963,0.63403672,-11.01678181,-0.856886029,-0.941779375, 
776,544119446,-127.3467865,-85.77998352,-40.258358,8.413578987,-1.817922473,0.958163321,-8.020458221,-1.751108527,-3.992732286, 
777,544136113,-128.4916077,-85.83943176,-39.18801117,8.343876839,-1.403770804,1.246539354,-4.194086075,-1.572280526,-5.829060078, 
778,544152780,-129.9626465,-85.91064453,-37.7806015,8.08092308,-0.947639227,1.369653583,-3.600806713,-2.075877428,-7.280493259, 
779,544169447,-132.425354,-85.94609833,-35.38257217,8.082397461,-0.517699778,1.234820366,-3.80159831,-6.365456581,-8.463636398, 
780,544186114,-135.8153839,-85.94136047,-32.09955597,8.790188789,-0.3365632,0.984639704,-6.434087753,-10.26527786,-9.652377129, 
781,544202781,-139.4965668,-85.86573029,-28.53196907,9.861289024,-0.926737607,0.666223347,-6.885859489,-13.72753048,-8.394257545, 
782,544219448,-142.3270264,-85.7822113,-25.9172287,11.11904049,-1.035155892,0.659484684,-12.91225338,-11.18397045,-5.850708961, 
783,544236115,-143.1328888,-85.97114563,-25.50398254,11.10009193,-0.720012784,0.932561994,-23.13363075,7.868982315,-8.450269699, 
784,544252782,-146.282608,-86.06702423,-22.89464188,11.19227028,-0.576029897,0.57776165,-32.31401825,-1.665453434,-12.36329365, 
785,544269449,-148.6618652,-86.2555542,-21.15050316,12.62521839,-0.724702775,1.501753092,-37.84715652,5.699945927,-12.17062759, 
786,544286116,-146.9634399,-86.8200531,-23.55326653,12.9089098,0.029621527,3.729547501,-41.48147583,33.223423,-10.86305523, 
787,544302783,-144.1560364,-87.45909119,-27.17420578,11.85276508,0.829380155,4.202843666,-48.00823975,37.63909912,-12.92920685, 
788,544319450,-145.8812103,-87.83345795,-26.26609421,11.13036537,0.798545659,2.639831543,-48.48501205,16.99674416,-14.9070549, 
789,544336117,-152.3257446,-87.8398819,-20.71221733,12.03191853,-0.284600616,0.767788053,-53.07549667,-6.25173521,-11.19351482, 
790,544352784,-156.7348328,-87.56385803,-17.35761452,13.08396912,-1.88826704,-1.78942883,-62.83847046,-18.56092644,-0.374200821, 
791,544369451,-159.4584503,-86.7986908,-15.55381775,13.80068779,-2.840622425,-4.724013805,-54.70993805,-44.65095901,11.9316864, 
792,544386118,-157.5112457,-85.76131439,-18.07064819,14.22017574,-3.976734638,-6.420238495,-33.33482742,-54.34914017,31.66434097, 
793,544402785,-150.449707,-85.4057312,-25.31793404,11.39161777,-4.384793282,-4.394607067,-9.375012398,-4.442259789,39.11091995, 
794,544419452,-141.2328186,-85.64486694,-34.32774353,7.796797276,-3.440169334,-2.01315856,14.49205685,35.5280571,26.52121735, 
795,544436119,-134.5853882,-86.06219482,-40.68811417,6.103363991,-1.356055379,-0.963648379,18.63833427,37.101017,3.377234459, 
796,544452786,-133.6939545,-86.47413635,-41.76649094,7.403574944,-0.353969395,-0.799765944,-10.67051601,20.30485344,-15.1305685, 
797,544469453,-136.4383392,-86.80384064,-39.38914108,10.80621433,0.039862283,-0.761623859,-21.85503387,8.183245659,-20.21621323, 
798,544486120,-138.5163269,-87.14920044,-37.48115921,13.07752991,0.012776674,-0.627193689,-9.935441971,11.28899288,-18.77622032, 
799,544502787,-141.3325653,-87.50080109,-34.60633087,12.47539234,-1.141906738,-1.195894718,3.733781099,11.05360889,-20.04371452, 
800,544519454,-144.7276764,-88.03627014,-30.89624786,10.49139214,-2.338743687,-1.449167728,19.15398788,20.55903244,-26.54574394, 
801,544536121,-151.1962128,-88.75667572,-23.86304474,8.066009521,-2.624377012,-0.63426286,34.11505508,30.42340469,-33.19604111, 
802,544552788,-171.5414429,-89.34898376,-2.719359159,6.809630394,-1.970216751,0.46610111,48.1753273,26.55344582,-31.25259018, 
803,544569455,138.9718781,-89.47177124,47.59542084,6.690066338,-0.698123276,0.754651904,49.96770096,15.03678799,-27.34036446, 
804,544586122,115.0257111,-89.17457581,72.26895142,7.157479763,0.401636988,0.175260752,44.02282333,3.50138998,-24.70741653, 
805,544602789,111.6749954,-88.8444519,76.25060272,7.621405125,1.171835303,-0.253965348,38.2833519,-3.919569731,-20.13269615, 
806,544619456,115.4589691,-88.5760498,73.01928711,7.869555473,1.567906618,-0.551815093,33.55864716,-10.28437519,-13.26969147, 
807,544636123,122.6731796,-88.37117767,66.33855438,8.287895203,1.691886187,-0.51462692,32.5591774,-15.14441681,-5.812950611, 
808,544652790,127.880188,-88.27500916,61.60588837,9.284648895,1.351627469,-0.866904914,29.01557922,-9.964811325,-0.168679371, 
809,544669457,128.5272064,-88.3239212,61.37169647,9.493204117,1.355398178,0.086019956,25.20107269,1.637910366,2.317608833, 
810,544686124,129.7855835,-88.40860748,60.51529312,9.452653885,1.319394827,0.359182864,24.59884834,2.218922615,4.628340244, 
811,544702791,130.9816589,-88.55030823,59.57592773,9.14690876,1.307932854,0.803763092,15.8449688,4.520454407,7.232700825, 
812,544719458,132.4470978,-88.71945953,58.18062973,9.180308342,1.073836327,0.855133235,4.70251894,5.397558212,8.683720589, 
813,544736125,131.1903839,-88.9313736,59.3215332,9.076031685,0.988668025,0.713784695,-6.459521294,9.649297714,8.32335186, 
814,544752792,132.0088806,-89.12598419,58.33890533,8.852606773,0.718239665,0.504389882,-9.443159103,7.163325787,9.226073265, 
815,544769459,137.6652985,-89.28810883,52.58245087,9.06360054,0.326129645,0.517215431,-5.457473278,3.578684807,10.05385971, 
816,544786126,145.5459442,-89.49140167,44.71922302,9.676808357,0.062324636,0.790001392,1.617314696,6.516078472,11.28731823, 
817,544802793,159.8251953,-89.76593018,30.50801659,9.906672478,0.040820818,1.075927496,4.544003963,12.1093111,12.23430157, 
818,544819460,-132.4925232,-89.84423065,-37.06709671,10.03626251,0.420747578,0.953172207,6.913053036,7.122820854,11.5600462, 
819,544836127,-109.1020813,-89.72732544,-60.42858887,10.24590492,1.13421762,0.504925489,2.188682318,1.073415637,8.392208099, 
820,544852794,-117.7981186,-89.56389618,-51.77270508,10.97840691,1.154634714,-0.029827006,-2.03387332,-6.725570202,7.569604874, 
821,544869461,-117.0488968,-89.46368408,-52.45796585,11.88410759,0.047329362,0.872091472,4.327778339,-2.342928171,5.371034622, 
822,544886128,-88.1015625,-89.50623322,-81.00922394,12.43941498,-1.141976833,2.772724867,24.40781784,15.56993675,0.69796741, 
823,544902795,-37.11912155,-89.2277298,-131.2988586,11.780159,-1.217782736,3.769958019,42.14324951,35.78103638,-1.532059431, 
824,544919462,-19.98370361,-88.63184357,-147.7075653,10.90993023,0.529901564,3.372860909,44.36561966,39.91196823,0.639672458, 
825,544936129,-16.55045319,-88.35230255,-150.4406586,10.44834232,2.1358881,1.822259188,42.64261627,17.32639122,1.015115619, 
826,544952796,-19.93705177,-88.70925903,-146.5963287,12.13303947,2.266826153,-0.463833004,27.97279167,-22.12471199,-1.199953914, 
827,544969463,-21.12005424,-89.17909241,-145.084671,13.60639572,1.554572225,-2.622122049,20.27822495,-26.91379166,-8.412418365, 
828,544986130,18.02754402,-89.717453,175.7429352,13.21339989,0.976970911,-3.72379303,-0.775716424,-29.70457458,-23.11800385, 
829,545002797,105.5509186,-89.26166534,87.85417175,11.4146595,0.369314432,-3.352063656,-21.22864914,-28.08715057,-37.51837158, 
830,545019464,111.6923981,-88.4827652,81.11759186,10.17049789,-1.145556688,-2.329103231,-35.07932281,-22.27914238,-41.76037598, 
831,545036131,102.9980621,-88.03646851,89.24351501,9.666213989,-2.414751768,-1.807621241,-33.8519783,6.356720924,-29.9724865, 
832,545052798,81.50871277,-87.88938141,110.2514954,9.395599365,-2.751351357,-0.675805986,-29.17365456,44.39329147,-10.52585602, 
833,545069465,58.92841339,-87.72238922,132.5680389,8.592321396,-1.932918906,0.674124658,-16.28379822,51.49114609,7.865986824, 
834,545086132,53.94552231,-87.90557098,137.4650116,9.856751442,0.057052158,1.43069458,-4.89366293,3.496431589,15.20861721, 
835,545102799,51.56771088,-88.07593536,139.6878662,12.22232246,1.740096927,1.271081805,-8.90116787,-2.239185095,10.82876205, 
836,545119466,44.15887451,-87.91906738,146.5046692,11.29065418,1.866639733,0.725825667,-35.27122879,17.12657738,2.476953506, 
837,545136133,39.50951767,-87.83589935,149.9585114,10.27219963,1.563929081,-0.271344513,-71.35906982,9.063474655,2.267059803, 
838,545152800,31.23950386,-87.74198151,156.4507599,9.729814529,1.41584301,-1.074219108,-106.451683,13.52134228,8.869781494, 
839,545169467,21.00590134,-87.63256073,164.9260254,8.619569778,0.50834924,-1.120807409,-105.4053802,15.17158318,15.39918804, 
840,545186134,11.76739979,-87.52915192,172.703949,8.046398163,-0.233738124,-0.382531077,-87.56842041,11.75737286,17.01374626, 
841,545202801,2.904489517,-87.46224976,-179.7552643,8.274823189,-0.693003416,0.521870017,-79.26800537,6.807810783,18.94294739, 
842,545219468,-4.867762089,-87.29962921,-173.4103699,8.669995308,-1.274721622,0.840258181,-85.55599976,9.747408867,17.40290642, 
843,545236135,-10.48042393,-87.05470276,-169.3957672,8.627717018,-1.46318984,0.870757103,-95.69731903,13.28531742,13.55005932, 
844,545252802,-14.53509045,-86.79545593,-166.991333,8.553365707,-1.490004778,0.615063787,-98.74682617,13.83818531,10.74189854, 
845,545269469,-17.51389885,-86.55104828,-165.603653,8.693052292,-1.154887795,0.555429995,-95.11297607,13.08057785,8.487751007, 
846,545286136,-19.78498459,-86.39255524,-164.8666992,8.806527138,-0.651451349,0.448750317,-91.65460205,8.488206863,5.405408382, 
847,545302803,-22.63700294,-86.3698349,-163.531662,8.77448082,-0.490491211,0.22746104,-90.71224976,-0.186869279,4.986809731, 
848,545319470,-26.58298302,-86.41412354,-161.1602173,9.014988899,-0.474879324,0.440708816,-94.28503418,-5.760523319,6.804958344, 
849,545336137,-30.63874054,-86.48526001,-158.6890869,9.338036537,-0.48034519,0.580456913,-94.89234161,-7.747520447,5.778820515, 
850,545352804,-34.06528854,-86.54464722,-156.8281555,9.796972275,-0.171419874,0.681395769,-93.67238617,-6.23875618,3.579249144, 
851,545369471,-37.18920135,-86.53722382,-155.3401489,10.26045513,0.097957283,0.780314565,-97.86565399,-2.347739458,4.393373013, 
852,545386138,-40.19836044,-86.49289703,-154.1630096,10.55521584,0.165348411,0.632345796,-109.5729675,-0.179898441,4.758279324, 
853,545402805,-43.48688507,-86.41756439,-152.9078064,10.73253822,-0.143153206,0.455741435,-121.6646194,0.700370967,6.224422455, 
854,545419472,-46.05589676,-86.21840668,-152.4562988,10.89998245,-0.444008142,0.501849651,-126.6497421,7.728490829,9.400763512, 
855,545436139,-47.13422394,-85.89373016,-153.6875458,10.53603935,-0.809076428,0.612093568,-137.9159698,17.5494442,10.39094448, 
856,545452806,-48.13128662,-85.56253052,-155.2243652,9.861597061,-1.500384331,0.741607249,-151.302948,18.9622364,9.784440041, 
857,545469473,-49.41059494,-85.25257111,-156.5956421,9.53762722,-2.240952969,1.040282011,-158.2996216,17.73550987,9.372240067, 
858,545486140,-50.03341293,-84.95038605,-158.6711578,9.280674934,-2.635373116,1.321523905,-160.9483643,20.36400986,6.65696907, 
859,545502807,-49.83958435,-84.69230652,-161.5460815,9.225001335,-2.725360394,1.363068104,-159.6559143,22.43403435,1.51718533, 
860,545519474,-48.91980362,-84.51002502,-165.1433868,8.931860924,-2.721057415,1.270581841,-159.1862183,23.10918808,-5.241348743, 
861,545536141,-47.15806961,-84.37991333,-169.5611267,8.893136978,-2.519258499,1.418304205,-157.5895081,24.88624191,-11.69372559, 
862,545552808,-45.64419556,-84.36222839,-173.6721191,9.12600708,-1.881706238,1.346362114,-154.0888824,18.86170387,-16.26622963, 
863,545569475,-45.9838028,-84.49651337,-175.9700928,9.628353119,-1.344179988,0.544790864,-157.0483246,4.623376369,-15.45751953, 
864,545586142,-49.53252029,-84.74230957,-174.9891815,10.46466637,-1.237756491,-1.30647552,-153.7725525,-13.33427334,-7.563823223, 
865,545602809,-57.21066284,-85.0141449,-169.7716217,10.9103241,-1.032350659,-3.727598429,-148.3503571,-31.44054985,3.235191345, 
866,545619476,-68.91441345,-85.12536621,-160.3187256,11.55916023,0.030935995,-6.066300392,-136.6246033,-45.67444229,15.76479053, 
867,545636143,-79.30960083,-84.9319458,-152.0078583,11.39286232,1.024255753,-6.034457684,-126.47892,-37.54245377,22.61382484, 
868,545652810,-92.45252991,-84.58405304,-140.6546783,11.44696808,2.884218931,-5.15322876,-109.8205032,-59.61043549,24.86868477, 
869,545669477,-106.4114151,-83.81671143,-128.4324036,13.99815464,3.908512115,-5.92512846,-107.5668411,-79.55054474,32.76435852, 
870,545686144,-114.3536224,-82.93067932,-122.2230682,15.34706688,1.75305903,-7.129283905,-106.174614,-57.80508804,34.57127762, 
871,545702811,-116.7695541,-82.55270386,-121.2234039,12.85561562,-0.774352014,-4.577414989,-85.24533844,-15.60299492,17.01044464, 
872,545719478,-117.9436417,-82.66473389,-121.4071045,9.069023132,-1.791836619,-1.077479362,-81.2004776,5.39917469,-5.472101688, 
873,545736145,-121.1219711,-82.91099548,-119.7124405,7.134459019,-1.760806203,0.525713265,-89.63219452,-2.761527777,-19.30098343, 
874,545752812,-126.3477936,-83.0986557,-116.2431717,7.057799816,-0.625553668,1.160020351,-106.7545395,-13.77066708,-23.58018494, 
875,545769479,-132.9863586,-82.97267151,-111.6095123,7.778306007,1.445876241,0.705554187,-122.1256714,-29.7032299,-15.84365845, 
876,545786146,-139.1125336,-82.57685852,-107.6411743,8.542131424,3.013935566,-0.905492067,-131.1750641,-36.81903839,-5.188065052, 
877,545802813,-143.796524,-82.14617157,-105.1750412,8.190343857,3.191969633,-2.310281754,-134.2049713,-31.40366745,0.64586091, 
878,545819480,-147.0515442,-81.75993347,-103.9671631,7.9296031,2.411055565,-2.578006744,-123.4091721,-23.77090645,4.778552532, 
879,545836147,-149.4617462,-81.32891083,-103.3756638,8.632377625,1.579047918,-2.489940882,-109.3787842,-23.65216446,9.17937851, 
880,545852814,-151.2915955,-80.80020905,-103.2413864,9.857699394,0.836236358,-2.696012735,-101.7358627,-27.10168457,14.64132214, 
881,545869481,-152.2037201,-80.32492065,-103.9058838,10.7788496,0.113952309,-2.683464527,-93.98322296,-20.92971802,19.3354969, 
882,545886148,-152.3223114,-80.04072571,-105.2454758,10.84347343,-0.378455192,-2.642782211,-86.23734283,-7.605609417,20.15952873, 
883,545902815,-152.2554016,-79.89742279,-106.7329483,10.29291821,-0.67468816,-2.885765076,-83.79685211,0.730320096,17.8707428, 
884,545919482,-152.4296875,-79.79533386,-107.9687119,9.805839539,-0.788244903,-2.995400429,-83.37405396,1.758605838,14.54548073, 
885,545936149,-152.9685364,-79.69049835,-108.7935181,9.917132378,-0.492376268,-2.874252081,-80.95822144,-0.421441257,10.85065842, 
886,545952816,-153.6923676,-79.61973572,-109.4781647,10.11341572,0.328445435,-2.668853521,-83.77765656,0.645795465,8.649144173, 
887,545969483,-154.6030579,-79.56632233,-110.0423965,10.12385464,1.134790897,-2.73505497,-87.87165833,0.92281884,7.069215775, 
888,545986150,-155.8497772,-79.50447845,-110.2934113,10.39052296,1.624768496,-2.896140814,-89.57751465,-1.087533116,4.239937782, 
889,546002817,-157.141571,-79.48329926,-110.4487915,10.47107601,1.531472921,-2.765169144,-86.63954163,0.659704626,2.290367603, 
890,546019484,-158.2889252,-79.55471039,-110.6961517,10.23627472,1.177918792,-2.23671627,-83.43110657,6.125804901,1.134676814, 
891,546036151,-159.2188263,-79.71422577,-111.1843872,9.843126297,1.135439038,-1.703500748,-84.6136322,11.96474934,1.727947712, 
892,546052818,-160.0407257,-79.90478516,-111.854393,9.340895653,1.41500473,-1.790989637,-88.88837433,14.32844257,2.991847277, 
893,546069485,-160.9721222,-80.06245422,-112.4487686,9.063112259,1.510031462,-2.073044538,-91.03456879,12.10780907,3.023291588, 
894,546086152,-161.8494415,-80.17903137,-113.0220947,9.288117409,1.308084369,-2.228402138,-86.56655884,9.630000114,3.719198227, 
895,546102819,-162.4230957,-80.2877655,-113.755127,9.648218155,0.982756078,-2.010555744,-77.82192993,9.614019394,5.479399681, 
896,546119486,-162.6046143,-80.44333649,-114.7658234,9.834918976,0.910952508,-1.676520228,-70.74464417,13.05952263,7.273724556, 
897,546136153,-162.5100098,-80.6682663,-116.0272369,9.63624382,0.991267681,-1.553416967,-69.05552673,17.69834518,8.21584034, 
898,546152820,-162.1460266,-80.9081955,-117.5773087,9.399044037,1.399873018,-1.559193969,-70.05057526,19.328125,10.24512672, 
899,546169487,-161.5297699,-81.08992004,-119.3824768,9.593026161,1.848462105,-1.668375492,-70.09352112,16.72984505,13.14922523, 
900,546186154,-160.7132721,-81.23625946,-121.380127,9.842547417,2.085906267,-1.927968502,-69.55692291,15.34593582,15.05020714, 
901,546202821,-159.6122284,-81.44154358,-123.6370926,10.00398445,2.054001808,-1.954648495,-67.93709564,19.57869148,15.49566746, 
902,546219488,-158.1788025,-81.74549866,-126.2052841,9.824110985,1.913573623,-1.648064852,-66.57381439,26.19457054,14.96393204, 
903,546236155,-156.4881439,-82.0723877,-129.019516,9.539616585,1.896212816,-1.3066293,-65.90120697,28.31178284,14.91005421, 
904,546252822,-154.6190491,-82.37468719,-132.0279999,9.413777351,2.085879326,-1.130362272,-66.89087677,27.66418648,15.28721523, 
905,546269489,-152.4614258,-82.63119507,-135.332489,9.307279587,2.368471146,-1.291335344,-67.31773376,26.34114265,16.87949944, 
906,546286156,-149.8139648,-82.84761047,-139.0485382,9.229280472,2.365214586,-1.518003225,-62.55389023,26.0032177,19.0083065, 
907,546302823,-146.3076477,-83.0508194,-143.508194,9.485272408,2.189878225,-1.54519856,-55.42906952,28.74039459,22.04433823, 
908,546319490,-141.8955688,-83.24822998,-148.8003845,9.445067406,1.72779882,-1.38311851,-50.81370544,32.80939102,24.37584877, 
909,546336157,-137.4244385,-83.32662201,-153.9426727,9.959274292,0.839787781,-1.931854248,-38.43775558,27.94774437,25.09230614, 
910,546352824,-132.8200226,-83.4407959,-159.0409546,11.56621361,0.029972613,-2.603181362,-27.89254379,30.74108696,20.80266762, 
911,546369491,-128.5194397,-83.7436142,-163.9026642,12.62618256,0.436714202,-2.132969856,-32.13690567,37.55538177,8.102617264, 
912,546386158,-126.3740158,-84.16985321,-166.8780518,12.49609566,1.365601897,-1.410620928,-49.11851883,31.50245857,-8.198147774, 
913,546402825,-125.0100327,-84.62549591,-169.5357819,11.42895508,1.422047973,-0.732056022,-77.19422913,29.61372948,-12.42141628, 
914,546419492,-121.1280136,-84.93980408,-174.8449707,9.790150642,0.04829311,-0.852288067,-84.67418671,35.55499649,0.72764641, 
915,546436159,-114.6811295,-84.9966507,177.5154877,8.645764351,-2.157888889,-1.065168858,-70.14608765,38.10353851,16.49821091, 
916,546452826,-107.0413971,-84.9183197,168.7554626,9.194103241,-3.378757,0.296417236,-65.52606201,42.46176529,21.50359154, 
917,546469493,-99.41633606,-84.84227753,160.1177979,9.805625916,-2.706187248,1.499138832,-59.01689911,44.92685699,15.67267036, 
918,546486160,-95.99263,-84.70191193,155.5645294,10.84678555,-0.775959849,1.363718867,-66.94895935,24.50600815,12.32418156, 
919,546502827,-94.55434418,-84.45231628,152.497818,11.63431168,-0.089630134,0.026660416,-97.20618439,16.88919258,17.16350174, 
920,546519494,-91.15719604,-84.11510468,147.0931702,11.28599548,-0.529025614,-0.550529003,-119.1654663,32.1787529,22.45622253, 
921,546536161,-87.51181793,-83.74323273,141.3745728,10.09774685,-1.079016328,-0.514532685,-122.7997513,37.45467377,22.52554703, 
922,546552828,-84.72863007,-83.43730164,136.5908508,8.663070679,-1.582671523,-0.500471592,-118.5662231,34.1157341,16.79782295, 
923,546569495,-82.46001434,-83.22647858,132.340683,7.992619038,-1.820559859,0.338820666,-117.4820862,31.72999001,9.907479286, 
924,546586162,-81.08146667,-83.07301331,128.8937378,7.764364243,-1.826176047,1.00647068,-122.9388885,26.61192322,6.236829281, 
925,546602829,-81.4415741,-82.90795898,127.1744461,8.165519714,-1.77775979,0.927994549,-124.2997894,14.80762196,8.522389412, 
926,546619496,-82.69716644,-82.64147949,126.5049133,8.818155289,-1.8074857,0.678361118,-115.4897156,8.050887108,15.76705837, 
927,546636163,-83.8887558,-82.28281403,125.9951477,9.069735527,-2.100546837,0.444022626,-102.1191177,7.323420048,21.53614807, 
928,546652830,-84.97455597,-81.95557404,125.5837631,9.092452049,-2.215262651,0.47634837,-89.88722229,6.08629179,19.83642006, 
929,546669497,-85.71922302,-81.71601868,124.936348,9.374297142,-2.003112316,0.709564865,-83.42380524,7.467206955,14.49522781, 
930,546686164,-86.42982483,-81.52471924,124.3246994,9.536421776,-1.68323338,1.066045046,-79.22444153,6.910137177,11.69444275, 
931,546702831,-87.39425659,-81.30717468,123.9901733,9.712540627,-1.483131409,1.258351922,-77.99517059,4.471775055,13.47290516, 
932,546719498,-88.59725952,-81.04706573,123.947525,9.820948601,-1.209017158,1.205800414,-75.00003815,1.700033307,16.18216324, 
933,546736165,-90.01496887,-80.78320313,124.1401138,9.791140556,-0.789163351,1.035345912,-73.95276642,-0.884283602,16.45555115, 
934,546752832,-91.31813812,-80.59095001,124.1899261,9.674304008,-0.620315015,1.054968119,-75.54679871,0.118595645,12.13135242, 
935,546769499,-92.54116821,-80.44167328,124.1091995,8.993851662,-0.328534573,1.133616924,-78.47977448,1.221848726,9.576267242, 
