PacketCounter,SampleTimeFine,Euler_X,Euler_Y,Euler_Z,Acc_X,Acc_Y,Acc_Z,Gyr_X,Gyr_Y,Gyr_Z,
0,584672714,-168.8386993,-88.65042114,-102.3299103,0,0,0,0,0,0, 
1,584689381,-149.6375275,-89.21815491,-121.525032,9.620376587,-0.238710374,0.332800627,-6.780115128,19.66536903,1.119103909, 
2,584706048,-67.35490417,-89.30058289,156.1099091,9.588383675,-0.032835104,0.417318255,-6.07563591,20.25810814,1.542290449, 
3,584722715,-29.85461807,-88.64621735,118.6463852,9.501563072,0.143992856,0.288928926,-4.311916828,19.61781311,-0.513471305, 
4,584739382,-15.94821548,-88.15985107,104.7313461,9.608449936,0.244337723,0.382765561,-7.887005806,16.29144669,-2.678016186, 
5,584756049,-6.784879684,-87.73204041,95.48009491,9.648359299,0.051788859,0.752561927,-13.84949017,17.07768822,-3.247721672, 
6,584772716,-1.533634424,-87.19348907,90.15596008,9.370456696,-0.273630023,1.016944289,-14.55881691,20.13740158,-4.463995934, 
7,584789383,0.557893753,-86.67516327,87.96681976,9.232749939,-0.2296184,1.117150664,-12.921525,16.24586678,-6.045055389, 
8,584806050,1.283247471,-86.28727722,86.97818756,9.616501808,0.028084895,1.076328278,-21.95928574,8.253138542,-6.023235321, 
9,584822717,1.592088461,-85.9747467,86.20277405,9.899137497,0.085220039,0.717839479,-35.71987915,5.502676964,-5.109321594, 
10,584839384,1.544655561,-85.69242859,85.6882019,9.5588274,0.090240963,0.056531176,-42.63309479,7.846624851,-3.657274246, 
11,584856051,1.470483303,-85.52455902,85.2258606,9.116526604,-0.243569687,-0.258612663,-41.79143143,7.042326927,-2.998011112, 
12,584872718,1.227934599,-85.52648163,85.01712799,9.20142746,-0.368216008,-0.136244267,-35.9381218,1.800946116,-2.666473389, 
13,584889385,0.718922257,-85.61130524,84.93410492,9.813398361,-0.61213696,-0.059000462,-35.3573761,-0.588172674,-2.350615978, 
14,584906052,-0.091715127,-85.64585114,85.10971832,10.31869411,-0.658973873,-0.077850029,-37.8686409,3.856799126,-2.56623888, 
15,584922719,-1.650321484,-85.63318634,85.88104248,10.41100597,-0.688156486,-0.005410559,-47.04962158,7.558988571,-0.717366159, 
16,584939386,-3.443812847,-85.59931946,86.70594788,9.816721916,-0.435323805,0.592691302,-57.87700272,9.121721268,-0.880383193, 
17,584956053,-4.675317764,-85.53199768,86.89775085,9.504863739,-0.629251599,1.144966841,-62.03034592,10.1289587,-3.294440746, 
18,584972720,-5.467203617,-85.44762421,86.65895081,9.766798019,-0.533594847,1.271211743,-61.41400909,9.459810257,-5.217699051, 
19,584989387,-5.867863178,-85.37653351,86.12547302,10.12803936,-0.299603701,1.107375145,-55.58353806,7.297415257,-6.520067692, 
20,585006054,-5.974873066,-85.31889343,85.2781601,10.29196072,-0.312734127,0.917326272,-56.76089859,5.830792427,-7.645748615, 
21,585022721,-6.119681358,-85.20743561,84.30729675,10.42669296,-0.364246845,0.987501979,-66.441185,8.745116234,-7.590432167, 
22,585039388,-5.947805405,-84.8219986,82.93130493,10.59789753,-0.945953429,2.031820774,-71.64487457,25.00781441,-7.946516037, 
23,585056055,-5.207516193,-84.08135986,80.99629211,9.250368118,-1.207957506,2.316861391,-70.79493713,45.29794312,-10.48768044, 
24,585072722,-4.381443501,-83.45455933,78.95948792,7.801951885,-1.511402607,2.027836084,-71.47970581,37.30857849,-14.2703886, 
25,585089389,-3.66245985,-83.3524704,77.34809875,8.10792923,-1.42257297,1.979909182,-52.35296249,4.860157967,-15.5463562, 
26,585106056,-3.639201641,-83.44145203,76.46323395,9.976373672,-0.9305076,2.037315607,-50.74579239,-7.447386265,-11.80125523, 
27,585122723,-3.897856236,-83.28887939,75.65919495,10.5281086,-0.719180048,2.243903637,-62.84145737,6.74767971,-10.32008266, 
28,585139390,-4.455823898,-82.97110748,74.94536591,9.150622368,-0.842244446,2.779408693,-75.40400696,16.3849926,-8.916508675, 
29,585156057,-5.656702518,-82.90732574,74.7492218,7.430299759,-1.50115335,2.406746864,-83.14058685,0.346221745,-6.249792099, 
30,585172724,-7.159441471,-83.28174591,74.97959137,7.623326778,-1.628054142,1.915372849,-75.83789063,-26.44741058,-6.344129562, 
31,585189391,-8.632292747,-83.79631805,75.29063416,9.64799118,-1.44424355,1.310971856,-69.23730469,-34.80177307,-7.972800732, 
32,585206058,-9.789616585,-84.01995087,75.42110443,10.94700336,-1.283718109,1.19738996,-61.09379578,-16.90208626,-7.258742809, 
33,585222725,-10.90407658,-84.02657318,75.57382202,10.890131,-1.297049165,1.509943128,-57.21893311,-3.664297581,-5.04300642, 
34,585239392,-12.27298355,-83.95934296,75.97650909,9.907317162,-1.459640622,1.746683598,-57.55587387,0.583432078,-2.575476646, 
35,585256059,-13.52524567,-83.90484619,76.3314209,8.925795555,-1.399052143,1.792574644,-53.42538071,-0.132124439,-2.959923029, 
36,585272726,-14.2705822,-83.91092682,76.32448578,8.676974297,-1.124042511,1.949755311,-44.59025192,-3.157838106,-5.980723858, 
37,585289393,-14.3006134,-83.93104553,75.6707077,9.315421104,-0.913377762,1.942408323,-40.30078888,-3.056740522,-10.03441334, 
38,585306060,-13.69982624,-83.90825653,74.35353851,9.631053925,-0.964130461,1.880295157,-42.06106567,0.3912687,-13.2850399, 
39,585322727,-12.96354485,-83.89821625,72.82540131,9.449252129,-0.880996466,2.08765173,-46.50754547,-0.104795225,-14.64309406, 
40,585339394,-12.32781315,-83.91820526,71.33296967,8.78368187,-0.734027982,2.296612501,-50.43502426,-2.085316896,-14.661623, 
41,585356061,-11.80604172,-84.04681396,69.97213745,8.784741402,-0.330227941,2.552124023,-49.46144104,-8.883363724,-14.91453457, 
42,585372728,-11.08745575,-84.23918152,68.36208344,9.508133888,-0.236044422,2.442222357,-52.58472443,-12.65613174,-16.59095192, 
43,585389395,-9.67771244,-84.46031189,66.00352478,10.20149803,-0.115080662,1.986113071,-55.87138367,-13.93867874,-20.45124054, 
44,585406062,-7.858525276,-84.63710022,63.19627762,10.28438473,0.323645413,2.38621664,-58.19461441,-11.42105389,-21.51174164, 
45,585422729,-6.341051579,-84.82581329,60.65516663,9.205858231,0.240017369,2.323136806,-60.47118378,-12.93975163,-19.02105331, 
46,585439396,-5.822832108,-85.19756317,59.07612991,8.940284729,-0.201011017,2.08932209,-63.02984619,-24.83692169,-14.01072693, 
47,585456063,-6.156498909,-85.66984558,58.33676147,9.390474319,-0.461481422,1.794231057,-64.00139618,-31.34729004,-9.783396721, 
48,585472730,-6.481539249,-86.18412781,57.66626358,9.728855133,-0.510351241,1.130502582,-59.41716766,-33.84984589,-9.483683586, 
49,585489397,-5.837049484,-86.70153046,56.12729263,9.900894165,-0.388001293,0.705766976,-53.33803177,-33.62738419,-12.22565746, 
50,585506064,-3.86413908,-87.2535553,53.24430084,9.619462967,-0.214238733,0.608430505,-54.18295288,-35.30394363,-14.99591827, 
51,585522731,-0.65804255,-87.83662415,49.06413269,9.233794212,-0.084302194,0.537610829,-58.11135864,-37.46904373,-15.12548828, 
52,585539398,4.505798817,-88.4655838,42.85463715,9.184337616,0.072763681,0.78817451,-62.44125366,-40.8004837,-13.64057446, 
53,585556065,15.59225655,-89.14545441,30.6641655,9.201483727,-0.035242949,0.802817822,-65.96536255,-45.16970825,-10.70058918, 
54,585572732,74.41468811,-89.67076111,-29.1960125,9.279728889,-0.257995844,0.360570163,-62.17224121,-47.07577133,-8.291639328, 
55,585589399,150.85289,-89.17079163,-106.5895309,9.427297592,-0.340068489,0.143817097,-57.14981842,-51.5482254,-7.602329254, 
56,585606066,161.3199463,-88.34223175,-117.8936157,9.513955116,-0.274338633,-0.070243031,-50.1178093,-53.56814957,-9.22196579, 
57,585622733,164.1270142,-87.447258,-121.4993286,9.513001442,-0.102042854,-0.287338287,-47.83425522,-55.84767532,-10.89485741, 
58,585639400,165.3961182,-86.45635986,-123.5765762,9.353569984,-0.032527681,-0.369469881,-48.39892197,-61.2068634,-11.70581245, 
59,585656067,166.2371521,-85.35408783,-125.2463531,9.337970734,0.029363211,-0.51476413,-49.56922913,-67.85999298,-11.67115784, 
60,585672734,166.9002228,-84.18325043,-126.7444611,9.567566872,0.42524606,-0.675204694,-49.88806534,-72.16775513,-10.68540096, 
61,585689401,167.530365,-82.91781616,-128.2046204,9.612352371,0.755603373,-0.958213508,-49.42054367,-78.05982208,-9.421199799, 
62,585706068,168.1830444,-81.53787231,-129.6126556,9.812770844,0.608792663,-1.323939323,-44.74514771,-85.11134338,-8.310645103, 
63,585722735,168.8191681,-80.10508728,-130.9375763,10.11768246,0.408181995,-1.462703109,-40.54166794,-88.45404816,-6.654761791, 
64,585739402,169.4922028,-78.66262817,-132.1938324,10.19862747,-0.121634245,-1.604620337,-33.95720291,-89.23874664,-4.50417614, 
65,585756069,170.3185883,-77.23386383,-133.5055389,10.28194809,-0.367554039,-1.284310818,-27.68130302,-88.87640381,-0.698556423, 
66,585772736,171.0809937,-75.79522705,-134.7849579,9.938029289,-0.350696445,-0.74620074,-29.24586678,-89.72568512,1.842846751, 
67,585789403,171.6864471,-74.3241272,-135.9949951,9.830086708,0.085548326,-0.980613112,-34.20581055,-91.86125946,3.391909361, 
68,585806070,172.1796722,-72.7437439,-136.9965515,9.468553543,0.394576311,-1.67316401,-28.45223808,-98.18512726,1.70369792, 
69,585822737,172.4114685,-71.03525543,-137.6413116,10.12148285,0.315086633,-2.580423117,-23.29853058,-105.1693802,-3.607132196, 
70,585839404,172.588623,-69.33984375,-138.1281128,12.1465559,-0.504572392,-3.349792004,-17.31428909,-104.1366959,-5.188068867, 
71,585856071,172.7997589,-67.82859802,-138.5056763,13.8145504,-0.588454008,-4.361763954,-8.945063591,-93.03713226,-5.097468853, 
72,585872738,172.930603,-66.5729599,-138.8005676,13.76922035,0.171339795,-5.230978966,-9.045332909,-77.7045517,-4.386410713, 
73,585889405,172.8371582,-65.60084534,-139.1353455,11.80968666,0.574647784,-5.889690876,-24.57933235,-60.97972488,-0.967918694, 
74,585906072,172.6359558,-64.96657562,-139.485611,10.84428596,0.0084837,-5.716217041,-31.78100777,-40.82265854,2.130170584, 
75,585922739,172.7276154,-64.42446899,-139.8305359,11.82328415,-0.391827404,-5.444784641,-13.85664272,-35.22293854,2.844272375, 
76,585939406,173.0270844,-63.72699738,-140.1831665,11.85455132,0.117281787,-5.632473946,-1.748194337,-44.47407532,2.156892538, 
77,585956073,173.3990631,-62.82706451,-140.555191,11.41868973,0.824690163,-6.173522472,1.667885661,-56.58013535,1.763921618, 
78,585972740,173.829361,-61.831707,-140.9263306,11.72958374,1.14171803,-6.901382923,5.385201454,-62.20235062,1.889878154, 
79,585989407,174.2135315,-60.94607925,-141.2368011,12.08623886,1.038357496,-6.988025665,6.003072739,-55.37548065,1.690641999, 
80,586006074,174.5183105,-60.16870117,-141.4839172,12.23312092,0.704057574,-6.534649372,4.6949687,-48.66516495,1.113156438, 
81,586022741,174.765564,-59.45407104,-141.6789093,12.42716026,0.471263409,-6.190746307,4.052540779,-44.77809525,0.347765326, 
82,586039408,175.0045471,-58.8985672,-141.8464813,12.49557209,0.51896739,-6.227493286,5.039186954,-35.25663757,0.686148047, 
83,586056075,175.254837,-58.53753662,-142.020813,12.20583153,0.742287874,-6.308780193,5.421559811,-23.71827698,2.136430025, 
84,586072742,175.4934998,-58.34125519,-142.2275391,11.76638985,1.054717183,-6.029477119,3.11435914,-13.99495411,4.140110016, 
85,586089409,175.6598969,-58.27074051,-142.484787,11.48174286,1.343565702,-5.508024216,-3.742452383,-6.63803339,6.451079369, 
86,586106076,175.7916107,-58.34710312,-142.8294067,11.23427486,1.341378331,-5.297833443,-10.23132038,1.88046658,9.962752342, 
87,586122743,176.0423737,-58.58348083,-143.2794952,10.87405109,1.047734737,-5.205440998,-8.45847702,11.17416286,13.9790926, 
88,586139410,176.4605713,-58.93784714,-143.8264008,10.24102783,0.907616138,-5.030502796,-3.410594702,18.06673241,17.32171059, 
89,586156077,176.917038,-59.4077301,-144.4125366,9.62276268,0.739296794,-4.688827991,-3.228760958,25.01528549,18.6334877, 
90,586172744,177.4063721,-60.01089096,-145.0566406,9.191221237,0.470513463,-4.468058109,-4.400503159,33.05170822,20.32356071, 
91,586189411,178.0059204,-60.76306534,-145.7679901,8.938925743,0.083042189,-4.436821938,-1.504668474,42.09111404,21.9760685, 
92,586206078,178.5985718,-61.69070816,-146.5052185,8.771672249,0.020572232,-4.477894783,-3.585000277,52.83092117,22.0335083, 
93,586222745,179.0972443,-62.85157776,-147.2145996,8.346489906,0.093609348,-4.29650259,-8.11865139,67.07406616,20.30320358, 
94,586239412,179.6784668,-64.19870758,-148.0402985,7.684985638,0.270167977,-3.869391441,-9.828939438,78.44881439,22.0596447, 
95,586256079,-179.5857697,-65.5424118,-149.0753479,7.41742897,0.507175863,-3.387466431,-12.41544628,78.53980255,25.43975258, 
96,586272746,-178.8203888,-66.79842377,-150.275589,7.527567387,0.659230351,-3.278138399,-20.26400566,73.68237305,27.21569252, 
97,586289413,-178.1116028,-68.01590729,-151.4795074,7.813066483,0.691440463,-3.551331043,-24.44757462,71.72379303,25.00865173, 
98,586306080,-177.3313293,-69.33943176,-152.6624908,7.466657639,0.593497574,-3.843847036,-19.55938911,78.38450623,21.9087925, 
99,586322747,-176.3637695,-70.80925751,-153.9672852,6.29784584,0.371680439,-3.8890481,-15.77521324,87.63549805,21.11654663, 
100,586339414,-175.3096008,-72.24090576,-155.3401489,5.637907028,0.024638049,-3.647300005,-15.07938766,85.82239532,19.15400314, 
101,586356081,-174.1984711,-73.54656982,-156.7991333,5.581235409,-0.090820387,-3.358198166,-17.18129539,78.77623749,17.83625793, 
102,586372748,-172.8807068,-74.67636871,-158.4455414,5.494984627,-0.374499857,-3.139842033,-16.11352348,68.94682312,18.6040287, 
103,586389415,-171.2878723,-75.61829376,-160.3658752,5.264071465,-0.749329984,-3.054963827,-15.95942688,58.72031021,20.80811691, 
104,586406082,-169.5485535,-76.47585297,-162.4190979,5.157479286,-1.036540627,-2.658807039,-15.35283089,54.49065399,20.01872253, 
105,586422749,-167.7378845,-77.26874542,-164.4538574,5.413692474,-1.167093992,-1.863844752,-10.40955925,51.01512909,17.05049706, 
106,586439416,-166.1287079,-77.92138672,-166.3239136,5.873816967,-1.107576609,-1.504016995,-13.18429947,42.56938553,13.79293156, 
107,586456083,-165.0767365,-78.3963089,-167.7163696,6.213728428,-1.131992817,-1.8527565,-18.80921173,30.85118675,8.636867523, 
108,586472750,-164.5362701,-78.7489624,-168.6335449,6.792237282,-1.146314979,-2.109663725,-21.67090225,22.31107521,4.039783478, 
109,586489417,-164.4245453,-78.99223328,-169.194397,7.608916283,-1.155812383,-2.152279377,-26.47012138,14.9072504,1.362401724, 
110,586506084,-164.4281158,-79.15280151,-169.6864014,8.429800987,-1.179128528,-2.345012903,-29.36305809,9.927740097,1.768850923, 
111,586522751,-164.3019714,-79.2673111,-170.3224792,8.948108673,-1.11981535,-2.630332947,-30.08149147,7.756209373,3.944887161, 
112,586539418,-163.9216766,-79.34343719,-171.1070099,9.205235481,-1.264469028,-2.648656368,-23.59967422,6.066862106,6.028366566, 
113,586556085,-163.3990479,-79.34693909,-171.8593292,9.125144005,-1.458491325,-2.26238656,-13.17185211,1.895949602,6.780474663, 
114,586572752,-162.9435272,-79.28964996,-172.3936005,9.10342598,-1.701355815,-1.76889956,-4.344132423,-2.185493469,5.453859806, 
115,586589419,-162.6515045,-79.19326019,-172.6748047,9.076526642,-1.778807521,-1.572772861,0.754543841,-5.208253384,3.420045137, 
116,586606086,-162.5110474,-79.04803467,-172.7607117,9.191412926,-1.647059441,-1.560680509,3.156170845,-8.657608032,2.165484428, 
117,586622753,-162.4779968,-78.87827301,-172.7113953,9.428797722,-1.297464728,-1.485600471,4.660573006,-10.53919506,1.091043949, 
118,586639420,-162.555191,-78.68812561,-172.5777283,9.546020508,-1.019504428,-1.44573617,2.994785786,-12.03184223,0.473739147, 
119,586656087,-162.7622223,-78.47253418,-172.3686981,9.476053238,-0.998439133,-1.362106681,-0.382308155,-13.80657196,0.0086635, 
120,586672754,-163.1038666,-78.22486877,-172.0399475,9.353927612,-1.051362872,-1.213497996,-1.44263649,-16.11973763,-0.936695695, 
121,586689421,-163.5287018,-77.93557739,-171.6197968,9.34498024,-0.925576091,-0.999627531,-1.104075313,-18.92327881,-1.504901767, 
122,586706088,-164.0712585,-77.6363678,-171.1384125,9.603120804,-0.769705653,-0.97538805,-4.617386818,-19.80636787,-2.36318469, 
123,586722755,-164.720993,-77.4043045,-170.6045227,9.850766182,-0.724452138,-1.068894625,-8.013506889,-16.20449638,-4.416890144, 
124,586739422,-165.4616547,-77.25883484,-169.984787,9.922606468,-0.602180898,-1.115698457,-8.474277496,-11.52803135,-7.118954182, 
125,586756089,-166.2515106,-77.18533325,-169.325943,9.916684151,-0.431416541,-0.999686778,-9.157110214,-7.476134777,-8.867149353, 
126,586772756,-167.0877533,-77.17786407,-168.6742554,9.829228401,-0.320097744,-0.808038414,-12.36829472,-3.574985266,-9.777003288, 
127,586789423,-168.133606,-77.21521759,-167.926712,9.586431503,-0.217959031,-0.71295321,-19.33417511,-1.164355278,-11.59654045, 
128,586806090,-169.5640869,-77.24060059,-166.929245,9.495343208,-0.035471264,-0.787459135,-27.77595329,-2.361908913,-14.65106487, 
129,586822757,-171.3348083,-77.28462219,-165.6876068,9.520186424,0.040396396,-0.935201705,-33.88759613,-1.495417953,-17.97211456, 
130,586839424,-173.3369598,-77.43500519,-164.256897,9.448399544,-0.221119255,-1.015361428,-36.66796494,5.000315666,-21.11857224, 
131,586856091,-175.5245209,-77.64601898,-162.6280212,9.298674583,-0.469072312,-1.209831953,-36.11465836,9.059009552,-23.5001564, 
132,586872758,-177.850296,-77.84171295,-160.8481445,9.304066658,-0.348957628,-1.399446726,-35.47174454,8.880539894,-24.60549355, 
133,586889425,179.705307,-78.00305939,-158.9955597,9.282333374,-0.021323934,-1.632351637,-38.24764252,7.745229721,-24.71470261, 
134,586906092,177.0243988,-78.09056854,-157.0269318,9.579663277,0.413670808,-2.331637859,-45.5690918,4.373904228,-25.60133171, 
135,586922759,174.3088837,-77.92494965,-155.102356,9.972546577,0.739819765,-3.943275928,-50.23390961,-9.624685287,-25.95147133, 
136,586939426,172.0907288,-77.65904236,-153.6873932,10.16487503,0.874435604,-4.819720268,-50.35743332,-15.10934639,-20.96218491, 
137,586956093,170.4984436,-77.35452271,-152.7320862,9.827857971,1.04780829,-4.569533825,-39.81302261,-17.38735008,-16.23838043, 
138,586972760,169.0517883,-76.86127472,-151.8898621,10.15660477,1.272157669,-4.287271976,-37.77416992,-28.16744232,-17.52737427, 
139,586989427,167.3572845,-76.50528717,-150.9594269,10.02669048,1.018281341,-4.293670654,-47.56853104,-19.18318939,-18.08165169, 
140,587006094,165.9103699,-76.33200073,-150.2194366,8.746687889,-5.92E-04,-3.952374935,-43.87979507,-8.472221375,-13.64518166, 
141,587022761,164.9981079,-75.90752411,-149.8632965,8.183281898,-0.705570817,-3.279114723,-34.22887421,-24.01503754,-12.48619747, 
142,587039428,163.7609711,-75.46391296,-149.1358643,8.197555542,-0.394967377,-2.985601187,-32.20586014,-23.30151939,-18.75742149, 
143,587056095,161.7800293,-75.06250763,-147.9887238,8.556002617,0.408654392,-2.939125299,-52.58224869,-18.33936882,-25.1060009, 
144,587072762,159.6067963,-74.71994781,-146.7397461,9.608931541,1.033537745,-2.70740366,-58.34843445,-13.41273975,-26.48690033, 
145,587089429,157.805603,-74.40553284,-145.6177673,10.43008995,1.349920154,-2.688686848,-43.48358154,-11.51753521,-24.77968407, 
146,587106096,156.5291595,-74.09619141,-144.6999054,11.14353085,1.165814638,-2.624089241,-23.88604355,-11.75333214,-22.18249702, 
147,587122763,155.6921997,-73.80072784,-143.9647522,11.47504616,0.619370222,-2.93167448,-8.129538536,-11.7416544,-19.52876472, 
148,587139430,155.1331024,-73.54702759,-143.280777,11.26275444,0.465338111,-3.095627308,5.522970676,-9.527747154,-18.05462456, 
149,587156097,154.5251312,-73.31737518,-142.4513855,10.59268475,0.983808517,-2.891436815,10.88317108,-6.934101105,-19.98092842, 
150,587172764,153.7336731,-73.06303406,-141.4971313,9.925256729,1.887191534,-2.801420689,6.977702618,-7.017114162,-22.84812927, 
151,587189431,152.877533,-72.81463623,-140.5438385,9.50634861,2.292428017,-2.356540203,2.980331898,-6.284434319,-22.93920517, 
152,587206098,151.9826813,-72.66757965,-139.6084747,9.201579094,2.306236029,-1.846996427,-0.408382297,-0.63835907,-20.03014565, 
153,587222765,151.0898438,-72.5962677,-138.7143402,8.953964233,2.114061594,-1.607338786,-2.652915001,3.310669184,-17.23709679, 
154,587239432,150.1866608,-72.56491852,-137.8381805,9.046330452,2.043441772,-1.564736128,-4.291783333,5.470065117,-15.70249557, 
155,587256099,149.1928711,-72.59719849,-136.9213409,9.31269455,1.94367528,-1.65640676,-7.376939774,9.323899269,-14.25511074, 
156,587272766,148.207016,-72.71871948,-136.0330048,9.504005432,1.820793986,-1.7645998,-8.492016792,13.77028275,-10.77083397, 
157,587289433,147.3736115,-72.92816925,-135.2472229,9.380148888,1.803851128,-1.801467061,-5.163193226,17.30330086,-6.038059711, 
158,587306100,146.7443085,-73.159935,-134.6510773,8.995607376,2.279809713,-1.926406145,-3.731364727,16.55156517,-2.126650572, 
159,587322767,146.2325897,-73.33288574,-134.2250214,8.81289196,2.26746726,-2.060848236,-6.394982338,11.91178799,-1.300652027, 
160,587339434,145.5395508,-73.50074768,-133.6939697,8.706900597,2.461337328,-2.157590389,-11.19554043,12.63504601,-2.712964058, 
161,587356101,145.0173645,-73.58305359,-133.3887024,8.904658318,2.679336071,-2.681400299,-13.89721775,6.215393543,-2.227205276, 
162,587372768,144.8709717,-73.56017303,-133.4832458,9.236499786,2.733966112,-3.315442562,-14.34275055,-2.810086489,-0.187100902, 
163,587389435,144.6719971,-73.49409485,-133.6179352,9.340886116,2.375522137,-3.447446346,-19.79439354,-5.250995159,-1.06496489, 
164,587406102,144.2694244,-73.36127472,-133.5858154,9.662286758,2.105231285,-3.679546833,-22.41022682,-6.787827492,-5.692216873, 
165,587422769,143.7670746,-73.2910614,-133.2967834,10.0140667,1.90712285,-3.656499147,-13.63707161,-1.025763869,-7.095313072, 
166,587439436,143.1850128,-73.35153961,-132.7991028,9.690143585,1.612338066,-2.84747529,-6.441020012,7.538890362,-5.321681023, 
167,587456103,142.6460266,-73.441185,-132.220993,9.389404297,1.078309417,-2.099447489,0.774406612,9.818881035,-5.265575409, 
168,587472770,142.2058716,-73.54038239,-131.5595703,9.285874367,0.939756095,-1.788433075,11.50315571,11.11764622,-5.94961834, 
169,587489437,141.8752136,-73.68503571,-130.8889313,9.185142517,1.107129574,-1.507265925,18.62125397,13.32830524,-4.287215233, 
170,587506104,141.6875,-73.86087036,-130.3542328,9.164052963,1.56109941,-1.382130384,19.39736176,13.29161549,-1.220588446, 
171,587522771,141.6636505,-74.05491638,-129.9650116,9.176444054,1.714604974,-1.281032681,20.87415695,12.54424858,1.449701071, 
172,587539438,141.8411255,-74.237854,-129.7066803,9.377542496,1.655181646,-1.248071313,25.43296051,10.6078167,2.773971558, 
173,587556105,142.1173401,-74.49285889,-129.4727325,9.538011551,1.739074826,-1.328849435,29.9729538,13.69825745,5.754114151, 
174,587572772,142.5953979,-74.7883606,-129.4296417,9.372591019,1.777962446,-1.446939468,31.06702423,13.73258305,9.608972549, 
175,587589439,143.1971741,-75.06629944,-129.5634918,9.309258461,1.922631741,-1.533343554,28.25437164,11.28235149,11.06367016, 
176,587606106,143.7014771,-75.36762238,-129.6773987,9.341269493,2.035400152,-1.665270209,23.56500053,12.7010994,11.53037739, 
177,587622773,144.0969238,-75.70133972,-129.7566986,9.244581223,2.227741957,-1.870143294,19.0452404,14.68075943,12.15312481, 
178,587639440,144.6089478,-76.05076599,-129.9725189,9.066046715,2.23319006,-1.828480482,18.10136604,14.40032196,14.22725677, 
179,587656107,145.4362183,-76.36830902,-130.4942932,8.991436958,2.19310236,-1.60341692,19.18544197,10.54570484,16.52546692, 
180,587672774,146.4340363,-76.64392853,-131.221344,9.20376873,1.944775105,-1.710659504,17.41580009,7.20251894,17.2329998, 
181,587689441,147.4321442,-76.90029907,-131.9543457,9.599089622,1.683539152,-2.230112076,17.05494881,6.609761715,16.40490913, 
182,587706108,148.2584381,-77.1914444,-132.4517822,9.724432945,1.797904015,-2.579903126,20.47213745,10.45763493,14.55853462, 
183,587722775,149.0813293,-77.49868011,-132.8691406,9.997643471,1.937240481,-2.356563091,24.92470551,12.16118908,13.8938036, 
184,587739442,149.8492889,-77.71018982,-133.3702393,10.0512085,2.061421871,-1.672825098,16.70869446,6.957118034,11.66801929, 
185,587756109,150.5865936,-77.89175415,-133.8503876,10.27314281,2.018656015,-1.970853806,16.09011841,5.728512764,10.40188885, 
186,587772776,151.1139984,-78.05661011,-134.2836304,10.33433247,1.855442524,-2.210563183,6.241644859,5.30360508,9.30062294, 
187,587789443,151.5425262,-78.22411346,-134.6377869,10.2007618,1.558374286,-2.187497616,4.947370529,6.04633522,8.442749977, 
188,587806110,151.9875946,-78.3585968,-135.014801,9.774786949,1.281363845,-1.954180717,4.590417862,4.283116817,7.672689915, 
189,587822777,152.4742126,-78.45536041,-135.3635254,9.572481155,1.251556039,-2.067758799,8.738985062,2.529402256,6.247611523, 
190,587839444,152.7469635,-78.58322144,-135.4656372,9.354735374,1.614615798,-2.34778285,10.401124,5.621369362,4.44545126, 
191,587856111,152.8775787,-78.68377686,-135.5118256,9.102808952,1.462715149,-2.616416931,5.169879436,4.53237915,3.108120918, 
192,587872778,153.0854492,-78.71569824,-135.6361389,8.606924057,1.464878917,-2.40004611,5.206210613,0.509404659,2.058371305, 
193,587889445,153.4096527,-78.71392059,-135.9100342,8.041779518,1.533760786,-1.69521594,3.391730547,-2.02784729,2.734969378, 
194,587906112,153.8708191,-78.60317993,-136.345108,8.439013481,1.739649773,-1.63804996,2.139717817,-8.701085091,1.59542191, 
195,587922779,154.319519,-78.46727753,-136.7489319,9.469942093,2.239043474,-1.9380759,3.255548716,-9.898634911,0.759756327, 
196,587939446,155.0289764,-78.42357635,-137.3213043,9.898534775,2.728859901,-1.773315072,9.015461922,-5.759684086,5.148314953, 
197,587956113,156.0760498,-78.36328125,-138.2731781,9.676053047,2.319592237,-1.223149419,7.005891323,-8.481778145,9.104494095, 
198,587972780,157.376236,-78.19473267,-139.4816589,9.779502869,1.675657749,-1.582983136,7.165679455,-15.56804562,9.746022224, 
199,587989447,158.5529022,-77.9765625,-140.583252,9.948776245,1.171312451,-2.349844456,6.0991292,-17.71895599,7.985417366, 
200,588006114,159.5079346,-77.76940918,-141.4264984,10.04572773,1.099745154,-2.511379004,8.011733055,-15.85684109,5.731546402, 
201,588022781,160.2276001,-77.61438751,-142.0813904,9.711971283,1.349756598,-2.194840908,4.965837955,-12.03979492,4.921285152, 
202,588039448,160.8587646,-77.43315125,-142.7234192,9.516853333,1.494227886,-2.005173683,0.447012216,-13.43309784,4.503143787, 
203,588056115,161.3114471,-77.24938202,-143.2339172,9.789417267,1.678960919,-1.938937902,-2.524248123,-13.01786804,3.082560778, 
204,588072782,161.5905151,-77.06513977,-143.5426941,9.854423523,1.547477961,-1.572648287,-1.102512002,-12.20941353,0.73410511, 
205,588089449,161.7483215,-76.89970398,-143.7271881,9.694272995,1.870556831,-1.484326839,-1.084160566,-10.65150738,-0.375802547, 
206,588106116,161.9143219,-76.8142395,-143.9988556,9.266465187,1.568216085,-1.72805357,-5.659165859,-6.500632286,2.352840662, 
207,588122783,162.2315826,-76.74327087,-144.4687195,9.039949417,1.376676679,-1.844603181,-8.141191483,-6.52469635,5.288787365, 
208,588139450,162.6876373,-76.67127991,-145.0433044,9.457694054,1.411845684,-1.866469026,-5.907661438,-7.004038811,6.74744463, 
209,588156117,163.026413,-76.62248993,-145.5138855,9.986614227,1.64420867,-1.960379362,-6.853065014,-5.230370998,5.884961605, 
210,588172784,163.2134247,-76.63792419,-145.8438416,10.07738018,1.675117135,-2.080881357,-7.737342358,-0.975050092,5.201780319, 
211,588189451,163.4206696,-76.68551636,-146.2328644,9.839877129,1.591453075,-2.304348469,-9.96059227,0.650607765,6.566594124, 
212,588206118,163.7337952,-76.71489716,-146.7505493,9.8309412,1.406459928,-2.460632086,-11.10987473,-0.862136841,7.973706245, 
213,588222785,164.1540375,-76.7677002,-147.3553925,10.12313747,1.242140293,-2.392055511,-9.773888588,0.215486184,9.518280029, 
214,588239452,164.5821533,-76.84938049,-147.9164124,10.2560463,0.909748733,-2.243175268,-6.744428635,2.125823021,9.377843857, 
215,588256119,165.0768585,-77.04935455,-148.4699249,9.80100441,1.296092033,-2.097501516,-2.332998037,9.088102341,11.03939438, 
216,588272786,165.7267914,-77.16268158,-149.2136536,9.805988312,1.241773605,-1.886785746,-4.158006668,3.530117035,12.03195095, 
217,588289453,166.4194794,-77.27957153,-149.9969635,9.622144699,1.099141121,-2.047421217,-3.921293974,3.757609844,12.48162079, 
218,588306120,167.0693207,-77.44874573,-150.7621155,9.184074402,1.135355711,-1.875609398,-5.448952675,7.023091793,12.82155514, 
219,588322787,167.6957855,-77.600914,-151.5397491,8.982903481,1.262740135,-1.371187449,-7.608528614,6.147443771,12.5680933, 
220,588339454,168.2451019,-77.61934662,-152.2354584,9.066446304,0.900156677,-1.166615248,-7.441236973,-1.375185013,9.75682354, 
221,588356121,168.6818085,-77.51838684,-152.831543,9.300341606,0.741482198,-1.289922714,-8.347504616,-8.105361938,7.110968113, 
222,588372788,169.1783752,-77.28643799,-153.4426727,9.840620041,0.729517281,-1.621114612,-5.605294228,-15.85703182,5.958730698, 
223,588389455,169.7219696,-77.13923645,-154.0437622,9.612225533,0.670883834,-2.18748045,-2.163761854,-10.83865929,7.013663292, 
224,588406122,170.3272247,-76.97436523,-154.6846771,9.702013016,0.950013638,-1.811292171,-0.769559562,-11.92063046,7.551632881, 
225,588422789,170.8520813,-76.83708954,-155.2978668,9.344041824,0.94050616,-1.636232972,-3.93926096,-10.19051743,7.669990063, 
226,588439456,171.2710266,-76.60851288,-155.8436432,9.603965759,1.026454806,-1.282633662,-6.321783066,-15.44399738,6.105823517, 
227,588456123,171.5648956,-76.37301636,-156.3099518,9.519570351,0.680249631,-1.411882639,-9.143386841,-15.71796989,5.180066109, 
228,588472790,171.8551941,-76.00343323,-156.7577362,9.521725655,0.710965872,-1.707862496,-8.234181404,-23.6786499,3.978064775, 
229,588489457,172.1641846,-75.57891083,-157.1636963,10.02352619,0.491834044,-2.078128815,-4.625909328,-26.89020538,3.209862709, 
230,588506124,172.4562073,-75.27115631,-157.5129547,10.15859318,0.507715285,-2.263978958,-2.301470757,-19.85710335,3.577362537, 
231,588522791,172.7647247,-75.10972595,-157.8540039,10.09923744,0.635170698,-2.363061428,-0.814740419,-11.14906025,4.754519939, 
232,588539458,173.0669708,-75.13861847,-158.1958771,9.481422424,0.475564808,-2.227064848,-1.231228352,0.190846682,6.253950119, 
233,588556125,173.4527283,-75.05387878,-158.5598297,9.219835281,1.021547198,-1.9339993,2.501048803,-6.599958897,5.788746834, 
234,588572792,173.7996216,-74.83708954,-158.8831177,9.767686844,0.796644032,-1.876186252,2.551801682,-14.38533306,4.391306877, 
235,588589459,174.0605774,-74.79701996,-159.0797119,9.683217049,0.931470931,-2.134763718,4.752085686,-3.648248196,3.656335592, 
236,588606126,174.163681,-74.82827759,-159.2187042,9.647892952,1.027262688,-1.830973268,-1.376785159,0.700629056,3.220355511, 
237,588622793,174.3021088,-74.91212463,-159.441925,9.819432259,0.966213048,-2.019044638,-4.129420757,3.67982173,4.8595047, 
238,588639460,174.6704712,-75.00050354,-159.8884735,9.889191628,0.841451168,-2.122570992,-3.272510052,3.609822989,8.32591629, 
239,588656127,175.0300903,-75.01167297,-160.3349152,10.03521442,0.674054921,-2.458859205,-3.793036222,-0.967519879,7.870521069, 
240,588672794,175.2761841,-75.07341003,-160.6998138,10.08992195,0.51810807,-2.819405556,-5.879179478,2.191864967,6.855811119, 
241,588689461,175.4642487,-75.21076202,-160.9450684,9.91967392,0.409791529,-2.92429924,-2.436152935,6.897623539,5.3366189, 
242,588706128,175.6782379,-75.41829681,-161.1660767,9.719917297,0.369117051,-2.760901213,0.50411582,11.16105461,5.218263626, 
243,588722795,175.9575653,-75.68048096,-161.39151,9.55183506,0.392865181,-2.515627623,4.146079063,14.46052837,5.414113522, 
244,588739462,176.2570343,-75.92734528,-161.6274567,9.539209366,0.484030932,-2.301364422,4.720623016,13.56808853,5.366332054, 
245,588756129,176.5145416,-76.17404938,-161.8025513,9.478754044,0.525464296,-2.439060211,5.724692822,13.64299393,4.360239506, 
246,588772796,176.7417603,-76.40924835,-161.9448547,9.745354652,0.816186488,-2.319006443,5.805641174,13.00795078,3.75367856, 
247,588789463,177.1374817,-76.62223053,-162.2415924,9.808258057,0.806639552,-2.328243971,6.896077633,11.58554745,5.748012543, 
248,588806130,177.5838776,-76.87042999,-162.6133575,9.542959213,0.766136706,-2.243532419,5.540409565,13.69164371,6.730465412, 
249,588822797,177.93927,-77.15805817,-162.8781891,9.334217072,0.419531405,-2.070048571,6.305514336,16.16088295,5.194254875, 
250,588839464,178.4414063,-77.45855713,-163.2464447,9.37565136,0.525797427,-1.808684111,9.03320694,16.93152046,6.375860691, 
251,588856131,179.1013794,-77.70854187,-163.7439728,9.318888664,0.503504515,-1.621917486,10.90228367,13.91334343,7.701435566, 
252,588872798,179.7770233,-77.81292725,-164.2660522,9.516767502,0.708896279,-1.877428412,10.38071156,5.243620872,7.673128605, 
253,588889465,-179.60289,-77.88641357,-164.7274933,10.0503912,0.791943192,-2.228287697,10.59791851,3.465841532,6.807262897, 
254,588906132,-179.0142059,-78.0700531,-165.1955872,9.900443077,0.757517338,-2.047473192,8.312191963,10.14478111,6.722652912, 
255,588922799,-178.5087128,-78.19532013,-165.6318359,9.593544006,0.800705314,-1.9132725,5.178460598,6.694797039,6.243424416, 
256,588939466,-178.1174622,-78.20670319,-165.9514771,9.613950729,0.775835693,-2.242329597,5.172222137,-0.130022854,4.944628239, 
257,588956133,-177.7593231,-78.25421906,-166.2286224,9.647205353,1.02821362,-2.253218174,5.679085732,2.050341845,4.351169586, 
258,588972800,-177.4235229,-78.35544586,-166.5408936,9.573925972,1.225460649,-1.896529555,2.282469988,5.331355095,4.631859779, 
259,588989467,-177.1474152,-78.47434235,-166.8668976,9.505622864,1.229787707,-1.608323932,-2.107874632,6.416808605,4.715894222, 
260,589006134,-176.8620148,-78.55115509,-167.2440948,9.606800079,1.087298751,-1.362774849,-4.552696228,3.938407898,5.429015636, 
261,589022801,-176.6272736,-78.5832901,-167.6087189,9.651713371,0.936661541,-1.382740974,-6.849002838,1.241646171,5.421395779, 
262,589039468,-176.4388123,-78.56711578,-167.9499817,9.79445076,1.10503912,-1.644033432,-8.241259575,-1.667937994,5.3346591, 
263,589056135,-176.1714478,-78.5978775,-168.414566,9.833637238,1.037635684,-1.935138345,-10.75229359,1.241774678,6.645904064, 
264,589072802,-175.8940887,-78.69730377,-168.8955688,9.596132278,0.621741772,-1.617618203,-11.11561298,5.389153004,6.541955471, 
265,589089469,-175.693573,-78.75945282,-169.2619629,9.513786316,0.471195966,-1.421177745,-8.98519516,3.076067209,5.310813904, 
266,589106136,-175.5357819,-78.74667358,-169.583786,9.713360786,0.584541023,-1.51145792,-8.928001404,-1.462972403,5.121843815, 
267,589122803,-175.4203491,-78.74212646,-169.8758698,9.924655914,0.495474637,-1.797412515,-9.714426994,-0.998946846,4.749844551, 
268,589139470,-175.2688446,-78.82759857,-170.2086487,10.09277534,0.527552545,-2.025899887,-9.947388649,4.420146465,4.780542374, 
269,589156137,-175.0121002,-79.06528473,-170.6782837,9.861578941,0.665082872,-1.861035943,-11.70474911,13.66590977,5.50951004, 
270,589172804,-174.7305298,-79.29532623,-171.1912842,9.399703026,0.798395753,-1.420105577,-12.79046154,13.26265049,5.871379852, 
271,589189471,-174.4895172,-79.41596985,-171.6204987,9.511519432,0.519678354,-1.463782787,-10.30015469,6.644752026,5.424345016, 
272,589206138,-174.2772522,-79.55511475,-171.9733582,9.798049927,0.476263583,-1.662665009,-7.533453941,7.657937527,4.408069134, 
273,589222805,-174.0473022,-79.66068268,-172.3214417,9.97039032,0.41999957,-1.676596642,-6.200157166,5.655099392,4.491245747, 
274,589239472,-173.7720337,-79.74184418,-172.6973419,9.943134308,0.346471578,-1.713942051,-5.128817081,4.243891239,4.88514328, 
275,589256139,-173.5474243,-79.85351563,-173.0731506,9.650841713,0.215366974,-1.676911592,-8.170990944,6.068169117,4.624508381, 
276,589272806,-173.3206787,-79.87787628,-173.4441681,9.420131683,0.438984334,-1.531630993,-7.769499779,0.870274961,5.116694927, 
277,589289473,-172.9213104,-79.78442383,-173.9634247,9.747383118,0.702522576,-1.680000782,-6.157333851,-5.933491707,7.528580189, 
278,589306140,-172.4981079,-79.80042267,-174.5702667,9.846647263,0.705549955,-1.616689563,-9.896957397,0.731505454,7.692643166, 
279,589322807,-172.2653351,-79.85350037,-175.0466919,9.510929108,0.376297086,-1.277406812,-13.6167078,2.797325373,6.010632992, 
280,589339474,-172.2254944,-79.77328491,-175.3132172,9.610396385,0.029700726,-1.39649725,-12.79635715,-5.438681126,4.884595394, 
281,589356141,-172.2531433,-79.7562561,-175.4685669,9.918627739,-0.056739125,-1.939519405,-10.27748394,-1.850940943,3.202414989, 
282,589372808,-172.2857208,-79.85328674,-175.589447,9.792119026,-0.155596197,-1.991789103,-8.544437408,4.883581638,1.900674343, 
283,589389475,-172.3321075,-79.88275146,-175.5950928,9.631720543,-0.131196082,-1.919392467,-2.57494688,0.727343023,1.217403531, 
284,589406142,-172.326004,-79.93780518,-175.5701599,9.919437408,-0.022666832,-2.07521677,2.373381376,2.205541611,0.682546437, 
285,589422809,-172.1057434,-80.07958221,-175.6647644,9.860908508,0.166453704,-1.957490087,8.153889656,7.548327923,1.197720766, 
286,589439476,-171.7937317,-80.18499756,-175.8289948,9.86664772,0.143907577,-1.43403697,9.539293289,5.511157036,2.157300711, 
287,589456143,-171.193573,-80.21375275,-176.2068787,9.986546516,-0.248734087,-1.549590349,14.1881094,1.283728719,4.93236351, 
288,589472810,-170.6550446,-80.31903839,-176.4903564,9.80811882,-0.16993016,-1.430694342,16.0627594,5.702949047,3.19979167, 
289,589489477,-170.1631927,-80.3592453,-176.7530975,9.675953865,0.405578256,-1.189381361,14.48133659,1.831418395,3.553400278, 
290,589506144,-169.6564789,-80.39369202,-177.0615692,9.879103661,0.787467659,-1.212522507,12.66906834,1.586253285,4.039618969, 
291,589522811,-169.1195068,-80.5671463,-177.4326172,9.833584785,0.758580089,-0.838306487,10.77946472,9.908067703,3.083918333, 
292,589539478,-168.5478516,-80.69363403,-177.8473511,9.756988525,0.77282095,-0.229652047,10.26801586,7.226083279,3.907558918, 
293,589556145,-168.0453491,-80.73638916,-178.2289429,9.823786736,0.549054325,-0.334628999,8.08305645,2.205977678,4.528563976, 
294,589572812,-167.5571289,-80.79489136,-178.6600647,9.883537292,0.406649739,-0.747413516,4.293335438,3.222596407,4.764173508, 
295,589589479,-167.0025787,-80.86994171,-179.1544952,9.931268692,0.36444971,-0.804929852,4.520033836,4.325813293,5.078531742, 
296,589606146,-166.7084961,-80.93145752,-179.4070435,9.655211449,0.36753273,-0.610416889,3.218140364,3.012444735,2.964459181, 
297,589622813,-166.5666962,-80.97143555,-179.5324402,9.670624733,0.284534514,-0.822194159,1.620714188,1.470969439,2.074302197, 
298,589639480,-166.0572968,-81.05181122,-179.96315,9.886871338,0.58973521,-1.170797348,5.578018188,4.477683544,4.269388199, 
299,589656147,-165.0366211,-81.28151703,179.0153198,10.06157398,1.016626239,-1.184452295,1.215214849,14.53092384,7.178971291, 
300,589672814,-164.2406311,-81.55896759,178.0834045,9.540598869,0.338144451,-0.618370235,-6.989176273,17.09396744,5.17017889, 
301,589689481,-163.8548737,-81.6806488,177.5327606,9.802130699,0.441499561,-0.484665066,-9.000395775,7.154007435,4.168321609, 
302,589706148,-163.485611,-81.78831482,177.004425,9.972206116,0.24526225,-0.934816778,-8.675447464,6.25625658,4.117607594, 
303,589722815,-163.1110229,-81.91801453,176.4742126,9.982404709,0.551264644,-0.98179251,-8.479023933,7.517285824,3.644720793, 
304,589739482,-162.6860352,-82.04878235,175.883316,9.948156357,0.373411268,-1.029114962,-9.069346428,7.715643883,3.996460676, 
305,589756149,-162.0965576,-82.21588135,175.1416779,9.813022614,0.184314847,-0.910933077,-8.173708916,10.15516663,4.358279228, 
306,589772816,-161.5337372,-82.39818573,174.3867645,9.727497101,0.124323606,-0.900762439,-10.58388042,11.03814125,3.933953762, 
307,589789483,-161.0132446,-82.5402832,173.6982117,9.661067963,-0.156675667,-1.078827977,-9.19843483,8.554217339,3.978890419, 
308,589806150,-160.4584045,-82.67967987,173.0326233,9.77559185,-0.09209092,-1.286641002,-5.793504715,8.329027176,3.669602394, 
309,589822817,-159.6151428,-82.86557007,172.122879,9.79793644,0.077666685,-1.35139668,-3.042201042,11.57842541,4.218496323, 
310,589839484,-158.5567169,-83.0883255,171.0385284,9.77077198,0.207757682,-1.14902389,-0.560662389,14.07923985,4.234403133, 
311,589856151,-157.5497437,-83.28107452,170.0449066,9.79546833,-0.100427262,-0.992534816,1.723793268,12.145504,3.815173388, 
312,589872818,-156.500885,-83.4412384,169.0604401,9.711771011,-0.058700778,-0.716290534,4.752483368,10.28979778,4.108874321, 
313,589889485,-155.6403351,-83.55120087,168.2707214,9.698038101,-0.075712055,-0.742464006,5.041676044,6.979392052,3.800816774, 
314,589906152,-154.9348297,-83.6188736,167.6380768,9.782694817,-0.105757609,-0.800877154,5.095103264,4.23043108,3.724746704, 
315,589922819,-154.4257507,-83.64365387,167.2234192,9.776578903,-0.040423304,-1.011622429,6.301101685,1.306574345,3.420095921, 
316,589939486,-154.2395477,-83.61819458,167.1080475,9.645671844,0.118714616,-1.06732142,4.773753166,-2.257618904,2.914321899, 
317,589956153,-154.5691528,-83.5029068,167.509079,9.524375916,-0.110558748,-1.121138096,4.61770916,-8.600479126,2.115283251, 
318,589972820,-155.2144775,-83.3221283,168.2690887,9.381368637,0.030427629,-1.173828483,7.060780048,-13.23434925,1.425110936, 
319,589989487,-155.9998322,-83.13678741,169.1478424,9.676674843,0.397337109,-1.148316264,5.72584486,-13.86170578,0.4837538, 
320,590006154,-156.8442993,-82.95936584,170.0406342,9.826509476,0.652495503,-0.922761977,2.997795343,-13.50862026,-0.11897108, 
321,590022821,-157.7797241,-82.77352142,170.9086151,9.985182762,0.487692028,-0.910566688,-3.944754839,-13.93735123,-0.084585994, 
322,590039488,-158.264328,-82.63659668,171.3914948,10.23444271,0.098616093,-1.120536447,0.167897716,-10.16053581,1.260868788, 
323,590056155,-158.3055878,-82.54420471,171.5284882,10.14193916,0.213063583,-0.885454118,6.192275047,-6.685006142,2.658797264, 
324,590072822,-158.2505493,-82.46136475,171.5715179,10.09682751,0.263603181,-0.771406591,6.377301216,-5.891805649,3.127496719, 
325,590089489,-158.1086884,-82.41661835,171.520401,10.11789036,0.307186157,-0.945095301,5.989652634,-3.503881931,2.982554436, 
326,590106156,-157.9359894,-82.39326477,171.3926392,10.09061241,0.321763486,-1.14144361,3.286026239,-2.07893157,3.082546234, 
327,590122823,-157.7476196,-82.39369965,171.2241058,9.894177437,0.356946468,-1.036379457,1.80247438,-0.624847353,2.856065512, 
328,590139490,-157.6007233,-82.40658569,171.0673065,9.551025391,0.376976222,-0.729751647,0.011211959,0.033379748,2.494273663, 
329,590156157,-157.6092987,-82.39109802,171.0439453,9.542502403,0.408052623,-0.465431154,-1.377630234,-1.947666407,2.171374083, 
330,590172824,-157.8422699,-82.35153198,171.2277985,9.612897873,0.460202217,-0.465664357,-2.519022226,-3.928156137,1.202804565, 
331,590189491,-158.3156281,-82.2747345,171.5745239,9.701983452,0.48557201,-0.705550969,-7.252815723,-6.504488945,0.807562351, 
332,590206158,-158.6525879,-82.22670746,171.7880402,9.746287346,0.178163812,-0.912475348,-6.987286568,-4.519861221,1.130807281, 
333,590222825,-159.0467529,-82.19940948,172.0720215,9.744074821,0.02586581,-0.828493476,-6.227395058,-3.56919384,0.121167287, 
334,590239492,-159.5733795,-82.13426208,172.4683228,9.950304031,0.072111942,-0.867424369,-7.504087448,-6.015387535,0.029140856, 
335,590256159,-160.0478363,-82.06733704,172.8199005,10.10043812,0.180763826,-1.141655207,-7.028625488,-5.988775253,0.342384249, 
336,590272826,-160.2889862,-82.02947235,172.929718,10.15830135,0.053169876,-1.375648618,-7.402071476,-3.67163229,1.594217896, 
337,590289493,-160.1852875,-82.07372284,172.7701416,9.724125862,-0.141253963,-1.218843222,-2.719966412,1.726737857,2.027610302, 
338,590306160,-160.1247101,-82.1051178,172.7241211,9.648687363,-0.181996837,-0.890427768,1.434266448,0.687079906,1.389316082, 
339,590322827,-160.1492157,-82.11843109,172.7637024,9.784790039,-0.028493723,-0.759055614,1.41506958,-0.581523478,1.087841749, 
340,590339494,-160.2149353,-82.13096619,172.805954,9.914844513,0.109875955,-0.784612477,-0.899133921,-0.635489583,1.079479337, 
341,590356161,-160.2389374,-82.14916992,172.7782135,9.890550613,0.142015606,-0.812570572,-2.557415485,-0.129958838,1.508261561, 
342,590372828,-160.1711578,-82.17431641,172.6793976,9.840724945,0.283956051,-0.698935568,-1.277113318,0.45464465,1.913620949, 
343,590389495,-160.0986938,-82.17888641,172.5744781,9.733775139,0.457241714,-0.652455926,-1.360559344,-0.704029143,2.384343863, 
344,590406162,-160.1131134,-82.15675354,172.544281,9.70290947,0.409077138,-0.693394184,-2.128748655,-2.426432371,2.366095066, 
345,590422829,-160.1755676,-82.13318634,172.5545197,9.686001778,0.224820882,-0.60156399,-2.606655598,-2.635444403,2.093434572, 
346,590439496,-160.3618622,-82.10136414,172.6698456,9.765298843,-0.003421759,-0.559470832,-3.786736012,-3.39253068,1.443397641, 
347,590456163,-160.6074524,-82.07846069,172.8163757,9.899243355,-0.074322343,-0.680780649,-5.49370718,-3.002999783,1.01072216, 
348,590472830,-160.8022919,-82.07273865,172.9210968,9.936107635,0.018172445,-0.783668697,-4.934465885,-1.917699814,0.981100857, 
349,590489497,-160.9329376,-82.07015991,172.9769745,9.852679253,0.107161462,-0.729048312,-3.985720634,-1.616135955,1.297609806, 
350,590506164,-161.0867615,-82.05467987,173.0819702,9.701069832,0.14722921,-0.691956401,-2.457512856,-2.479590654,1.160543442, 
351,590522831,-161.2636108,-82.03005981,173.2569275,9.701929092,0.138403088,-0.62765944,0.314607203,-3.200076342,0.785176575, 
352,590539498,-161.4583893,-81.99951172,173.4723663,9.739581108,0.180331022,-0.652508914,1.646109343,-3.658710718,0.571477056, 
353,590556165,-161.7105255,-81.96009827,173.7242889,9.845021248,0.209147736,-0.70546782,0.372940093,-4.26252985,0.434756398, 
354,590572832,-161.9960785,-81.91825867,174.0037384,9.955951691,0.283917308,-0.863508105,0.00191455,-4.481044292,0.240355983, 
355,590589499,-162.2499542,-81.88959503,174.2540894,9.894248009,0.491871625,-0.904148877,0.175286904,-3.647465706,0.209492654, 
356,590606166,-162.879364,-81.84955597,174.8822479,9.917571068,0.229768097,-1.078025341,0.081506021,-5.260708332,-2.657765865, 
357,590622833,-163.5953064,-81.84435272,175.585968,9.783140182,0.349045187,-1.4007864,-0.620775044,-3.393029928,-3.935468435, 
358,590639500,-163.7601318,-81.85367584,175.700119,9.307995796,0.232898548,-1.624239445,-2.580236435,-1.089577079,0.623739719, 
359,590656167,-163.7890778,-81.74628448,175.6351166,9.249272346,0.455642104,-1.055130482,-5.06392622,-7.373410225,4.047441483, 
360,590672834,-163.8798523,-81.63735962,175.6661224,10.26132965,0.127195731,-1.161247373,-3.06918335,-7.692468166,3.280020475, 
361,590689501,-163.7441711,-81.6337204,175.5207672,10.02727318,0.198578835,-0.92298013,0.049618203,-1.199135423,2.99692297, 
362,590706168,-163.8888855,-81.54689789,175.7012787,9.821769714,0.071451738,-1.292679548,2.566706896,-6.79154253,1.649541497, 
363,590722835,-164.0452576,-81.47311401,175.9568634,9.816897392,0.217254862,-1.384741783,6.319570065,-6.222120285,0.765019536, 
364,590739502,-164.1422729,-81.4263916,176.1790009,9.738700867,0.236145094,-1.11501956,7.896556854,-4.565540791,0.580774486, 
365,590756169,-164.2318115,-81.38657379,176.3908691,9.628311157,0.284554511,-0.902562797,7.734479904,-4.143558979,0.545006335, 
366,590772836,-164.46315,-81.28151703,176.7171783,9.585829735,0.393869042,-0.901701331,6.012345791,-8.193209648,0.587100863, 
367,590789503,-164.8138885,-81.1360321,177.1412354,9.764371872,0.39926368,-1.042192698,4.636060715,-10.77800751,0.295359343, 
368,590806170,-165.1439819,-80.99263763,177.5482025,9.823663712,0.361723244,-0.992566824,4.86631918,-10.62676525,0.304195762, 
369,590822837,-165.4063721,-80.85483551,177.9059448,9.791604042,0.329046249,-0.885937631,5.989244461,-10.19735527,0.573731124, 
370,590839504,-165.7051239,-80.71085358,178.2734985,9.729484558,0.355139941,-0.890250027,4.384032249,-10.58155918,0.482242525, 
371,590856171,-166.1028595,-80.55729675,178.6935577,9.80855751,0.379574656,-0.969127178,1.562612176,-11.28747082,0.018421941, 
372,590872838,-166.5304871,-80.40325165,179.103775,9.908270836,0.397433519,-1.084863305,-0.773926616,-11.30406857,-0.019657757, 
373,590889505,-166.8942413,-80.24861908,179.4402008,9.851584435,0.400951326,-1.168369055,-1.418560028,-11.17317295,0.603979707, 
374,590906172,-167.2025757,-80.0934906,179.7295837,9.778473854,0.3934021,-1.211770654,-0.734867036,-11.10018921,0.946191013, 
375,590922839,-167.4824677,-79.94628906,179.9996643,9.850907326,0.322092235,-1.322289944,-0.343389571,-10.6014328,0.980550408, 
376,590939506,-167.6933289,-79.8300705,-179.7994232,9.89366436,0.239834547,-1.352891207,-0.277180701,-8.634441376,1.216213107, 
377,590956173,-167.8440247,-79.73799133,-179.6555939,9.880962372,0.173176304,-1.364157796,-0.007658198,-7.094487667,1.454167604, 
378,590972840,-167.9431152,-79.67172241,-179.559021,9.913656235,0.145597905,-1.304705024,0.46042034,-5.484716415,1.569539666, 
379,590989507,-167.9910889,-79.61795044,-179.5098724,9.902284622,0.150345877,-1.276865125,0.595745027,-4.640803814,1.92433989, 
380,591006174,-168.0149689,-79.5644989,-179.46521,9.901648521,0.139270842,-1.255716562,1.734882712,-4.622734547,1.970865607, 
381,591022841,-168.0060425,-79.52711487,-179.4365997,9.812164307,0.175748333,-1.278764606,2.898377657,-3.650603294,1.910982609, 
382,591039508,-168.0185699,-79.49243164,-179.395813,9.7230196,0.188577175,-1.289075375,2.377441406,-3.518416882,1.735446215, 
383,591056175,-168.0470428,-79.46079254,-179.3443298,9.756882668,0.211631075,-1.338808179,1.897702575,-3.372270346,1.611775041, 
384,591072842,-168.0569458,-79.4339447,-179.2880554,9.826774597,0.230762064,-1.263477683,3.213132858,-3.093860865,1.513614774, 
385,591089509,-168.055954,-79.41578674,-179.2324066,9.819523811,0.348715812,-1.199346781,3.872121334,-2.590839863,1.404658079, 
386,591106176,-168.0660248,-79.40013885,-179.1808624,9.787046432,0.473996311,-1.254420877,2.87778616,-2.436280251,1.438121319, 
387,591122843,-168.1405334,-79.38191986,-179.1248474,9.821843147,0.524048567,-1.325176597,-0.325562984,-2.613955259,1.350307703, 
388,591139510,-168.2264252,-79.35674286,-179.0886688,9.875459671,0.453244478,-1.287504077,-2.451174021,-2.973032713,1.707822919, 
389,591156177,-168.2919769,-79.33755493,-179.0767822,9.832713127,0.351082414,-1.358011127,-2.681944132,-2.571335554,1.904477, 
390,591172844,-168.3278351,-79.33702087,-179.074646,9.78883934,0.258469969,-1.401583552,-1.409787178,-1.458489656,1.773391366, 
391,591189511,-168.3493652,-79.34928131,-179.0895996,9.757011414,0.271875978,-1.431417823,-1.475816607,-0.669836044,1.787119865, 
392,591206178,-168.3861237,-79.35739136,-179.091629,9.78361702,0.234995067,-1.443938017,-1.717434168,-0.950128734,1.717952728, 
393,591222845,-168.4193268,-79.36655426,-179.0937958,9.870738983,0.220652476,-1.455942035,-1.300011158,-0.887813091,1.664127707, 
394,591239512,-168.420166,-79.39047241,-179.1113892,9.887325287,0.209613204,-1.410593629,-0.750554502,0.023762181,1.747189403, 
395,591256179,-168.4316559,-79.42247772,-179.1247253,9.82502079,0.224664778,-1.358408809,-1.069701552,0.48645559,1.590580583, 
396,591272846,-168.4718323,-79.44695282,-179.1181335,9.795302391,0.247169361,-1.381886125,-1.498675823,-0.004776768,1.443102717, 
397,591289513,-168.5226746,-79.46796417,-179.100174,9.744291306,0.221268445,-1.423086524,-1.505949736,-0.236866236,1.370887756, 
398,591306180,-168.5856171,-79.4779892,-179.0609283,9.71848774,0.16702348,-1.410891891,-0.60381943,-0.939896345,1.20347023, 
399,591322847,-168.6673584,-79.47967529,-178.9887238,9.72208786,0.165534228,-1.486754298,-0.109379038,-1.492439389,1.008634567, 
400,591339514,-168.7470551,-79.48100281,-178.9128876,9.760054588,0.183955178,-1.502622247,0.153247193,-1.517975211,0.987529814, 
401,591356181,-168.8204803,-79.49071503,-178.857666,9.768969536,0.259165972,-1.498528361,0.165951088,-1.001187682,0.946536481, 
402,591372848,-168.9013977,-79.49968719,-178.7963715,9.742956161,0.271716535,-1.45446384,-0.556102991,-1.03851819,1.011375189, 
403,591389515,-169.011795,-79.49983978,-178.7090759,9.750689507,0.274478942,-1.459112406,-0.976023078,-1.605263114,0.871299148, 
404,591406182,-169.1319885,-79.49485016,-178.6269684,9.793075562,0.248780817,-1.476713896,-1.632335782,-1.904316902,0.940133393, 
405,591422849,-169.2548523,-79.49588013,-178.5409546,9.78589344,0.224373013,-1.50301671,-2.505600929,-1.528617144,1.008736968, 
406,591439516,-169.3852844,-79.50330353,-178.4515991,9.755504608,0.233336434,-1.42853725,-2.637800694,-1.154646158,0.878163457, 
407,591456183,-169.5324249,-79.49734497,-178.3683624,9.711734772,0.268401891,-1.416953206,-3.047796249,-1.959115744,0.907323539, 
408,591472850,-169.7033997,-79.48090363,-178.2466888,9.760979652,0.237105548,-1.470457315,-3.002384901,-2.632089376,0.756874561, 
409,591489517,-169.8500061,-79.46946716,-178.1468506,9.754015923,0.205317393,-1.47472465,-2.398258209,-2.300097704,0.848452747, 
410,591506184,-170.0230713,-79.45185852,-178.022644,9.725650787,0.149609938,-1.481350541,-2.541023254,-2.713076353,0.644639671, 
411,591522851,-170.2527771,-79.42688751,-177.8517761,9.707008362,0.158759177,-1.490903497,-3.258678675,-3.234973907,0.218277842, 
412,591539518,-170.5210266,-79.39555359,-177.6499786,9.705778122,0.155801728,-1.546052456,-3.641703606,-3.661924839,-0.090694577, 
413,591556185,-170.8031616,-79.35728455,-177.427597,9.689497948,0.097296454,-1.57610774,-3.302963018,-4.097225666,-0.260801345, 
414,591572852,-171.0868378,-79.30867004,-177.1773834,9.722244263,0.039720029,-1.511698008,-2.017538309,-4.745380878,-0.445789099, 
415,591589519,-171.3920135,-79.24728394,-176.8910065,9.684686661,0.036425486,-1.435264111,-1.10700655,-5.553678513,-0.777460635, 
416,591606186,-171.765625,-79.17211151,-176.5494385,9.719202042,0.093437418,-1.437501073,-1.860852599,-6.457731247,-1.339685321, 
417,591622853,-172.2230377,-79.09864044,-176.145874,9.720292091,0.121534824,-1.521442533,-3.174848795,-6.435627937,-2.128723145, 
418,591639520,-172.7101288,-79.01702881,-175.6951294,9.702054024,0.064946093,-1.541013718,-2.335276604,-6.96821785,-2.642987728, 
419,591656187,-173.1980438,-78.91138458,-175.20047,9.601442337,0.131677225,-1.449270129,0.095746696,-8.417243958,-3.042546272, 
420,591672854,-173.7451324,-78.77857971,-174.6511536,9.609407425,0.392807305,-1.461047411,0.110512443,-10.08204651,-3.687346458, 
421,591689521,-174.4619751,-78.64517975,-173.9990234,9.702435493,0.700872719,-1.741021037,-4.121738434,-10.18458652,-5.037366867, 
422,591706188,-175.286438,-78.53557587,-173.3244019,9.685400963,1.143560529,-1.938014507,-9.272648811,-8.706876755,-5.621504307, 
423,591722855,-176.2292938,-78.43491364,-172.6888428,9.546245575,1.535610795,-2.050972462,-18.72086143,-8.02602005,-5.358850479, 
424,591739522,-177.2663727,-78.35208893,-172.0881958,9.441403389,1.772881031,-2.121797085,-26.37519646,-6.802277088,-5.165262699, 
425,591756189,-178.3552399,-78.32175446,-171.5637512,9.433980942,1.878691912,-2.127824306,-34.00078583,-3.496263266,-4.465950966, 
426,591772856,-179.22612,-78.41954041,-171.3019257,9.035293579,1.756596088,-1.617878914,-36.35091782,4.369668007,-1.447610855, 
427,591789523,-179.9479218,-78.51187134,-171.1772461,8.506147385,1.554480791,-0.737112582,-35.47521973,4.089950085,0.3288109, 
428,591806190,179.3231964,-78.49894714,-171.0098877,8.651612282,1.140735626,-0.17195192,-33.38406754,-2.226661444,-0.128153622, 
429,591822857,178.5265656,-78.36776733,-170.6777496,9.495599747,0.419668913,0.173502117,-27.76111412,-9.287936211,-2.259034157, 
430,591839524,177.6400757,-78.01094055,-170.0870819,10.78896141,0.053972945,0.05982985,-17.98242569,-22.69343376,-6.089796543, 
431,591856191,177.0690002,-77.41056824,-169.644104,11.9139967,-0.104047053,-0.951355577,-7.76721859,-37.30157852,-5.452433586, 
432,591872858,176.8585205,-76.96416473,-169.4808044,12.09893894,-0.061260808,-1.792709708,-2.540902376,-28.23255157,-1.743397593, 
433,591889525,176.3955231,-76.85221863,-169.0833893,11.01366329,0.06564115,-1.448778033,-4.018569946,-8.003241539,-3.958111286, 
434,591906192,175.5402374,-76.72620392,-168.2951202,10.02020264,0.640630007,-1.132288337,-4.737584114,-8.40941143,-9.497207642, 
435,591922859,174.3869934,-76.55041504,-167.2177582,9.614952087,1.196065307,-1.132772803,-5.76441288,-10.83878231,-13.99159336, 
436,591939526,173.0639954,-76.3901825,-165.9855804,9.198437691,1.44764173,-1.074235678,-6.956495285,-9.319295883,-16.42100525, 
437,591956193,171.8024902,-76.16427612,-164.8256226,8.953475952,1.465522766,-1.011805177,-7.526688576,-12.93273067,-16.31791687, 
438,591972860,170.6872101,-75.88123322,-163.7969666,8.993420601,1.434852481,-0.99818033,-6.46461916,-16.19901276,-15.47556782, 
439,591989527,169.7467651,-75.5859375,-162.919281,9.062268257,1.488097548,-0.815550327,-4.819741726,-16.94839859,-13.94712448, 
440,592006194,169.0196838,-75.27557373,-162.2438354,9.120372772,1.645857573,-0.765123725,-3.821600676,-18.1396122,-11.58954906, 
441,592022861,168.4873047,-74.93170929,-161.7737732,9.265357018,1.701642632,-0.930301428,-4.095580578,-20.54878807,-9.263144493, 
442,592039528,168.1955109,-74.57317352,-161.5646667,9.383907318,1.829604149,-1.020757794,-4.803132534,-22.1488781,-5.696352005, 
443,592056195,168.0764313,-74.25260925,-161.5603638,9.473414421,1.970497012,-0.90991658,-6.285751343,-20.57652283,-2.12803483, 
444,592072862,168.0357056,-73.9569397,-161.6552429,9.456232071,1.982878327,-0.835279524,-7.301935196,-19.46782112,-0.238160059, 
445,592089529,168.0484772,-73.65573883,-161.8185425,9.503772736,1.90352726,-0.922747076,-8.01676178,-20.05248451,0.850656748, 
446,592106196,168.0986328,-73.34757233,-162.0565338,9.521551132,1.729461312,-1.044435263,-10.0464344,-20.76366806,2.079185247, 
447,592122863,168.1566467,-73.04563904,-162.3222809,9.577103615,1.530810595,-1.199083567,-11.14011288,-20.53622818,2.722693443, 
448,592139530,168.2239075,-72.79553223,-162.5952301,9.69386673,1.430432677,-1.170642376,-10.96833611,-17.55069733,3.577888489, 
449,592156197,168.3775787,-72.60025024,-162.9332428,9.708880424,1.44609797,-1.000134706,-9.490347862,-14.60069084,5.472998142, 
450,592172864,168.6087189,-72.43682861,-163.3426361,9.65124321,1.545300603,-0.972125232,-8.905968666,-13.00770569,7.219772816, 
451,592189531,168.8840179,-72.30551147,-163.7608948,9.574615479,1.590882659,-0.972766757,-6.743802547,-11.16531277,7.866465569, 
452,592206198,169.2106628,-72.20115662,-164.1829987,9.399864197,1.697477221,-0.74220103,-3.864420652,-9.59754467,8.344923973, 
453,592222865,169.5326233,-72.12595367,-164.6219788,9.285500526,1.771009803,-0.618526638,-5.097698212,-7.92918396,9.063360214, 
454,592239532,169.8214722,-72.07887268,-165.0687408,9.177205086,1.687225461,-0.59172821,-7.5164361,-6.29355669,9.574168205, 
455,592256199,170.1404724,-72.0615921,-165.556778,9.156553268,1.752534509,-0.531711161,-8.059526443,-4.658721924,10.68191528, 
456,592272866,170.5393066,-72.07614899,-166.1192932,9.352466583,1.806592345,-0.647042692,-7.523787975,-2.983356714,12.38600922, 
457,592289533,171.0372009,-72.11584473,-166.7585144,9.447675705,1.846835136,-0.712198555,-5.965023518,-1.663571954,14.02726173, 
458,592306200,171.630722,-72.1823349,-167.4615479,9.507148743,1.866333008,-0.520942748,-3.883029699,-0.162551135,15.40380478, 
459,592322867,172.2984161,-72.28077698,-168.2335815,9.372565269,1.909618855,-0.459078699,-3.400230169,1.685900092,16.85864639, 
460,592339534,172.9417114,-72.29360199,-169.0366516,9.381607056,2.262303352,-0.870728254,-6.655519485,-3.341462851,16.68793106, 
461,592356201,173.3336945,-72.04460907,-169.6784058,10.54783154,2.689301729,-2.037239313,-12.48746109,-18.48121643,11.99164295, 
462,592372868,173.4928741,-71.68551636,-170.0718079,11.67977238,2.83580184,-3.464885712,-12.22455406,-24.49493027,6.920282841, 
463,592389535,173.2319641,-71.40435028,-170.1617279,11.75459385,2.297367096,-4.625277042,-20.10309219,-19.20383072,1.859813809, 
464,592406202,172.5593414,-71.28690338,-169.8862,12.35197449,1.935413837,-4.764262199,-24.01841545,-8.569874763,-3.995308876, 
465,592422869,171.8770294,-71.2424469,-169.4836121,13.9197073,1.376731992,-4.189997196,-17.38617897,-3.806052208,-5.920446873, 
466,592439536,171.6712494,-71.49762726,-169.4083252,14.52068329,0.29266116,-3.491084576,-7.385813236,13.14909267,2.884946823, 
467,592456203,172.3921051,-72.2317276,-170.1327515,11.32001686,0.08726716,-2.595382929,2.597895384,39.52436066,21.6143589, 
468,592472870,173.8560791,-72.70882416,-171.3832855,8.49487114,-0.511708438,-2.272944927,16.9112072,23.48581696,27.96399117, 
469,592489537,175.484726,-72.84464264,-172.5231171,7.85087204,-0.38891083,-2.832874775,33.00034332,4.020800591,23.00444221, 
470,592506204,176.7506104,-72.71261597,-173.2763214,8.542357445,-0.274654567,-4.065526485,33.37826538,-10.99337292,14.88750267, 
471,592522871,177.7340698,-72.758461,-173.8358459,9.923819542,-0.174872249,-4.479480743,27.53117371,0.131720141,12.14930153, 
472,592539538,178.8452606,-73.14278412,-174.7780304,10.08911514,0.022349037,-3.29556179,13.19121838,20.45661736,19.31091881, 
473,592556205,-179.9525757,-73.6468811,-176.1985016,9.305659294,0.3194215,-1.974508166,-8.996137619,27.92355537,26.69202805, 
474,592572872,-178.9589081,-74.07010651,-177.6703644,8.718772888,0.787703514,-1.429845452,-24.68233681,23.52753448,26.34487343, 
475,592589539,-178.3131714,-74.26634979,-178.9801636,8.979456902,0.990748525,-1.748197198,-36.34916687,10.17518234,23.18524361, 
476,592606206,-177.717804,-74.38113403,179.6553802,9.942724228,0.834830523,-2.465764284,-42.59615707,5.523393154,23.89515305, 
477,592622873,-176.8265991,-74.56498718,177.9933929,10.27327538,0.107557088,-3.589766502,-42.11557007,10.15516567,28.15701294, 
478,592639540,-175.4992523,-74.90180206,176.0511017,9.593048096,-0.73163414,-3.712695599,-32.30952072,20.09659386,31.26249313, 
479,592656207,-173.8647461,-75.31391144,173.9149628,8.968669891,-1.439645767,-2.839450359,-25.33914566,25.56538963,32.4754982, 
480,592672874,-172.1381683,-75.76912689,171.8023071,8.36883831,-1.645569682,-2.070309162,-18.72029114,28.86723137,30.02054024, 
481,592689541,-170.5573578,-76.16368103,169.8640289,8.06035614,-1.508099198,-1.741672873,-17.56769943,25.5520153,26.21701241, 
482,592706208,-169.155014,-76.46302795,168.0964813,8.219668388,-1.281782389,-1.817035437,-18.51237869,20.00742149,23.40434265, 
483,592722875,-167.861496,-76.65781403,166.4868164,8.423079491,-1.219360471,-2.104270458,-15.9461937,13.83872986,21.50678635, 
484,592739542,-166.6823883,-76.74106598,165.054657,9.010238647,-1.099971056,-2.091830492,-12.51668262,7.149012089,19.99540901, 
485,592756209,-165.5598145,-76.81246185,163.7356415,9.788737297,-0.861274838,-1.921306491,-9.332436562,6.431058407,18.33903503, 
486,592772876,-164.3984833,-76.98830414,162.4181366,10.04870701,-0.503295302,-1.667274356,-6.97137928,12.76574421,16.34718704, 
487,592789543,-163.2371674,-77.18791962,161.0913544,9.865700722,-0.253238797,-1.362965584,-7.581552029,14.39422798,15.51614285, 
488,592806210,-162.0906372,-77.35743713,159.7458954,9.402597427,-0.163029283,-1.102404594,-9.625617027,12.93855572,15.71420956, 
489,592822877,-161.051178,-77.45937347,158.4615631,9.059229851,-0.221977741,-1.051670432,-12.52195454,9.040998459,15.76920986, 
490,592839544,-160.2839355,-77.44533539,157.3796692,8.903769493,-0.055198323,-0.97380656,-17.0201931,1.797534466,15.34700871, 
491,592856211,-159.8552399,-77.33802795,156.5049286,9.199169159,0.020615784,-0.77821517,-25.1896534,-4.235866547,14.72400951, 
492,592872878,-159.4713593,-77.24434662,155.6078796,9.408903122,-0.152913719,-0.689026296,-29.1690712,-3.254131079,14.81186008, 
493,592889545,-159.0837708,-77.13061523,154.7516479,9.238893509,-0.058235724,-0.575487316,-26.54302979,-4.46117115,14.82060242, 
494,592906212,-158.8977966,-76.98326874,154.050705,9.147994041,0.195040151,-0.612490296,-29.53707886,-7.00289917,13.71048927, 
495,592922879,-158.9546509,-76.89504242,153.454071,9.144347191,0.059505515,-0.703366697,-37.98965836,-4.174355507,11.19778919, 
496,592939546,-159.3278656,-76.8154068,153.047699,8.918027878,-0.107519932,-0.67982167,-45.84817505,-4.644630432,8.620577812, 
497,592956213,-160.0397186,-76.721138,152.8715973,9.017199516,-0.320409864,-0.591239989,-52.70970154,-6.642912865,5.96091032, 
498,592972880,-161.003479,-76.68221283,152.8503876,9.297903061,-0.491392851,-0.546729445,-58.77737808,-4.300732136,2.76644206, 
499,592989547,-162.1382904,-76.71476746,152.9847412,9.702196121,-0.671261728,-0.679853439,-59.96256638,-0.951715887,-0.686096072, 
500,593006214,-163.1693573,-76.90556335,153.0452576,9.845315933,-0.862566769,-0.788472593,-58.04414368,8.436893463,-2.536853075, 
501,593022881,-164.0575409,-77.2490921,152.966568,9.444592476,-1.098355889,-0.693531156,-57.61501694,17.81171799,-3.160891294, 
502,593039548,-164.9812164,-77.70127869,152.8701782,8.96860218,-1.35703826,-0.212341756,-60.79151917,24.20084,-4.424546242, 
503,593056215,-166.1669006,-78.1370163,153.047287,8.688946724,-1.588010669,0.098766878,-60.48132706,22.46173859,-7.094445229, 
504,593072882,-167.6582947,-78.49188995,153.6750946,8.943974495,-2.27521801,-0.105988987,-52.33994293,16.68559647,-10.71904469, 
505,593089549,-169.1729126,-78.84412384,154.582016,9.404892921,-2.818613052,-0.354451329,-37.26831818,16.20589256,-13.22883987, 
506,593106216,-170.9722595,-79.11528778,155.8457642,9.77483654,-3.048490763,-0.163688004,-33.27563858,11.15892696,-15.64399529, 
507,593122883,-172.9165344,-79.23766327,157.2411804,10.494277,-2.944085598,0.060587153,-34.16973495,2.688341141,-15.21062469, 
508,593139550,-174.5572968,-79.25948334,158.415741,11.37480259,-2.47670579,0.307973683,-28.95804977,-2.542312622,-11.87424183, 
509,593156217,-175.7738342,-79.29246521,159.2765198,11.68965435,-1.768371463,0.543650627,-21.99809837,-1.271006942,-8.446929932, 
510,593172884,-176.7165985,-79.29737091,159.9582825,11.00082397,-1.205746651,0.929377437,-16.12673187,-2.661277771,-6.331863403, 
511,593189551,-177.739624,-79.03222656,160.6651611,10.33779907,-0.457405061,0.723223925,-19.47916412,-18.76578331,-5.943890572, 
512,593206218,-179.3408661,-78.48892212,161.7680054,11.87366295,-0.339219123,-0.41058147,-30.92551231,-35.4291954,-10.82288837, 
513,593222885,179.4181213,-77.64603424,162.3545532,13.56870556,-0.270686418,-3.161336184,-39.77532578,-53.11093903,-6.017529011, 
514,593239552,178.6943054,-77.04192352,162.3566284,12.64797878,-0.732010424,-3.465173244,-43.05093384,-38.75271606,0.580832422, 
515,593256219,178.0576019,-76.70102692,162.6654205,11.55176544,-0.589238703,-2.761829853,-19.90086365,-22.82383347,-3.605089188, 
516,593272886,177.5194855,-75.82133484,162.8615112,11.2567749,1.333605289,-5.064855099,-20.59661674,-55.11764908,-3.663288832, 
517,593289553,177.1365662,-75.32493591,162.6894226,11.5517168,1.00274086,-5.597019196,-32.70692825,-32.31077194,2.351858854, 
518,593306220,177.6143799,-75.26689148,162.1214142,9.503993034,0.667320013,-3.699933767,-4.028214455,-6.25969696,9.655732155, 
519,593322887,178.1980591,-75.03483582,161.5511932,8.56771946,1.065885305,-2.964117527,2.219861746,-16.5971508,9.43217659, 
520,593339554,177.8842468,-75.16570282,161.7735291,9.014145851,1.132438302,-2.807193995,-5.667054653,5.633495331,-1.965954542, 
521,593356221,176.6878662,-75.55618286,162.9241486,8.743034363,0.392737597,-2.031677485,-4.708534718,21.91018677,-15.11405087, 
522,593372888,175.4564362,-75.56919098,164.3109131,9.558941841,-0.375288099,-2.076213598,6.974969864,-0.109033436,-19.43174553, 
523,593389555,174.6955719,-75.33744049,165.3457031,11.96229553,-1.068134546,-2.98576808,14.73217201,-14.81571198,-15.52198601, 
524,593406222,174.4318085,-75.44726563,166.1907959,13.13124752,-1.222421408,-3.529377937,33.52871704,5.484465122,-10.90564156, 
525,593422889,174.5145721,-75.94966888,166.9664154,11.11710358,-0.562760174,-2.793926239,50.34553528,28.82879829,-7.346641064, 
526,593439556,174.4924011,-76.48742676,167.8804932,8.528903961,0.222785175,-1.74836421,52.21961212,31.10439491,-8.713965416, 
527,593456223,174.1699524,-76.86779785,169.0500031,7.24666214,1.161823988,-1.2899369,49.21863174,22.0519352,-12.61702919, 
528,593472890,173.5320282,-77.09912872,170.4080048,6.812896252,1.755693316,-1.349939942,41.4034729,13.51901531,-15.51335716, 
529,593489557,172.7012177,-77.21650696,171.832077,6.902057648,1.884021044,-1.568175435,33.75711823,7.037721157,-16.72830391, 
530,593506224,171.8984222,-77.27548218,173.1452026,7.422805309,1.753796935,-1.590075612,28.98282242,3.620362759,-15.44990826, 
531,593522891,171.2539978,-77.3285141,174.2479248,8.108902931,1.591785669,-1.63465929,26.19483185,3.075921535,-12.58011246, 
532,593539558,170.7255249,-77.42458344,175.1415253,8.731385231,1.622400641,-1.786767364,20.92973518,5.340546608,-9.30529213, 
533,593556225,170.3546448,-77.59815216,175.8052826,9.204897881,1.572403908,-1.853538632,16.95301247,9.509234428,-5.397538185, 
534,593572892,170.2558136,-77.85978699,176.1845551,9.271034241,1.443614602,-1.613729954,16.6322937,14.11742973,-0.718936861, 
535,593589559,170.3826447,-78.17935181,176.3790741,9.116061211,1.11020577,-1.307010651,19.35104752,17.14918518,2.259858608, 
536,593606226,170.5934601,-78.49214172,176.503067,8.912330627,0.869958341,-0.851977468,20.25656128,16.61009789,3.056889534, 
537,593622893,170.920639,-78.72680664,176.4589081,8.878885269,0.713859856,-0.779305458,17.35056305,11.66679955,4.22977066, 
538,593639560,171.376709,-78.94361877,176.2400665,8.991624832,0.561469913,-0.684551597,14.79790401,10.30594254,5.973664284, 
539,593656227,171.9971008,-79.15421295,175.8374786,8.808447838,0.566927493,-0.593801558,13.81949615,9.695258141,7.835568428, 
540,593672894,172.6903687,-79.36546326,175.342865,8.456823349,0.55456531,-0.517186224,12.74859905,9.666466713,8.643277168, 
541,593689561,173.3221741,-79.57609558,174.920929,8.219163895,0.377671421,-0.319062322,13.32195473,9.82535553,7.612172604, 
542,593706228,173.8499756,-79.70612335,174.5947113,8.372296333,0.314385891,-0.113525443,12.71257114,5.197505474,5.856238365, 
543,593722895,174.2151031,-79.76422882,174.4250183,9.1755867,0.296137869,-0.204946533,12.18526649,1.116362095,3.659538031, 
544,593739562,174.5963745,-79.83490753,174.3097992,10.18130779,0.529144049,-0.541312873,16.36770248,1.932845116,3.129100084, 
545,593756229,175.1484222,-79.96881104,174.1179047,10.679533,0.935095608,-0.715800941,22.08047295,5.639267445,4.235010147, 
546,593772896,175.6999359,-80.12779236,173.9774933,10.61189556,1.286350608,-1.021943331,25.08018875,7.221280575,3.734513521, 
547,593789563,176.0309448,-80.28723907,174.0471344,10.65052128,1.192958474,-1.520557284,24.26710892,7.423903465,1.522684932, 
548,593806230,176.2776489,-80.57035065,174.3241119,11.15288734,0.310197413,-1.039095998,31.47937584,14.97070599,-0.058000199, 
549,593822897,177.0609283,-81.14601135,174.4094849,12.26219463,-0.741524875,0.634081841,52.33678055,32.37692642,2.767047882, 
550,593839564,178.9223938,-81.87861633,173.5994263,12.81428242,-1.458090663,2.257862806,63.8862381,41.50549698,10.28925228, 
551,593856231,-178.4337311,-82.51900482,172.0183258,11.00665379,-0.51424545,2.271981716,64.90091705,36.26652908,14.29412842, 
552,593872898,-175.9517365,-82.68447113,170.3602295,9.664128304,1.849175811,1.175156593,50.50620651,8.309577942,13.90419006, 
553,593889565,-174.5417633,-82.49846649,169.6572113,10.92816353,3.200436831,-0.294511288,43.01079178,-12.90655041,7.977677345, 
554,593906232,-173.9697113,-82.02654266,169.6751862,12.04773903,3.907175541,-2.165076733,35.63132858,-30.41900635,4.374433517, 
555,593922899,-174.4490051,-81.20379639,170.390274,13.33203125,4.29776144,-5.133106232,13.94702911,-51.95269012,0.493299097, 
556,593939566,-176.1038666,-80.66521454,171.9499664,14.126688,3.838377953,-6.926636696,-6.601539612,-35.56346512,-10.24986935, 
557,593956233,-178.2854462,-80.79051971,173.7584381,11.72030354,2.29438591,-6.154616356,-23.50785255,4.567442417,-16.01421928, 
558,593972900,179.4486847,-81.31031799,175.6113892,8.648838043,-0.716076255,-4.46321106,-25.82514954,28.9763298,-15.78379536, 
559,593989567,178.8237457,-81.97265625,176.3658447,6.542191982,-3.268648863,-2.021337271,7.590920448,37.83940887,-4.174943447, 
560,594006234,-179.4214172,-82.13705444,174.9615631,6.732875824,-3.647091389,-0.482734829,22.13649178,7.835669041,13.45811653, 
561,594022901,-176.5922089,-81.91716766,172.4766541,8.63116169,-2.277346373,-0.544432104,22.3800087,-14.43394661,22.84357262, 
562,594039568,-174.2537689,-81.512146,170.5283508,10.07548809,0.105220653,-1.040753007,24.90854073,-24.83984184,20.42241287, 
563,594056235,-173.0502319,-81.08269501,169.5930328,11.07043457,1.136646509,-2.129294872,17.01870155,-26.62659836,12.98472404, 
564,594072902,-172.0094147,-80.87788391,168.5896149,11.3793354,1.858470678,-2.586344242,3.273313046,-12.89645576,12.66517925, 
565,594089569,-170.5939026,-80.97986603,166.9703674,10.0945158,1.62259686,-2.567625523,-10.7245388,6.434104919,15.94321728, 
566,594106236,-168.7768097,-81.19264221,164.7718811,7.946269035,1.096224427,-1.325051188,-21.00683022,14.30714417,19.56131363, 
567,594122903,-167.008255,-81.20323944,162.5691376,7.255633354,0.188951716,-0.610702336,-24.21664238,2.957144737,21.38461685, 
568,594139570,-165.5304565,-81.10907745,160.6874084,7.555426121,-0.611781478,-0.717463732,-22.61896896,-3.272378922,19.94128799, 
569,594156237,-164.6065826,-80.93893433,159.3962402,7.830470562,-1.048415303,-1.098051548,-20.81953621,-8.657400131,16.03607368, 
570,594172904,-164.2904968,-80.69517517,158.7302094,8.447541237,-1.423381925,-1.275504112,-20.21577454,-14.29056644,11.77427292, 
571,594189571,-164.204422,-80.49211121,158.3377838,8.917496681,-1.885923743,-1.204280972,-17.79768562,-12.58655453,8.700632095, 
572,594206238,-164.0823059,-80.31586456,158.007431,9.042271614,-2.065808535,-1.012332916,-11.95184612,-11.17606354,7.733295441, 
573,594222905,-163.9417114,-80.18458557,157.8076172,9.007813454,-1.968357682,-0.92003113,-3.117348433,-8.921456337,5.762263775, 
574,594239572,-164.0878754,-80.11499023,157.9880371,8.751252174,-1.579714775,-0.798296571,2.156903267,-6.43651104,0.990833879, 
575,594256239,-164.6801147,-80.08440399,158.664032,8.552964211,-1.481533527,-0.68781209,4.681330681,-5.560608387,-4.616332054, 
576,594272906,-165.7232666,-80.02951813,159.8062592,8.63338089,-1.204945326,-0.26578474,5.169996262,-8.114556313,-9.008887291, 
577,594289573,-167.1542358,-79.92539978,161.3041534,8.929812431,-0.606400549,-0.120405123,2.903900385,-11.66463757,-12.15778446, 
578,594306240,-168.8362885,-79.87750244,162.9827728,9.372033119,-0.222452223,-0.290381253,-1.504696488,-8.415791512,-15.09751034, 
579,594322907,-170.5739899,-79.99661255,164.7161255,9.798287392,-0.482156515,-0.536569417,-1.596569419,1.840216875,-17.57797623, 
580,594339574,-172.1756439,-80.22147369,166.3902893,10.14081478,-1.281477332,-1.114198208,3.12336421,8.799505234,-17.50866127, 
581,594356241,-173.0434723,-80.43067932,167.4384766,10.25368881,-1.098672509,-1.519575238,10.18928528,9.145630836,-10.53356552, 
582,594372908,-173.3312988,-80.50440216,167.7801361,10.49819469,-0.101145715,-1.321558595,3.213695526,2.041991472,-2.346085072, 
583,594389575,-173.7266541,-80.65373993,167.9890594,11.05565929,0.475154608,-0.4920488,-11.0927515,6.727416039,-1.500162244, 
584,594406242,-174.2873077,-80.94889832,168.3363037,11.72271156,0.407231331,0.853928208,-12.81151772,15.30708599,-3.609974384, 
585,594422909,-174.3706818,-81.31241608,168.1457977,12.01330662,0.174239114,1.548101783,-16.03987312,19.90141296,1.153195143, 
586,594439576,-174.470932,-81.73200226,167.708847,11.51139259,0.033652149,1.058713675,-31.69813919,23.42379189,2.952629089, 
587,594456243,-175.7729797,-81.90105438,168.1395721,10.89960861,-0.095551059,-0.434100062,-52.29921341,7.746258736,-2.980592012, 
588,594472910,-178.2814026,-81.6940918,169.5077362,12.09594345,-0.361327559,-2.13158226,-69.01101685,-15.05213547,-9.521971703, 
589,594489577,179.2412109,-81.3197937,170.7138062,13.57479382,-0.311436772,-4.330323219,-76.82394409,-24.59743309,-8.991264343, 
590,594506244,177.9512024,-81.17510223,170.883667,13.52126503,-0.546955466,-5.976344109,-67.07108307,-10.67046356,-0.281872392, 
591,594522911,179.1635132,-81.37659454,169.2584229,11.10407829,-1.437467933,-5.448359013,-23.39406204,9.726371765,16.5468502, 
592,594539578,-177.7034454,-81.46401215,166.4125977,8.388366699,-0.85664171,-3.148717403,19.39653969,3.641505957,26.83495903, 
593,594556245,-175.3554993,-81.5786972,164.2949524,7.62878561,0.083695494,-2.008478165,15.45529556,6.086250782,19.70527267, 
594,594572912,-174.6846924,-82.07551575,163.8857117,7.128614902,1.014038444,-0.767724931,16.19469452,28.10547829,2.31448102, 
595,594589579,-175.7751465,-82.34671021,165.3448181,7.550381184,0.937104344,-0.5825333,21.55723381,13.3463192,-11.73854733, 
596,594606246,-178.0250854,-82.2301178,167.8442688,9.558526039,-0.697784185,-1.552149415,13.86671352,-9.957048416,-18.26236725, 
597,594622913,-179.8387146,-82.14927673,169.9027405,11.48486233,-2.018641233,-2.494157076,13.8007412,-7.042082787,-15.24478245, 
598,594639580,179.0534515,-82.16181183,171.4488068,11.66738796,-1.871769547,-3.060923815,25.68224144,-1.01505971,-11.23076534, 
599,594656247,177.9117126,-82.39385986,173.1845703,10.3816576,-0.554990888,-2.643111944,34.95752335,12.45010376,-12.21348667, 
600,594672914,176.1719971,-82.83982086,175.5762482,8.386563301,0.801380932,-1.638869524,38.19313812,25.85113335,-15.63174057, 
601,594689581,173.7020416,-83.23490906,178.7254333,7.221653938,1.668666959,-0.911146343,39.62924576,23.81758118,-19.30757523, 
602,594706248,171.1549072,-83.40355682,-178.0348663,7.162109852,1.652513385,-0.887886703,40.50341415,11.20972061,-19.64576912, 
603,594722915,169.1718597,-83.40142059,-175.3710938,8.040804863,1.355984569,-0.896422803,40.05380249,1.218871355,-16.6582756, 
604,594739582,167.8843994,-83.31235504,-173.4596863,9.262600899,1.193436146,-0.797535837,36.93824005,-4.3662076,-12.59084797, 
605,594756249,166.9989319,-83.34033203,-172.013504,9.559473038,1.72188437,-0.581567109,33.33754349,2.056125402,-7.992027283, 
606,594772916,166.3943176,-83.4969635,-171.0047607,8.73405838,2.03745842,-0.212314978,24.12415123,8.978199959,-3.083186865, 
607,594789583,166.343811,-83.64556885,-170.7115479,7.806047916,1.810300589,-0.064152524,14.72253227,7.364305019,1.711192369, 
608,594806250,166.8781891,-83.71203613,-171.0725708,7.408350945,1.539468408,-0.019699289,10.81188774,1.563675404,4.786318302, 
609,594822917,167.8247375,-83.65563965,-171.9407196,7.591710567,1.371967673,0.017578766,5.29161787,-6.325391769,6.405053139, 
610,594839584,169.0101471,-83.54284668,-173.1335602,8.330881119,1.037888765,-0.113365918,0.272307962,-9.99510479,8.02534008, 
611,594856251,170.3418274,-83.46382141,-174.4837341,8.978201866,0.710356832,-0.213047117,-0.3180843,-8.081425667,9.739676476, 
612,594872918,171.7030792,-83.43434143,-175.8777466,9.244141579,0.544443548,-0.495017856,-1.151060939,-5.010346413,10.72616291, 
613,594889585,172.7666321,-83.34973145,-176.949173,9.595119476,0.362962186,-0.829538703,0.222107038,-7.803526878,8.22213459, 
614,594906252,173.6487885,-83.21768951,-177.6213226,10.57821941,0.503173649,-0.670995891,13.14248562,-10.20072842,5.32495594, 
615,594922919,174.0741425,-83.10090637,-177.8652191,11.20889091,0.826243281,-0.510040045,11.2574749,-8.924700737,2.566375017, 
616,594939586,174.4029846,-82.99106598,-177.9862823,10.86355972,1.002104759,-0.427286416,12.78335381,-8.417081833,1.804127932, 
617,594956253,174.9832916,-82.90610504,-178.3769379,11.16948605,0.562342405,-0.256002128,11.82064629,-7.116826057,3.991876841, 
618,594972920,176.3545685,-82.95856476,-179.3044281,11.25573158,-0.876302361,-0.032698832,27.31368637,0.838133156,8.668777466, 
619,594989587,178.4527588,-83.03903198,179.394104,11.37672997,-2.218679905,0.426916331,48.63949585,2.602164507,11.32670975, 
620,595006254,-179.0839996,-83.12123108,177.9202881,10.97462749,-2.897087336,0.925801098,60.25816345,3.080576181,12.26395226, 
621,595022921,-176.5800323,-83.10991669,176.4246216,10.4071207,-1.973651767,0.690771639,61.40010834,-2.097069263,12.33794403, 
622,595039588,-174.5460052,-83.00748444,175.3595276,11.01163006,0.251473069,-0.702852368,58.84129333,-7.343022823,9.728702545, 
623,595056255,-172.5739899,-83.06147003,174.519989,12.08765602,1.177386284,-1.741138577,68.55157471,2.093521357,7.27273941, 
624,595072922,-170.6732635,-82.98908234,173.8509216,12.37269211,1.882649183,-3.522075415,74.43824005,-5.390132427,7.043958664, 
625,595089589,-171.1307068,-82.60224915,175.2263336,12.33458138,3.649779558,-4.973158836,54.66836166,-26.3147831,-4.934056759, 
626,595106256,-174.9305115,-82.22176361,179.5050354,12.45619202,4.734786034,-5.412008762,26.74341202,-28.4662571,-29.221632, 
627,595122923,-179.0351563,-82.41002655,-176.2142944,10.84075069,3.505409956,-4.450575352,8.528407097,7.797225475,-33.18429565, 
628,595139590,178.7264862,-82.83001709,-173.8343506,8.838039398,0.425279856,-3.324110746,7.585639954,23.61707497,-16.54550934, 
629,595156257,-179.5861053,-83.15670776,-175.0006561,7.920495033,-1.915705085,-1.891946435,32.06031799,17.92884636,10.40818977, 
630,595172924,-174.8420105,-83.0929184,-179.1391144,9.293875694,-1.633975029,-0.968599379,38.39198303,-3.954993725,31.57227325, 
631,595189591,-170.2497559,-82.74872589,176.6927948,11.44623089,0.83135426,-1.329689622,27.61952972,-18.04502296,34.91910553, 
632,595206258,-166.9717407,-82.50588226,173.575119,12.09614277,2.424129248,-2.379838943,11.43553066,-11.11348152,28.10043144, 
633,595222925,-163.4867249,-82.82982635,170.0504913,10.56449318,2.548642397,-2.36631155,-0.386061698,24.10674858,22.85971069, 
634,595239592,-159.3274689,-83.25523376,165.5623169,8.121375084,1.505825043,-1.331378222,-17.49773026,33.03021622,24.51781654, 
635,595256259,-155.3710175,-83.4076004,161.0508728,7.05718708,-0.292456359,-1.022209644,-31.21765327,18.98551941,27.23893738, 
636,595272926,-152.5350037,-83.29370117,157.6839142,7.429508686,-1.517915606,-1.475031853,-30.25002098,2.596201181,25.75717735, 
637,595289593,-150.3762665,-83.11653137,155.1414948,8.400012016,-1.737793446,-1.643569946,-21.70182991,-2.250301123,22.65935707, 
638,595306260,-148.7329559,-82.97454834,153.1915588,8.99272728,-1.168734908,-1.382695794,-17.29050446,-1.698253751,18.23614502, 
639,595322927,-147.5938873,-82.88247681,151.7289734,9.264278412,-0.849573672,-1.226132512,-18.49655151,-0.519695461,13.7861948, 
640,595339594,-146.5783234,-82.81585693,150.3796692,9.145992279,-1.119673491,-1.341140389,-19.14805031,0.595284998,12.31973743, 
641,595356261,-145.5658722,-82.78756714,149.0692444,8.621628761,-1.594770789,-1.216020823,-17.01178932,2.574201584,10.7941227, 
642,595372928,-145.2093506,-82.73728943,148.5156403,8.77930069,-1.985488772,-1.042530537,-11.31538963,-1.631286383,6.821350574, 
643,595389595,-145.1157227,-82.70462036,148.4224396,9.03413105,-2.23260808,-1.121351123,0.317040414,-2.722309828,3.344333172, 
644,595406262,-144.8692627,-82.76733398,148.3308716,8.817574501,-2.253736734,-0.908268094,9.584550858,1.964155436,0.033879213, 
645,595422929,-145.2758942,-82.81676483,148.9715881,8.462820053,-2.075922728,-0.835699677,13.98453808,-1.850070715,-4.04310894, 
646,595439596,-146.5636292,-82.86471558,150.4818573,8.437428474,-1.673885226,-0.792396784,12.89259434,-5.457687378,-9.377074242, 
647,595456263,-148.4521484,-82.92041779,152.5485992,8.374066353,-1.101246834,-0.50495404,9.988778114,-6.935978413,-13.15942287, 
648,595472930,-150.6658325,-83.00311279,154.9388733,8.630040169,-0.505373597,-0.340202242,9.764016151,-6.131995678,-16.09646225, 
649,595489597,-153.1702118,-83.12282562,157.6550751,8.908571243,-0.030016389,-0.27099511,11.76633644,-4.451008797,-19.17449379, 
650,595506264,-155.7707367,-83.21756744,160.4246216,9.423024178,0.068660736,-0.45601365,9.210258484,-4.910346508,-18.70549583, 
651,595522931,-157.840271,-83.34294891,162.6034546,9.980834961,-0.422229618,-1.329737425,5.911089897,-0.638678849,-15.44504738, 
652,595539598,-158.996582,-83.50666046,163.9606934,10.31465626,-0.670200348,-1.536747694,11.76733589,4.183383465,-10.70806313, 
653,595556265,-160.2065887,-83.49202728,165.259613,11.19902992,0.199713156,-0.842899203,5.08649826,-5.403731346,-6.396261215, 
654,595572932,-161.466568,-83.7978363,166.1904449,12.17496681,1.202609301,0.121593341,-19.8410244,13.78328133,-10.28863239, 
655,595589599,-162.862442,-84.55899811,167.0458221,10.96706963,1.291106462,1.066227674,-32.44881058,40.34743881,-17.35637283, 
656,595606266,-165.2401428,-85.11368561,168.853241,9.946845055,-0.19175534,0.734015644,-34.41577148,27.77441597,-16.93371201, 
657,595622933,-167.9817963,-85.40995026,170.9648438,10.45841885,-1.573280692,-0.11938452,-38.00890732,13.29228592,-12.70146847, 
658,595639600,-171.7154388,-85.54790497,173.8832397,11.42191505,-2.064688444,-1.28088367,-49.22589493,4.122907162,-13.47003269, 
659,595656267,-176.6961212,-85.36430359,177.9185333,12.53833199,-1.249713898,-3.285883904,-57.25083923,-14.4738493,-16.42247391, 
660,595672934,179.3020477,-84.9210968,-178.977005,14.17447186,0.157867745,-5.455164909,-54.26570129,-28.47982216,-13.63778687, 
661,595689601,179.3643799,-84.84056854,-179.5093842,12.99834442,0.817634344,-4.955278397,-27.82201767,-6.405818939,4.310009003, 
662,595706268,-177.8044891,-84.96631622,177.7812958,9.208206177,0.294786841,-2.380038023,8.20868206,6.267915726,15.85392761, 
663,595722935,-176.5345764,-85.18961334,176.8044739,7.479835033,0.447802544,-1.7840662,18.05934525,12.16119194,5.878502369, 
664,595739602,-177.3275299,-85.49898529,178.0980835,7.122991562,0.147418454,-1.987254024,30.04103661,16.74550438,-5.764879704, 
665,595756269,179.8844604,-85.63659668,-178.4552612,8.280651093,-0.660338223,-1.13286531,39.15957642,6.452231884,-14.63951683, 
666,595772936,176.072113,-85.46646881,-173.9348907,10.76084709,-1.572438002,-0.698414385,41.92835236,-10.88520145,-19.86680222, 
667,595789603,173.1103973,-85.10439301,-170.2022705,12.90130424,-1.358546734,-1.714494228,45.7595253,-21.29679489,-18.8720932, 
668,595806270,170.88974,-84.97133636,-167.0866089,12.46437359,-0.314870954,-3.025022745,53.26758957,-7.061038494,-15.6382122, 
669,595822937,168.4557648,-85.21553802,-163.5477905,9.828772545,0.282632232,-2.585096836,65.78572083,16.26618958,-13.76502132, 
670,595839604,165.6963654,-85.46944427,-159.4546967,7.657925606,0.639402926,-1.62036097,79.48569489,17.93974113,-14.55109119, 
671,595856271,163.3483124,-85.47026062,-155.5879059,6.827026367,0.533961594,-1.279574156,90.67557526,3.587684631,-16.16551781, 
672,595872938,161.1119995,-85.24066925,-151.6878815,6.6537714,0.109521605,-1.67990005,99.32276154,-8.667308807,-20.7628231, 
673,595889605,159.0631866,-84.79395294,-147.8727722,7.265470982,0.014051385,-2.159810066,105.3963852,-19.72869492,-26.33400726, 
674,595906272,157.4424438,-84.28214264,-144.3968048,8.412957191,0.436059773,-2.616255522,110.6413345,-22.43847275,-28.33140373, 
675,595922939,156.5197449,-83.81902313,-141.5935974,8.962331772,0.957666457,-2.766964436,112.2091904,-20.01568604,-25.43302917, 
676,595939606,156.509613,-83.39775848,-139.6662598,9.277971268,1.289699078,-2.557043314,114.5993576,-19.28705406,-20.40327263, 
677,595956273,157.2787476,-83.02937317,-138.4029999,9.959339142,1.559939623,-2.045017958,121.7021255,-18.02085495,-15.43101501, 
678,595972940,158.4660339,-82.74144745,-137.567337,10.58944702,1.760585666,-1.606844187,121.2712021,-14.86196804,-10.7755003, 
679,595989607,159.3634033,-82.60397339,-136.593399,10.57446861,1.656284928,-1.646548152,112.0849533,-6.184372902,-8.425533295, 
680,596006274,159.8151703,-82.46024323,-135.3977661,10.26061344,1.169906974,-1.726240635,98.52801514,-5.997114182,-10.24679375, 
681,596022941,159.3969421,-82.42132568,-133.4432068,10.84496212,0.777801156,-1.784606576,91.435112,2.034228325,-13.77023697, 
682,596039608,158.6741791,-82.67608643,-131.0500031,11.08447933,0.984145999,-1.189914942,99.29421997,19.78831863,-10.421381, 
683,596056275,158.662735,-83.12194061,-129.4228363,10.43668461,1.459916949,-0.884623051,96.45980835,28.16931534,-0.011244375, 
684,596072942,159.2497711,-83.72608185,-128.4821472,8.820425987,1.428446531,-0.741317093,91.55847168,35.01648712,8.485282898, 
685,596089609,161.269577,-84.2857132,-128.9409943,7.638150692,1.046863675,-0.345973462,94.0697937,29.50383186,15.55396461, 
686,596106276,165.2813416,-84.7787323,-131.3688202,7.068337917,0.729119658,-0.486862749,95.95398712,23.20934677,23.31420898, 
687,596122943,171.1989594,-85.02973175,-135.7767334,7.17203331,0.316010475,-1.742382288,91.88733673,8.825292587,27.5676899, 
688,596139610,177.9906921,-85.13441467,-140.8370209,8.064172745,-0.465743065,-3.392781734,105.2590561,2.703399897,28.00102425, 
689,596156277,-175.7899933,-85.10951996,-144.9208679,9.398729324,-1.18592,-4.439376831,129.2646027,-2.169796228,22.34770012, 
690,596172944,-171.9472351,-84.97254944,-146.3621063,11.82264709,-2.20477581,-4.966784954,144.6778412,-8.387162209,9.77331543, 
691,596189611,-169.518692,-85.24230957,-146.3084259,13.59680843,-2.155004978,-4.281873703,149.1863251,14.93739986,-1.447488308, 
692,596206278,-167.5406799,-85.65914154,-146.1481476,12.33311749,-0.559502423,-2.522786856,128.5384979,23.41419029,-4.329447269, 
693,596222945,-166.6855011,-85.67990112,-145.4297333,10.54461193,1.037220478,-2.054266691,94.56266022,-0.438567221,-2.073400497, 
694,596239612,-165.1894073,-85.68929291,-145.5522003,10.11900139,1.914172411,-1.902224302,82.7040329,-0.235668123,1.778134108, 
695,596256279,-162.0373535,-85.72200012,-147.212738,9.699576378,1.565772176,-1.309090257,90.03201294,3.08880806,7.992551804, 
696,596272946,-158.7214355,-85.59896088,-148.9633484,9.628709793,0.279245943,-0.969503105,94.47270203,-5.17942524,11.36326504, 
697,596289613,-156.0276642,-85.41559601,-150.0015106,9.529304504,-1.207563639,-1.32737422,99.76805878,-9.18036747,10.13336563, 
698,596306280,-153.564209,-85.16657257,-150.7929535,9.414808273,-1.220275164,-1.459456325,100.7632294,-12.72187424,11.25079918, 
699,596322947,-151.3686066,-84.81620789,-151.4523773,8.82708931,-0.885865569,-1.834261417,92.57341766,-17.92619705,14.13769627, 
700,596339614,-149.0187073,-84.52693176,-152.3579712,7.86911869,-0.279124886,-1.363014102,87.14746094,-13.41705132,14.34348965, 
701,596356281,-148.0281219,-84.08158875,-152.0201569,7.504787445,0.166500196,-0.778415143,79.86844635,-24.69552612,13.56399727, 
702,596372948,-148.6994019,-83.51275635,-150.1575928,8.312885284,0.308928907,-0.775077403,71.08712006,-36.23732758,8.942012787, 
703,596389615,-149.908844,-82.9825058,-147.8750916,9.130709648,0.126193896,-0.838712454,63.69711685,-36.42880249,3.719360828, 
704,596406282,-151.1830292,-82.50244904,-145.7157898,9.872292519,-0.241843924,-0.869763792,52.33058929,-33.98500443,1.240203142, 
705,596422949,-151.8416138,-82.18209076,-144.2870178,10.3594141,-0.735399246,-0.850319505,45.70485306,-23.2035656,0.4539316, 
706,596439616,-152.0678864,-81.9990387,-143.3299866,10.20317936,-1.257156253,-0.527620077,43.56595612,-14.27424145,-0.488719583, 
707,596456283,-152.3434906,-81.88947296,-142.3499451,9.910692215,-1.825773001,-0.246623963,41.95109177,-10.53589153,-2.912451982, 
708,596472950,-152.9081879,-81.82144928,-141.0852509,9.539622307,-2.187469006,-0.389756441,41.50159073,-9.458889008,-6.371975899, 
709,596489617,-153.8210602,-81.72068787,-139.4694977,9.229063034,-2.27325511,-0.683240414,41.44065475,-12.52800465,-8.410992622, 
710,596506284,-155.0077972,-81.55632019,-137.5928345,9.260820389,-1.970932126,-0.816563964,40.47080994,-16.87859917,-9.246729851, 
711,596522951,-156.4106293,-81.31967926,-135.5244751,9.66288662,-1.2647295,-0.873094559,38.82095337,-21.45823097,-9.75412941, 
712,596539618,-157.8820496,-81.09415436,-133.4857178,9.972849846,-0.505794764,-0.651569784,32.88151169,-20.6513443,-10.74074745, 
713,596556285,-159.4623566,-80.92043304,-131.4838104,9.947198868,-0.164376095,-0.439641088,24.09181976,-17.47826958,-12.45999527, 
714,596572952,-161.3356476,-80.75724792,-129.3569336,10.10607719,-0.405021101,-0.646875262,13.87121964,-16.97677422,-14.61836338, 
715,596589619,-163.2123413,-80.64707947,-127.2768173,10.47054672,-0.953285456,-0.905797184,10.84009647,-13.39422607,-15.95242786, 
716,596606286,-164.7835388,-80.53419495,-125.4498291,11.02030087,-1.19872272,-0.665660501,14.14495468,-12.42098045,-14.12105274, 
717,596622953,-165.9423218,-80.38869476,-124.102684,11.79460144,-1.006388903,-0.220214516,10.46489525,-12.81156445,-9.523388863, 
718,596639620,-166.8428192,-80.28586578,-123.2514648,12.26682854,-0.754011691,-0.027022429,-3.394682646,-9.009257317,-5.656694889, 
719,596656287,-167.8360901,-80.27910614,-122.5828781,12.2293539,-0.651455641,-0.173673972,-19.77608299,-2.90212822,-5.290797234, 
720,596672954,-169.2175903,-80.34925842,-121.6847534,12.31287098,-1.497675538,-0.76685065,-29.4725914,1.285575867,-8.499101639, 
721,596689621,-170.7832947,-80.37593842,-120.5363083,12.49684429,-2.47584486,-1.788589954,-25.71709251,-1.480104327,-10.42206001, 
722,596706288,-172.328949,-80.27819824,-119.3616791,11.92640781,-2.725915194,-2.319216251,-22.96147537,-8.595417976,-9.654543877, 
723,596722955,-173.984024,-80.06796265,-118.0093079,10.95418453,-1.875377417,-2.963432074,-19.05107117,-15.23265362,-11.06947899, 
724,596739622,-175.9745178,-79.63815308,-116.3630905,10.68422031,-0.214263648,-4.260303974,-21.8941555,-28.25165558,-13.91434956, 
725,596756289,-177.8701019,-79.26384735,-114.8968277,10.94596481,0.724200666,-5.736763954,-26.94396591,-24.32095337,-13.70983887, 
726,596772956,-178.9943237,-79.35823059,-113.8349304,10.46464062,0.600603819,-5.443874359,-4.565824986,4.336341381,-10.78629494, 
727,596789623,-178.769928,-79.68996429,-113.4996643,8.495024681,-0.077156812,-4.110133648,33.52378464,18.86147499,-2.859365702, 
728,596806290,-178.2406769,-79.83922577,-113.2373276,7.191794395,-0.244471475,-3.218451262,47.51908875,7.932555199,-1.845461369, 
729,596822957,-178.4128876,-79.92448425,-112.2547073,7.489282608,0.705707073,-3.049155951,47.97770691,3.873306751,-9.322191238, 
730,596839624,-179.3226624,-80.03885651,-110.54245,8.581677437,0.694990575,-2.782802582,46.83848953,5.583956242,-16.81730652, 
731,596856291,179.6649933,-80.23189545,-108.6437073,9.945267677,0.177480727,-2.957918882,51.7611618,10.60943985,-18.36387825, 
732,596872958,179.0569611,-80.45187378,-107.0967331,10.42724133,-0.321196944,-3.518047333,55.264431,12.45845413,-14.23365879, 
733,596889625,178.7992859,-80.75031281,-105.755394,10.43894196,-0.44475773,-3.4761374,64.18431854,17.24881172,-11.62538147, 
734,596906292,178.4337158,-81.11646271,-104.2272873,9.73136425,0.108267352,-3.176810026,68.84513855,21.42391586,-12.74157906, 
735,596922959,177.5999451,-81.49971008,-102.2162857,9.00494957,0.695623159,-3.227193594,69.4878006,22.73091507,-16.26126671, 
736,596939626,176.4128265,-81.98262024,-99.83834839,8.382294655,1.360070348,-2.841006994,70.1941452,29.13078117,-17.786129, 
737,596956293,175.1394196,-82.45413208,-97.39879608,7.845845222,1.762811422,-2.238004208,68.84719086,28.81651688,-16.50874138, 
738,596972960,173.7906189,-82.83807373,-94.94971466,7.755277634,1.838985801,-1.914290905,65.01144409,23.88519859,-15.31428814, 
739,596989627,172.4526672,-83.10397339,-92.64829254,8.026631355,2.117239475,-1.921613336,56.97247696,17.01469994,-13.672122, 
740,597006294,171.1083832,-83.27328491,-90.50559235,8.242089272,2.026245356,-1.977383375,47.18623734,11.38770008,-12.43070316, 
741,597022961,169.7422791,-83.42240143,-88.40301514,8.617892265,2.016635656,-1.783469915,43.51687622,10.40736294,-11.70108891, 
742,597039628,168.629364,-83.55776978,-86.62459564,8.889875412,1.899420857,-1.566143274,39.41162109,9.415291786,-9.123323441, 
743,597056295,168.1239014,-83.66612244,-85.4852066,8.987308502,1.682410121,-1.564619303,37.77606583,7.061562061,-4.894670486, 
744,597072962,168.1539917,-83.79414368,-84.9185791,8.684119225,1.428603888,-1.372917891,35.75311279,7.444532394,-0.797192633, 
745,597089629,168.568634,-83.9432373,-84.78287506,8.238139153,1.150878072,-1.132225275,33.12246323,8.101138115,2.218811512, 
746,597106296,169.3282928,-84.00894165,-85.03803253,8.352532387,1.141357183,-0.990136504,30.50193214,2.721537828,3.602502108, 
747,597122963,170.6619568,-84.05499268,-85.95102692,8.697803497,0.997063518,-1.018552661,25.68298912,0.897701681,7.369289875, 
748,597139630,172.5737152,-84.10339355,-87.56018829,8.646670341,1.107679844,-0.887546122,18.81309128,0.57968688,11.5602932, 
749,597156297,174.5615997,-84.11997223,-89.28842163,8.663854599,0.907181084,-0.782728374,16.26411247,-1.048630238,11.97451782, 
750,597172964,176.366272,-84.11047363,-90.82181549,8.983668327,0.988360286,-0.764722884,16.90783691,-2.161170483,10.65633202, 
751,597189631,177.8318939,-84.12363434,-92.05977631,9.887105942,0.696488559,-0.749925375,14.18785,-0.45173806,8.949855804, 
752,597206298,179.4635468,-84.24700928,-93.28988647,10.65243244,0.220769688,-0.415892243,24.61192703,6.367782593,8.960217476, 
753,597222965,-178.2806091,-84.37528229,-95.00540924,10.89255047,0.232405752,-0.431295365,33.07540131,6.941443443,11.43231869, 
754,597239632,-175.6914978,-84.4262085,-97.11940002,10.66299343,0.609937727,-0.85478884,29.25485229,2.8294065,13.50454903, 
755,597256299,-173.5273895,-84.44268036,-98.90226746,10.785532,0.632523417,-0.910533845,23.52510262,1.075620651,11.54801369, 
756,597272966,-171.1381989,-84.67041779,-100.7612381,11.98997211,-0.457006186,0.013371538,32.45941162,14.06811237,9.978755951, 
757,597289633,-167.0784149,-85.19029999,-103.8974762,12.82468891,-2.011036396,1.160860658,56.29321289,32.86667252,11.74287415, 
758,597306300,-160.2653351,-85.84395599,-109.6259232,12.16337585,-2.353584051,1.426916361,66.28726196,44.22185135,16.04190063, 
759,597322967,-153.0678406,-86.19976044,-116.0219803,10.54833984,-0.422409892,0.008004464,49.20465469,29.18071365,17.24391747, 
760,597339634,-150.6147461,-86.17362213,-117.6671829,10.66544628,1.241463304,-1.990699768,48.85861206,0.76454556,7.783163548, 
761,597356301,-151.0243378,-85.98254395,-116.2615967,12.15365601,2.965717316,-3.692615747,59.75839233,-13.74670219,1.808997393, 
762,597372968,-155.0519562,-85.448349,-111.6332855,12.97903633,4.827682018,-5.805330276,35.42643738,-38.86302185,-2.674984455, 
763,597389635,-161.5252991,-85.08522797,-105.173027,13.34466076,5.328416348,-6.921059132,-1.988036513,-32.91510391,-20.30971718, 
764,597406302,-166.7633972,-85.42033386,-100.300766,10.58204937,3.637991905,-5.225896835,-22.87474632,11.88559437,-27.35684967, 
765,597422969,-169.6277008,-86.03795624,-97.91894531,8.19628334,0.802329123,-3.254215002,-29.30417633,33.28762054,-16.55933762, 
766,597439636,-168.1792297,-86.44972992,-99.57324219,8.030031204,-1.549113989,-2.340791464,-12.12651157,24.69908524,3.077028275, 
767,597456303,-160.9444275,-86.55587769,-106.6859589,9.117517471,-2.599300146,-1.876106381,8.144889832,12.27669144,24.82044601, 
768,597472970,-152.4227142,-86.34355927,-114.8798752,9.882823944,-1.447856903,-1.375841856,20.62791824,-0.384929031,34.37389755, 
769,597489637,-147.8080139,-86.08643341,-119.481987,10.31951237,0.527975559,-1.765373349,1.363840938,-5.057911873,24.8921833, 
770,597506304,-144.2670288,-86.04482269,-123.3756866,10.095438,2.377853632,-2.161736965,-20.57102394,6.141415119,16.09228134, 
771,597522971,-139.5015564,-86.10852051,-128.7583618,9.094662666,2.457724571,-2.320037127,-36.26199722,15.89142418,16.46417999, 
772,597539638,-132.9476471,-86.10579681,-135.9046173,8.014276505,1.190442085,-1.883740425,-34.57401657,19.27219582,22.58991051, 
773,597556305,-124.9127274,-85.98136902,-144.4625702,7.131857395,-0.329492599,-1.205938935,-30.18801498,22.12730789,29.52341843, 
774,597572972,-119.7179031,-85.72108459,-150.1368256,6.905700684,-0.912049592,-1.168424487,-27.87795448,11.74652767,27.83025932, 
775,597589639,-116.7149734,-85.50843811,-153.6284637,7.407067776,-0.949399829,-1.322272539,-28.72672462,7.360444069,20.30195808, 
776,597606306,-115.5121613,-85.37179565,-155.3371582,8.028040886,-0.992661655,-1.393156648,-30.04630661,2.993789673,12.43494606, 
777,597622973,-115.8727112,-85.24452972,-155.4590302,8.708865166,-1.026040196,-1.292075157,-28.93550301,-3.485355854,8.628575325, 
778,597639640,-116.6339798,-85.09871674,-155.1752167,9.29772377,-1.137249112,-1.020658612,-28.72492027,-5.86906004,8.708614349, 
779,597656307,-117.019104,-84.97188568,-155.1910553,9.152279854,-1.468528509,-1.001593828,-24.08156967,-4.074804306,8.326873779, 
780,597672974,-117.0583344,-84.91300201,-155.4235535,9.196825981,-1.493698716,-1.058673978,-16.26406097,-1.226497412,5.202366829, 
781,597689641,-116.7995529,-84.93252563,-155.8280334,8.790120125,-1.633074403,-0.996827126,-8.653029442,1.733557582,1.41190064, 
782,597706308,-116.5340805,-85.02039337,-156.1343231,8.501327515,-1.516714454,-0.557631016,-2.389530897,3.090838671,-2.507707834, 
783,597722975,-116.9059448,-85.12757874,-155.7926483,8.235938072,-1.21013248,-0.275427014,-1.895410419,0.599708617,-5.056068897, 
784,597739642,-117.8934097,-85.2503891,-154.9025879,8.097354889,-0.750209153,-0.236626223,-6.052750587,-1.310403824,-7.127894402, 
785,597756309,-119.780426,-85.40645599,-153.2013702,8.296929359,-0.226048768,-0.141177878,-11.47448063,-3.492313862,-10.75018978, 
786,597772976,-123.2995453,-85.56977081,-149.9741364,9.135718346,-0.11719878,-0.421684116,-18.12070847,-8.597618103,-14.8350153, 
787,597789643,-126.2022705,-85.76756287,-147.3796997,10.17468834,-0.501191914,-1.011086106,-18.96910477,-3.644649267,-14.96077347, 
788,597806310,-127.8235321,-85.90112305,-145.9873962,10.62295532,-0.266945899,-1.235843897,-13.9793148,-0.772089064,-8.56210804, 
789,597822977,-129.2162781,-85.9978714,-145.0323639,11.38424683,0.214580923,-1.529019117,-26.43098068,-0.306936949,-5.560883045, 
790,597839644,-126.1476364,-86.37809753,-148.643692,11.91806793,-0.174563065,-0.860244453,-32.10028458,24.59383202,-7.743271828, 
791,597856311,-118.8708267,-86.76009369,-156.3368835,12.10631943,-0.943882883,0.891859233,-24.19814301,34.81396484,-2.935419798, 
792,597872978,-106.6022415,-86.9881897,-169.077652,12.46462345,-0.751585305,2.286743402,-27.22948265,42.85864639,5.031635284, 
793,597889645,-91.08100891,-87.02284241,174.672226,11.66436291,0.030702217,2.636688471,-42.44510651,49.68299866,7.278060913, 
794,597906312,-80.89753723,-86.96281433,163.3216095,11.11528301,0.552390635,1.218222141,-69.11035919,35.01005936,2.582429171, 
795,597922979,-82.19033813,-86.99313354,162.9600983,11.44993114,0.48024717,-1.55712831,-99.24658203,0.016994614,-0.445477962, 
796,597939646,-95.09300232,-87.00330353,174.1695557,13.06780148,0.14658016,-4.290403843,-102.5445175,-36.016819,1.774176002, 
797,597956313,-102.0860443,-86.81506348,179.9759827,13.66975784,0.245478362,-4.913074017,-71.74201202,-21.07113266,9.905814171, 
798,597972980,-108.4038162,-86.30483246,-174.1354675,11.60524845,-0.89840436,-4.810158253,-26.42640877,-29.26898003,25.49527359, 
799,597989647,-112.8240433,-85.59709167,-169.5857391,10.01756668,-1.477031827,-4.431949139,7.000201702,-33.73299789,34.53667068, 
800,598006314,-110.4919662,-85.22488403,-171.8782043,8.724486351,-0.629651487,-3.688386679,2.743658543,1.264034748,26.40697098, 
801,598022981,-106.0900955,-85.27085114,-176.3287201,7.760354996,0.477095366,-3.011945248,-2.070149899,21.17250061,5.906932354, 
802,598039648,-104.0191498,-85.56977081,-178.3958588,8.99115181,1.093470931,-2.014821768,0.53257829,13.54207706,-13.14653492, 
803,598056315,-100.9515915,-85.95659637,178.3493195,11.80106354,1.20984149,-0.735719383,-10.82464123,18.42918205,-17.92158127, 
804,598072982,-95.920784,-86.23547363,173.009491,12.6489296,0.708868921,-0.272787243,-17.93095779,23.34339523,-11.70004463, 
805,598089649,-89.28818512,-86.39560699,166.3456573,11.93181801,-0.548530459,-1.144132376,-1.204036713,25.40506744,-6.767077446, 
806,598106316,-79.68320465,-86.46282959,157.185379,9.686973572,-1.385480881,-1.549527884,27.60265732,32.9692688,-5.666981697, 
807,598122983,-71.20638275,-86.52835846,149.379425,7.435153961,-1.767879725,-1.289435148,40.9645195,26.03213692,-9.369979858, 
808,598139650,-64.0483551,-86.67710114,142.9297485,6.697710991,-1.233910561,-1.064670801,43.01999664,17.14552116,-15.35580063, 
809,598156317,-56.3715744,-86.83492279,135.9293365,6.770357132,0.148937419,-0.777892172,41.10257339,15.26411247,-18.42238045, 
810,598172984,-49.21418762,-86.98987579,129.3088531,6.946041107,1.184498906,-0.616426408,32.62438583,10.76640606,-18.7469635, 
811,598189651,-43.31898499,-87.14419556,123.9127502,7.139897823,1.939059615,-0.43709749,30.19179916,4.916147232,-16.55280876, 
812,598206318,-38.7181778,-87.30834198,119.6867065,7.237380028,2.264390469,-0.282933176,22.5841713,-0.028180446,-14.12047672, 
813,598222985,-36.4939003,-87.5372467,117.8073196,7.864027977,2.205800772,-0.351190925,20.59161949,-8.440665245,-10.78643417, 
814,598239652,-35.8609848,-87.70561218,117.5905075,8.734215736,2.00316906,-0.223611325,24.74103355,-8.492007256,-4.771984577, 
815,598256319,-36.81801224,-87.75982666,118.9396286,9.074790001,1.7852633,-0.116317853,23.20397568,-5.159708023,2.303598166, 
816,598272986,-38.77983093,-87.74736786,121.1623764,8.871900558,1.650285721,0.079016164,15.2875042,-3.286695004,6.227784634, 
817,598289653,-41.11154938,-87.67695618,123.6359711,8.887318611,1.414149523,-0.218796104,8.105500221,-1.238329768,8.906460762, 
818,598306320,-40.84609985,-87.42352295,123.3377686,8.898118973,1.309528828,-0.13673678,-2.236765385,11.32653427,11.07440281, 
819,598322987,-42.63922501,-87.2237854,124.9797897,8.549718857,1.085542321,0.304867089,-9.485390663,5.200811386,13.07954121, 
820,598339654,-44.54824448,-87.05390167,126.732811,8.756490707,0.796518207,0.391902596,-9.7977314,3.087857008,12.51889706, 
821,598356321,-45.89493179,-86.86631012,127.9752197,8.948491096,0.386399299,0.67760551,-6.678497791,4.44807148,12.47476482, 
822,598372988,-48.45476532,-86.7024765,130.5504761,9.328393936,0.058685105,0.615503609,0.360729545,-0.360902429,14.79932404, 
823,598389655,-52.1644249,-86.61286163,134.3544617,9.83275795,0.143067554,0.50316292,4.957893372,-7.488476276,14.34381962, 
824,598406322,-55.52999115,-86.60806274,137.8231964,10.22817707,0.918852806,0.163135216,5.511498451,-10.46349335,9.188652992, 
825,598422989,-58.47066879,-86.69287109,140.8012543,10.46652508,1.839464784,-0.059941202,1.615368366,-12.22044754,3.136673927, 
826,598439656,-57.56175995,-86.72434235,139.9420776,11.50295639,1.304626346,0.859535873,2.714856386,0.80951494,-1.439196706, 
827,598456323,-53.03715897,-86.58035278,135.7080383,12.03525543,-0.886740267,2.178409815,17.51021957,16.40263557,0.398252636, 
828,598472990,-48.86752701,-86.3684845,132.0368042,12.08322906,-2.342746735,2.449608803,29.98454857,17.79504013,3.060449123, 
829,598489657,-46.74965668,-86.12010956,130.5010376,10.90305138,-1.881256104,2.069887638,34.78941345,13.74606133,8.696696281, 
830,598506324,-46.48842621,-85.90303802,130.7671814,10.56090832,0.593650341,1.829737663,31.29638863,7.384517193,11.90901852, 
831,598522991,-45.41379929,-85.71019745,130.1907349,11.28258514,2.581650496,1.169045806,29.66391563,9.102210999,8.240660667, 
832,598539658,-46.05639648,-85.85390472,131.2669373,12.38864517,3.718163013,-0.17898035,25.50420761,-10.18453884,-1.155359983, 
833,598556325,-51.10583496,-86.473526,136.6199951,13.88352585,4.12366724,-3.127013206,17.12852097,-41.44521713,-11.90559673, 
834,598572992,-56.20858765,-87.34067535,141.8001099,13.40253067,4.031487465,-4.978793144,3.77603054,-45.05290985,-30.15088654, 
835,598589659,-53.05435181,-88.16378784,138.2775726,11.55783081,2.94136858,-5.111290932,-22.44356537,-22.5537281,-43.25066376, 
836,598606326,-28.58978081,-88.10824585,113.2252197,9.275014877,0.54447782,-4.300811768,-35.03977203,33.476017,-32.71245956, 
837,598622993,-16.37989426,-87.20249939,100.808815,7.186592579,-1.132605553,-2.047817469,-12.37554073,60.87170029,-5.593435287, 
838,598639660,-18.90361023,-86.66786957,103.3703003,6.920808315,-1.695951223,-0.968891144,1.466371298,27.39869118,19.38405037, 
839,598656327,-24.47557068,-86.58299255,109.1317749,8.837835312,-1.037377954,-0.033116121,10.19432545,-3.461903572,22.59420204, 
840,598672994,-28.58392906,-86.79167175,113.3905792,11.35118389,0.932275355,0.748306513,8.027700424,-18.45173836,9.425657272, 
841,598689661,-33.33973312,-87.0472641,117.769043,11.9209795,2.848128557,-0.726994514,-23.58603477,-21.06772041,6.042519093, 
842,598706328,-39.02148438,-87.06975555,122.2838669,10.79453373,2.827662706,-2.73521018,-70.97247314,-9.955436707,12.2840395, 
843,598722995,-41.91064072,-86.73158264,123.8068237,9.45260334,2.447155714,-2.433976173,-82.74525452,11.55703068,18.80743217, 
844,598739662,-45.65730667,-86.27490997,126.2389755,8.272309303,1.97438097,-1.00301075,-79.82068634,12.96338081,27.30314445, 
845,598756329,-50.41186142,-85.90126801,129.6441345,8.116612434,0.881782651,-0.308926135,-82.13833618,3.960469007,27.92631721, 
846,598772996,-54.9317894,-85.62776184,132.8181305,7.806725502,0.048788793,-0.455154568,-81.98223877,-1.902310371,23.54435921, 
847,598789663,-61.10076141,-85.5418396,137.5657196,8.450322151,-0.502442598,-1.10885632,-86.83521271,-16.54949951,17.96025658, 
848,598806330,-65.43712616,-85.39997864,140.4316711,8.973006248,-0.926412523,-1.654950619,-89.47493744,-8.979096413,15.72249794, 
849,598822997,-68.36536407,-85.2035141,141.8076019,8.522601128,-1.137650847,-1.12999475,-94.12319183,-2.289816618,15.49580956, 
850,598839664,-72.39058685,-85.06811523,144.2982941,8.529864311,-1.121506333,-0.707359493,-93.31051636,-9.903111458,13.94221401, 
851,598856331,-76.13764954,-84.96581268,146.5564423,9.039754868,-0.596815169,-0.729066789,-90.54180908,-10.37500763,11.12840843, 
852,598872998,-79.41921234,-84.90203857,148.3985748,8.808361053,-0.172769874,-0.783103168,-87.48406219,-9.454522133,7.854983807, 
853,598889665,-84.6536026,-84.89604187,152.2223663,8.569769859,-0.105809726,-0.782389045,-86.23370361,-20.88755989,5.246684074, 
854,598906332,-91.16308594,-84.89209747,157.3305054,9.144820213,-0.190829575,-0.902573705,-85.99259949,-27.995121,3.327877045, 
855,598922999,-96.2325058,-84.89224243,160.9110718,9.726477623,-0.015170416,-0.767081141,-90.87692261,-19.85492706,0.867426038, 
856,598939666,-100.1194382,-84.90499878,163.1119843,9.751008034,0.325433403,-0.654336333,-102.3967133,-12.30832958,-0.279092818, 
857,598956333,-104.3047638,-84.88894653,165.436142,10.17346859,0.603734732,-1.04029119,-112.9299469,-13.14141369,0.461030453, 
858,598973000,-107.4811401,-84.86485291,166.5802917,10.37770367,0.545884788,-1.174393654,-122.9349213,-7.137604237,1.900506377, 
859,598989667,-110.8346481,-84.77336884,167.7894897,10.30412579,0.187458843,-0.98141855,-129.6864471,-8.858276367,5.233588219, 
860,599006334,-113.9051666,-84.60174561,168.5969543,10.38014793,-0.076729372,-1.209623098,-136.7477722,-8.971196175,10.0512476, 
861,599023001,-116.35495,-84.3780365,168.6777191,10.13944626,-0.619224429,-1.717594266,-142.9080353,-7.049077034,14.19389439, 
862,599039668,-117.8969498,-84.16427612,167.7407074,9.73496151,-1.441910982,-1.762633801,-149.2045441,-1.813087344,16.23823547, 
863,599056335,-119.7363968,-83.96886444,167.014267,9.526345253,-2.336048603,-1.388191819,-154.4475708,-2.685758114,14.70266342, 
864,599073002,-122.1313095,-83.82984924,166.7923126,9.608521461,-2.662256718,-1.142863393,-157.6480255,-4.092706203,10.14409161, 
865,599089669,-124.4245071,-83.78491974,166.4485016,9.641423225,-2.683311701,-1.242847681,-158.7960815,-0.671893716,5.727323532, 
866,599106336,-126.2450104,-83.88012695,165.6112213,9.341098785,-2.620149612,-1.187102556,-159.8492432,6.616543293,0.704995513, 
867,599123003,-128.1849823,-84.07110596,164.8647614,9.310979843,-2.21965456,-0.938936353,-161.592041,9.546600342,-4.053981781, 
868,599139670,-131.5863953,-84.25137329,165.458786,9.422307014,-1.164753556,-1.217905283,-169.2498627,2.995779037,-8.421116829, 
869,599156337,-136.6309814,-84.29676056,167.506012,9.55535984,-0.326393366,-1.958106637,-181.0832062,-8.112509727,-8.273708344, 
870,599173004,-142.7198334,-84.07810974,170.5748444,10.02987289,0.454886615,-3.402985096,-182.762146,-23.31881142,-3.508745193, 
871,599189671,-148.6827698,-83.61441803,173.744278,10.25866604,1.829929471,-4.558753014,-169.2938843,-35.73775482,1.062789559, 
872,599206338,-153.6895599,-82.93942261,176.5794678,10.50471401,3.487217903,-4.343451023,-132.0408478,-46.35505676,4.317004681, 
873,599223005,-157.8530579,-82.16606903,179.019165,11.05304813,5.044115543,-3.931347132,-105.2235184,-51.39231873,4.03075695, 
874,599239672,-162.254364,-81.46816254,-178.4797211,12.09213734,6.97395134,-3.954293966,-116.1070862,-47.95211029,-3.45100379, 
875,599256339,-166.3257446,-80.85860443,-176.4113922,13.94736385,6.833744049,-3.593981266,-122.2446671,-41.70634842,-6.038946629, 
876,599273006,-168.7043915,-80.25952911,-175.611618,13.93889046,4.15272522,-2.887981653,-96.00975037,-38.16872787,2.560924292, 
877,599289673,-170.5546417,-79.57213593,-175.0432129,12.29720211,1.316809416,-3.389930725,-78.06551361,-43.03666306,4.062832832, 
878,599306340,-173.0547333,-79.21738434,-173.7924194,9.377116203,-0.577134967,-3.19582653,-76.86188507,-24.45310211,-8.108273506, 
879,599323007,-176.6699677,-79.09797668,-171.5494537,7.741006374,-0.993212283,-2.005363464,-85.32752228,-10.83284569,-22.05464363, 
880,599339674,178.9564056,-78.84493256,-168.7299194,6.924700737,0.245948926,-0.936333656,-96.9499054,-17.28030205,-29.54816628, 
881,599356341,174.6792755,-78.39064026,-166.4120636,7.279612064,2.581082106,-0.487522751,-120.8598862,-27.1938343,-26.41969872, 
882,599373008,171.0631104,-77.93912506,-165.0761108,7.639294147,3.778907299,-0.487893462,-139.1029358,-26.40012932,-17.16487122, 
883,599389675,168.195343,-77.62015533,-164.4343262,7.199672222,3.840457201,-0.319198668,-135.0436401,-18.98155403,-8.935539246, 
884,599406342,165.9000854,-77.27890015,-164.2669525,7.394549847,3.261724472,-0.562360168,-128.5443878,-21.13443184,-4.170880318, 
885,599423009,164.0457764,-76.91546631,-164.3535309,8.566608429,2.738595963,-1.305228114,-116.9708328,-23.09230995,-1.980460167, 
886,599439676,162.7748566,-76.56577301,-164.8382874,9.589282036,2.330020666,-1.885863543,-105.2156601,-23.78101921,2.958688974, 
887,599456343,162.0067596,-76.25830841,-165.7922974,10.36919594,1.829730868,-2.360765219,-102.3816376,-23.45178795,9.793789864, 
888,599473010,161.4059296,-76.04528809,-166.9081573,10.48884487,1.487716198,-2.771523237,-101.704895,-18.99476051,13.75026417, 
889,599489677,160.8318939,-75.82608795,-167.9549866,10.06890011,1.352699041,-3.09302783,-96.01644135,-19.23493958,12.72248936, 
890,599506344,160.1624298,-75.60014343,-168.7552032,9.987210274,1.487293363,-3.077776194,-87.3273468,-18.60510635,9.163145065, 
891,599523011,159.3122864,-75.40022278,-169.3103943,9.983219147,1.934532642,-2.974116325,-83.86421204,-16.02579498,6.174542904, 
892,599539678,158.3264771,-75.18800354,-169.7529907,9.935898781,2.647092581,-2.674596548,-85.44035339,-16.21081352,4.182633877, 
893,599556345,157.062561,-75.00526428,-169.9590759,10.26893044,3.220919847,-2.15589118,-88.3914566,-13.27346516,1.274363756, 
894,599573012,155.5841217,-74.89180756,-169.9047241,10.24486256,3.449970722,-1.6153965,-86.14981842,-7.845696449,-1.022396326, 
895,599589679,154.1128082,-74.80871582,-169.8203583,10.04477978,3.119307756,-1.513234258,-84.00244904,-5.932587147,-0.828847706, 
896,599606346,152.7312469,-74.78620148,-169.8341064,9.632828712,2.640960693,-1.602210522,-84.30489349,-3.31697917,2.070538044, 
897,599623013,151.4521179,-74.80281067,-170.0040436,9.187860489,2.597935677,-1.598637938,-87.20759583,-2.411052227,5.299441814, 
898,599639680,150.1367493,-74.84770203,-170.2139893,8.915060043,2.832950592,-1.464314699,-91.72261047,-1.324945927,6.652821541, 
899,599656347,148.7435913,-74.93367767,-170.3292389,8.830497742,2.824230194,-1.188965797,-90.89159393,1.435511827,6.616420746, 
900,599673014,147.4711456,-75.0197525,-170.4735565,8.970995903,2.546548367,-0.988133609,-85.347229,1.081773758,7.063287258, 
901,599689681,146.4276276,-75.11533356,-170.7584839,9.291355133,2.263880968,-1.026894093,-79.79157257,0.261722922,9.238780975, 
902,599706348,145.5730743,-75.26821899,-171.1779633,9.320645332,2.168834925,-1.146759391,-76.27040863,1.84232831,12.86114407, 
903,599723015,144.958847,-75.45344543,-171.7898712,8.991266251,2.307008505,-1.170619369,-73.05413818,1.657462478,16.33695412, 
904,599739682,144.5418854,-75.62665558,-172.5875244,8.940181732,2.748551607,-0.972541928,-72.04508209,-0.607903659,18.12335587, 
905,599756349,144.1598663,-75.80700684,-173.4548035,9.275418282,3.184566259,-0.89521718,-74.04758453,-0.901086152,19.09519196, 
906,599773016,143.7727051,-76.0353241,-174.3184662,9.437535286,3.353479862,-0.747225046,-74.19950867,1.429916501,20.59396744, 
907,599789683,143.5103912,-76.30867767,-175.2862091,9.446024895,3.198576212,-0.733244419,-72.84370422,2.729851484,23.23148346, 
908,599806350,143.3810272,-76.62449646,-176.3285217,9.284701347,2.956086159,-0.572860956,-69.28871918,4.243625641,25.36222839, 
909,599823017,143.2754669,-76.96847534,-177.3804474,9.099257469,2.847737551,-0.519670308,-68.51931763,5.663581848,26.1938324, 
910,599839684,143.1317139,-77.33815002,-178.4104462,8.97079277,3.02880621,-0.438682735,-69.6364975,7.241781712,26.58264542, 
911,599856351,142.9351044,-77.76874542,-179.3862762,8.753175735,3.234112501,-0.036290266,-69.73780823,10.7530489,27.89885521, 
912,599873018,142.9960632,-78.20388794,179.3986206,8.589770317,3.19179821,0.08680661,-68.43435669,9.388977051,30.10847855, 
913,599889685,143.6360321,-78.5880127,177.6484833,8.807672501,2.983604193,-0.127996832,-65.25963593,3.53408742,32.961586, 
914,599906352,144.4775696,-78.95825195,175.6680756,9.160799026,2.667370558,-0.377416998,-66.87454224,2.071807623,34.01720428, 
915,599923019,145.5293427,-79.2180481,173.5560608,10.23003101,1.997422814,-0.892766953,-62.13660049,-3.331372023,30.82212067, 
916,599939686,146.9663239,-79.19258118,171.4066925,12.28695297,2.041015625,-2.160085678,-41.2869606,-17.02952957,21.45936775, 
917,599956353,147.108902,-79.1259079,170.5701141,13.7796545,3.062576056,-2.962274075,-41.55729675,-10.82608604,7.966019154, 
918,599973020,144.8977356,-79.47660828,171.7899933,12.71356106,3.334409475,-2.834096432,-61.52868652,22.71433258,2.707373381, 
919,599989687,141.8387909,-80.21042633,173.6070709,9.522138596,2.484046221,-1.411113501,-76.98009491,44.47473526,13.02662373, 
920,600006354,140.1062927,-80.96871948,173.8570099,7.564365387,0.37997371,-0.688181341,-89.90862274,34.5606842,28.89759064, 
921,600023021,141.1111298,-81.45967102,171.6845245,7.849001408,-2.015660524,-1.227371216,-69.30289459,7.800177574,36.19581223, 
922,600039688,143.7927399,-81.69680786,168.2706146,9.774378777,-2.573498487,-1.637512207,-42.52290344,-9.317540169,34.53359985, 
923,600056355,145.3955231,-81.94251251,165.7363586,10.94572163,-1.1224159,-1.626648426,-55.1662178,-2.826348305,28.21957397, 
924,600073022,145.7834778,-82.29958344,163.9724731,11.12521076,0.660017848,-2.105843782,-82.38988495,7.173980713,26.08378792, 
925,600089689,146.9533997,-82.66719818,161.1590881,10.5626173,0.898013175,-2.293983221,-97.99516296,3.84492445,32.5800705, 
926,600106356,149.2717438,-83.03199005,157.0318451,10.48807144,0.358834624,-1.983272552,-107.4405441,0.02295644,39.67540741, 
927,600123023,151.5792389,-83.42723083,152.8444061,9.780737877,-0.339226305,-1.679939032,-111.8592148,3.732768774,39.36493301, 
928,600139690,153.2926788,-83.77577972,149.2764435,8.723085403,-1.003070235,-1.521523952,-110.7654419,5.238472462,32.69249344, 
929,600156357,154.2963409,-84.08049774,146.4452667,8.161094666,-1.435902953,-1.552338004,-109.5379791,6.227169037,26.02595711, 
930,600173024,154.8825226,-84.34002686,144.0101624,7.959465981,-1.624055743,-1.201976299,-111.0319595,5.50323391,21.7775116, 
931,600189691,155.8329773,-84.48082733,141.193634,7.998758316,-1.681741714,-0.617662907,-112.0371933,-1.407789469,20.22771263, 
932,600206358,158.0863495,-84.42234039,137.1141357,8.442484856,-1.756875515,-0.409678847,-109.3111038,-14.70589066,22.10712051, 
933,600223025,160.7608185,-84.26017761,132.768631,9.201455116,-1.928130865,-0.686685026,-99.90756226,-20.35717773,22.31318474, 
934,600239692,162.6760864,-84.15991211,129.4420013,9.614295959,-1.784881592,-0.863920331,-84.61914825,-14.22879219,18.87090683, 
935,600256359,163.9459686,-84.13920593,126.9322357,9.622935295,-1.569865346,-0.680842578,-74.58502197,-7.794451237,15.95498562, 
936,600273026,165.0861206,-84.08255005,124.5901413,9.488080025,-1.378271222,-0.537913263,-72.38619232,-9.312650681,14.5725584, 
937,600289693,166.3900146,-83.95337677,122.0601501,9.561986923,-1.259328485,-0.397523433,-73.76213074,-13.58978844,14.98311615, 
