PacketCounter,SampleTimeFine,Euler_X,Euler_Y,Euler_Z,Acc_X,Acc_Y,Acc_Z,Gyr_X,Gyr_Y,Gyr_Z,
0, 757299574, -162.67041015625, -50.19493103027344, 68.01754760742188, 0, 0, 0, 0, 0, 0, 
1, 757316241, -165.4126739501953, -54.46503448486328, 69.46810913085938, 9.779495239257812, 3.3524820804595947, 0.8873141407966614, -44.765682220458984, 82.40434265136719, -6.170112609863281, 
2, 757332908, -174.4354248046875, -64.480224609375, 76.78628540039062, 10.340391159057617, -2.483633518218994, -3.403470754623413, -51.98215866088867, 94.30461120605469, -10.829893112182617, 
3, 757349575, -174.9580078125, -71.159423828125, 76.85099029541016, 11.14787483215332, -3.473583221435547, -1.186212420463562, -21.371036529541016, 130.88021850585938, 1.7146141529083252, 
4, 757366242, -166.2061004638672, -76.90254974365234, 68.07465362548828, 8.724020004272461, -0.9845837354660034, -2.705550193786621, -14.741843223571777, 153.48992919921875, 1.49223792552948, 
5, 757382909, -156.04916381835938, -80.6501235961914, 57.167842864990234, 6.65106725692749, 0.1023905947804451, -2.887636423110962, -48.25956726074219, 164.95545959472656, -5.569248199462891, 
6, 757399576, -146.22622680664062, -82.55524444580078, 45.860443115234375, 7.548453330993652, -5.52607536315918, -6.549051284790039, -85.48929595947266, 130.7412567138672, 13.025134086608887, 
7, 757416243, -131.34637451171875, -82.42106628417969, 29.33266830444336, 9.399757385253906, -5.432017803192139, -4.527684211730957, -92.22824096679688, 142.3066864013672, 29.924161911010742, 
8, 757432910, -115.92178344726562, -81.59917449951172, 13.176920890808105, 10.520448684692383, 1.8615376949310303, -0.9575998783111572, -32.694435119628906, 158.8807373046875, 28.12601661682129, 
9, 757449577, -104.06304168701172, -81.82562255859375, -0.5426957011222839, 8.569866180419922, 3.3077447414398193, -3.7294700145721436, -98.0682144165039, 164.30300903320312, -1.7648723125457764, 
10, 757466244, -97.2269058227539, -82.1619873046875, -9.781293869018555, 9.873481750488281, -1.1346895694732666, -5.322361469268799, -131.36471557617188, 131.75318908691406, 4.857605934143066, 
11, 757482911, -89.76607513427734, -82.3858413696289, -19.319395065307617, 11.037588119506836, -1.3411399126052856, -4.305751800537109, -111.20525360107422, 138.76303100585938, 2.1513867378234863, 
12, 757499578, -81.64693450927734, -82.51166534423828, -29.235002517700195, 10.644698143005371, -1.1368900537490845, -4.690857410430908, -94.79264831542969, 138.3219451904297, -2.8529036045074463, 
13, 757516245, -73.82886505126953, -82.44758605957031, -38.69623947143555, 11.062997817993164, -1.457748532295227, -3.759079933166504, -86.22639465332031, 134.81134033203125, -1.4624634981155396, 
14, 757532912, -64.6945571899414, -82.14791870117188, -49.27010726928711, 10.832601547241211, -1.104696273803711, -3.42301607131958, -73.88473510742188, 144.02105712890625, -3.877788782119751, 
15, 757549579, -56.58020782470703, -81.6325912475586, -58.919219970703125, 11.633564949035645, -1.6490426063537598, -3.4926717281341553, -80.31885528564453, 140.99462890625, -3.75177001953125, 
16, 757566246, -48.34486770629883, -80.66886901855469, -68.38574981689453, 11.479631423950195, -0.9839766025543213, -3.251594066619873, -61.605281829833984, 156.72781372070312, 0.685848593711853, 
17, 757582913, -41.65959167480469, -79.83975982666016, -76.28829193115234, 8.841997146606445, 1.0050265789031982, -4.18695068359375, -61.27748107910156, 141.9031524658203, -13.174735069274902, 
18, 757599580, -36.17939758300781, -79.2796401977539, -83.276611328125, 8.465950965881348, 0.8497772216796875, -3.177832841873169, -79.63398742675781, 123.21253967285156, -26.387327194213867, 
19, 757616247, -31.51852035522461, -78.9309310913086, -89.6056137084961, 8.596345901489258, 0.1325489580631256, -3.4931437969207764, -90.50564575195312, 104.186767578125, -34.35081481933594, 
20, 757632914, -26.781505584716797, -78.7439193725586, -95.96897888183594, 9.07501220703125, -0.35441893339157104, -3.599499464035034, -88.53507995605469, 90.94024658203125, -45.147090911865234, 
21, 757649581, -21.389846801757812, -78.64280700683594, -102.76184844970703, 9.23167610168457, -0.7354153394699097, -3.0348265171051025, -75.12351989746094, 81.97972106933594, -57.12357711791992, 
22, 757666248, -15.412734985351562, -78.5941162109375, -109.92188262939453, 8.180268287658691, -0.614882230758667, -3.0300779342651367, -62.26433181762695, 71.56853485107422, -67.41119384765625, 
23, 757682915, -9.082864761352539, -78.57457733154297, -117.3607406616211, 7.527304649353027, -0.0043150875717401505, -2.4958341121673584, -58.214195251464844, 60.122066497802734, -75.20088195800781, 
24, 757699582, -2.493119239807129, -78.59069061279297, -125.12409210205078, 6.956429958343506, 0.2555796504020691, -2.8907816410064697, -62.57041549682617, 46.34090042114258, -81.57344055175781, 
25, 757716249, 4.288239479064941, -78.71729278564453, -133.23294067382812, 7.027054786682129, 0.1405181884765625, -3.6420111656188965, -72.30094909667969, 27.168222427368164, -85.71007537841797, 
26, 757732916, 11.731219291687012, -78.93290710449219, -141.957763671875, 7.838672161102295, -0.6563302874565125, -4.730067729949951, -69.85157012939453, 8.310673713684082, -89.28895568847656, 
27, 757749583, 20.17585563659668, -79.1463623046875, -151.39266967773438, 8.693504333496094, -1.2246270179748535, -4.947639465332031, -52.52991485595703, -6.725961685180664, -91.800048828125, 
28, 757766250, 29.708358764648438, -79.275146484375, -161.52685546875, 9.017072677612305, -1.5176059007644653, -4.497978687286377, -29.322723388671875, -19.82112693786621, -93.49638366699219, 
29, 757782917, 40.093223571777344, -79.237548828125, -172.1381378173828, 8.947831153869629, -1.0312854051589966, -3.152773857116699, -6.9253387451171875, -31.31909942626953, -94.12711334228516, 
30, 757799584, 50.862876892089844, -78.98661804199219, 177.01632690429688, 8.777050018310547, -0.06325321644544601, -2.140780448913574, 2.1890852451324463, -43.72405242919922, -94.01020050048828, 
31, 757816251, 61.43571472167969, -78.52482604980469, 166.22140502929688, 9.189805030822754, 0.2235284000635147, -2.024224281311035, -6.288531303405762, -58.03911590576172, -91.33443450927734, 
32, 757832918, 71.48573303222656, -77.89656066894531, 155.7096405029297, 9.557700157165527, -0.23040612041950226, -2.323385238647461, -20.14322280883789, -73.53196716308594, -84.64349365234375, 
33, 757849585, 80.87718963623047, -77.12907409667969, 145.68789672851562, 9.8775053024292, -0.4493432641029358, -1.7773969173431396, -29.573545455932617, -87.30548095703125, -75.19290924072266, 
34, 757866252, 89.145263671875, -76.21671295166016, 136.6852264404297, 10.011627197265625, -0.294893741607666, -1.3610749244689941, -35.61272430419922, -93.14567565917969, -65.6236343383789, 
35, 757882919, 96.32176208496094, -75.20889282226562, 128.69256591796875, 10.303339004516602, -0.5852930545806885, -0.9167493581771851, -40.19997787475586, -96.8553466796875, -55.723716735839844, 
36, 757899586, 102.2442626953125, -74.20822143554688, 121.8847427368164, 10.527379035949707, -0.5111138224601746, -0.9451849460601807, -44.58708953857422, -93.7256088256836, -43.65054702758789, 
37, 757916253, 107.39191436767578, -73.24488830566406, 115.79718780517578, 10.2561674118042, -0.19633029401302338, -1.0521111488342285, -47.55011749267578, -93.27323150634766, -32.169464111328125, 
38, 757932920, 111.79662322998047, -72.34468078613281, 110.3851089477539, 10.0813570022583, -0.14987409114837646, -1.0202878713607788, -51.50133514404297, -89.79244232177734, -21.639678955078125, 
39, 757949587, 115.64921569824219, -71.53295135498047, 105.5293197631836, 9.925813674926758, -0.34370163083076477, -1.493030071258545, -51.2059326171875, -85.01226043701172, -11.631328582763672, 
40, 757966254, 119.21458435058594, -70.80096435546875, 101.00582885742188, 10.054015159606934, -0.31186288595199585, -1.570575475692749, -48.14031982421875, -81.99098205566406, -2.441537618637085, 
41, 757982921, 122.48055267333984, -70.13617706298828, 96.80584716796875, 10.161667823791504, -0.015948936343193054, -1.0395302772521973, -46.54780578613281, -77.95792388916016, 4.727365016937256, 
42, 757999588, 125.31929779052734, -69.57579040527344, 93.04930114746094, 10.122562408447266, 0.12032252550125122, -0.6016473770141602, -46.041542053222656, -69.61771392822266, 10.861483573913574, 
43, 758016255, 127.82119750976562, -69.15047454833984, 89.62611389160156, 9.67235279083252, -0.06580524146556854, -0.9720684289932251, -46.556365966796875, -61.07477951049805, 17.86872673034668, 
44, 758032922, 130.1811981201172, -68.83195495605469, 86.34510040283203, 8.896063804626465, -0.03356458619236946, -1.4175984859466553, -46.38621520996094, -55.67705535888672, 24.57378387451172, 
45, 758049589, 132.412109375, -68.59111785888672, 83.140869140625, 8.391812324523926, -0.2196316123008728, -1.8512564897537231, -49.289100646972656, -51.61347198486328, 30.093210220336914, 
46, 758066256, 134.61598205566406, -68.42904663085938, 79.99728393554688, 8.285428047180176, -0.4188828766345978, -2.0631847381591797, -47.10541534423828, -47.08384323120117, 35.286258697509766, 
47, 758082923, 136.7700653076172, -68.33747863769531, 76.89283752441406, 8.01374626159668, -0.30863460898399353, -2.724733829498291, -47.61455535888672, -42.687232971191406, 39.89973068237305, 
48, 758099590, 139.0714569091797, -68.20462036132812, 73.70542907714844, 8.311165809631348, -0.0333658792078495, -1.9948980808258057, -43.160160064697266, -44.54497146606445, 41.770084381103516, 
49, 758116257, 141.13861083984375, -68.16419982910156, 70.92111206054688, 8.702550888061523, 0.06671945005655289, -1.1967225074768066, -34.49138259887695, -33.383338928222656, 40.619327545166016, 
50, 758132924, 142.93492126464844, -68.25711059570312, 68.50386810302734, 8.139219284057617, 0.16354259848594666, -1.839824914932251, -30.109338760375977, -21.115022659301758, 40.38968276977539, 
51, 758149591, 144.78750610351562, -68.35334777832031, 65.9892349243164, 7.79999303817749, -0.006372734904289246, -2.300058126449585, -32.06797790527344, -21.10449981689453, 42.986900329589844, 
52, 758166258, 146.67405700683594, -68.46481323242188, 63.388206481933594, 8.087015151977539, 0.3803485631942749, -1.9481980800628662, -34.81126022338867, -20.01828956604004, 45.79175567626953, 
53, 758182925, 147.9210662841797, -68.6406478881836, 61.151065826416016, 7.737006187438965, 3.453303337097168, -3.6155476570129395, -52.8362922668457, -11.235771179199219, 41.68319320678711, 
54, 758199592, 149.399169921875, -68.39289855957031, 58.33212661743164, 15.20695972442627, 0.40300244092941284, -4.369889736175537, -71.15887451171875, -38.533565521240234, 40.550045013427734, 
55, 758216259, 151.34036254882812, -68.23187255859375, 55.608070373535156, 21.72112464904785, 1.086960792541504, -2.881143808364868, -37.82478332519531, -32.22879409790039, 42.97740173339844, 
56, 758232926, 153.0120086669922, -68.91334533691406, 53.517494201660156, 23.260848999023438, -2.4113705158233643, 1.0577278137207031, -18.73165512084961, 19.823484420776367, 54.62150573730469, 
57, 758249593, 154.93284606933594, -70.34861755371094, 51.7404899597168, 7.153934955596924, -0.8754565715789795, -4.735723495483398, 13.17029094696045, 64.51646423339844, 65.32775115966797, 
58, 758266260, 157.61917114257812, -70.68611145019531, 48.98762512207031, 0.5482378602027893, 1.8522788286209106, -2.0755298137664795, 3.410306930541992, 0.02391609363257885, 52.68255615234375, 
59, 758282927, 158.75001525878906, -70.8006591796875, 47.263023376464844, 2.4716861248016357, 1.7978951930999756, -0.9590214490890503, -31.71224021911621, -2.469585657119751, 28.880247116088867, 
60, 758299594, 159.41680908203125, -70.67023468017578, 45.79200744628906, 9.713528633117676, -1.351820945739746, -2.760763645172119, -45.00775909423828, -13.946389198303223, 19.524444580078125, 
61, 758316261, 160.80848693847656, -70.80851745605469, 44.04714584350586, 14.632363319396973, -2.1571309566497803, -3.0915870666503906, -17.047447204589844, -0.34570884704589844, 30.283193588256836, 
62, 758332928, 162.78273010253906, -71.12449645996094, 42.155120849609375, 12.443693161010742, 1.575631022453308, -3.128082036972046, 9.397738456726074, 9.674253463745117, 35.74055480957031, 
63, 758349595, 164.31149291992188, -71.20137023925781, 40.59902572631836, 8.577842712402344, 1.747950553894043, -1.2806202173233032, 1.758462905883789, -1.1278448104858398, 25.10021209716797, 
64, 758366262, 165.4976806640625, -71.31803894042969, 39.240604400634766, 7.2236833572387695, -0.6701763868331909, -2.203181505203247, -7.477296829223633, 2.64156436920166, 22.309877395629883, 
65, 758382929, 166.9984130859375, -71.29893493652344, 37.5404052734375, 8.48584270477295, -1.4055882692337036, -3.9348440170288086, -8.023737907409668, -6.2792649269104, 26.69599151611328, 
66, 758399596, 168.6122589111328, -71.2895736694336, 35.82661056518555, 10.721051216125488, -0.4067140519618988, -3.4093637466430664, -2.0208985805511475, -4.845705032348633, 27.23480796813965, 
67, 758416263, 170.07078552246094, -71.34627532958984, 34.34915542602539, 10.588191986083984, -0.4004310369491577, -3.594975233078003, 2.105604887008667, 0.664746880531311, 23.680068969726562, 
68, 758432930, 171.36485290527344, -71.39418029785156, 33.07305908203125, 9.431751251220703, -1.0026057958602905, -3.113060712814331, 3.6966030597686768, 1.3929423093795776, 19.777751922607422, 
69, 758449597, 172.3259735107422, -71.43212890625, 32.08566665649414, 9.079538345336914, -1.7028429508209229, -3.1263158321380615, 0.12974761426448822, 1.9954289197921753, 14.167102813720703, 
70, 758466264, 173.10679626464844, -71.46463775634766, 31.349660873413086, 9.41399097442627, -1.836442470550537, -3.4910402297973633, 3.5866177082061768, 2.5052363872528076, 9.238637924194336, 
71, 758482931, 173.72898864746094, -71.50886535644531, 30.853796005249023, 9.644997596740723, -1.238318920135498, -3.579396963119507, 7.701594352722168, 3.868767738342285, 4.638711452484131, 
72, 758499598, 174.15264892578125, -71.55209350585938, 30.5816707611084, 10.024319648742676, -0.40179726481437683, -3.162836790084839, 8.515884399414062, 4.307550430297852, 0.33317646384239197, 
73, 758516265, 174.39988708496094, -71.66152954101562, 30.494203567504883, 9.854432106018066, -0.22119654715061188, -3.0587661266326904, 8.473587989807129, 8.544560432434082, -2.7247958183288574, 
74, 758532932, 174.5987091064453, -71.83069610595703, 30.516048431396484, 9.491384506225586, -0.22295939922332764, -3.0530552864074707, 11.840042114257812, 12.222516059875488, -4.389471054077148, 
75, 758549599, 174.77647399902344, -72.04589080810547, 30.590665817260742, 9.869372367858887, 0.4491373300552368, -2.9856667518615723, 13.628633499145508, 14.98768424987793, -5.070489406585693, 
76, 758566266, 174.77096557617188, -72.35858154296875, 30.74652671813965, 9.861377716064453, 0.6102423667907715, -3.0135397911071777, 7.346702575683594, 20.860652923583984, -5.888062953948975, 
77, 758582933, 174.73619079589844, -72.66613006591797, 30.84356117248535, 9.402915954589844, 0.3449811041355133, -3.40571665763855, 2.3099164962768555, 20.388063430786133, -4.661991596221924, 
78, 758599600, 174.6566619873047, -72.99439239501953, 30.93248176574707, 8.99972152709961, 0.16089960932731628, -3.086793899536133, -0.7687408328056335, 21.611295700073242, -4.2440185546875, 
79, 758616267, 174.48216247558594, -73.36615753173828, 31.066925048828125, 9.31885051727295, 0.06233372539281845, -3.0526907444000244, -3.7914175987243652, 24.27046012878418, -4.622270107269287, 
80, 758632934, 174.3542938232422, -73.7642822265625, 31.218605041503906, 9.74301528930664, -0.05348408967256546, -2.970764398574829, 0.06280889362096786, 25.85269546508789, -4.5768723487854, 
81, 758649601, 174.19395446777344, -74.21634674072266, 31.44580841064453, 10.105425834655762, 0.5275478363037109, -2.784243106842041, 2.5345382690429688, 29.162633895874023, -5.317693710327148, 
82, 758666268, 173.9634246826172, -74.70225524902344, 31.714826583862305, 9.735400199890137, 0.5740367770195007, -2.932018280029297, 0.8268641233444214, 31.195308685302734, -5.471916675567627, 
83, 758682935, 173.81138610839844, -75.21497344970703, 31.865814208984375, 9.367077827453613, 0.2877812087535858, -2.6595818996429443, -1.2066444158554077, 32.57958984375, -3.1366329193115234, 
84, 758699602, 173.7353057861328, -75.69181823730469, 31.962331771850586, 9.358935356140137, 0.8126559257507324, -2.0539350509643555, 0.2573124170303345, 30.31925392150879, -2.3450169563293457, 
85, 758716269, 173.48765563964844, -76.1944580078125, 32.102333068847656, 9.844207763671875, 1.0016355514526367, -1.9148820638656616, -7.43763542175293, 31.861541748046875, -2.5527758598327637, 
86, 758732936, 173.3727264404297, -76.68881225585938, 32.14187240600586, 10.113531112670898, 0.7382434606552124, -2.177489995956421, -5.2567620277404785, 31.126453399658203, -0.9067503213882446, 
87, 758749603, 173.41871643066406, -77.19989013671875, 32.01041030883789, 9.98405647277832, 1.0396393537521362, -1.714969277381897, -5.543056964874268, 31.806716918945312, 1.6498416662216187, 
88, 758766270, 173.7421875, -77.73870086669922, 31.663537979125977, 10.247028350830078, 1.5979355573654175, -0.3533571660518646, -1.4737478494644165, 33.1058464050293, 4.581624507904053, 
89, 758782937, 173.94944763183594, -78.2504653930664, 31.296476364135742, 10.824822425842285, 2.345158815383911, 0.1224847361445427, -9.605926513671875, 31.34343719482422, 4.501186370849609, 
90, 758799604, 174.43727111816406, -78.67369842529297, 30.473350524902344, 12.463774681091309, 0.7296268343925476, 0.6467380523681641, -19.54994773864746, 25.36377716064453, 9.289083480834961, 
91, 758816271, 175.90419006347656, -79.12945556640625, 28.898916244506836, 13.388557434082031, 0.9213448166847229, 1.1308715343475342, -5.080143451690674, 26.5429630279541, 17.406726837158203, 
92, 758832938, 177.91371154785156, -79.49842834472656, 26.685548782348633, 13.404562950134277, 2.220395088195801, 1.5968843698501587, -10.286417961120605, 21.293832778930664, 22.878698348999023, 
93, 758849605, -179.9302520751953, -79.77018737792969, 24.107311248779297, 13.0289945602417, 3.1261725425720215, 0.9905206561088562, -23.114395141601562, 16.00064468383789, 25.433399200439453, 
94, 758866272, -177.2764434814453, -79.9033203125, 21.04767608642578, 12.94279956817627, 2.0151102542877197, -0.5282018184661865, -21.72617530822754, 8.717691421508789, 29.799522399902344, 
95, 758882939, -173.8582305908203, -80.05078887939453, 17.40331268310547, 11.850727081298828, 2.078599691390991, -0.963134765625, -10.460765838623047, 11.575750350952148, 35.066429138183594, 
96, 758899606, -169.91513061523438, -80.17202758789062, 13.228837013244629, 9.392382621765137, 2.1735517978668213, -1.2378203868865967, -10.362593650817871, 13.029041290283203, 39.56711959838867, 
97, 758916273, -166.15133666992188, -80.05638122558594, 9.070110321044922, 6.918457508087158, 3.2084248065948486, -1.0734241008758545, -20.16564178466797, 1.8597968816757202, 41.56477355957031, 
98, 758932940, -163.46475219726562, -79.61001586914062, 5.692471981048584, 5.811147212982178, 3.280472755432129, -2.7571587562561035, -38.417633056640625, -16.67161750793457, 40.044769287109375, 
99, 758949607, -162.3363800048828, -78.52383422851562, 3.3195114135742188, 6.683867454528809, 0.19755259156227112, -4.1354079246521, -72.17839813232422, -54.380558013916016, 43.75086975097656, 
100, 758966274, -161.57025146484375, -77.45059967041016, 0.38781070709228516, 9.070526123046875, -2.4343361854553223, -0.9011781811714172, -126.1579360961914, -49.65721893310547, 53.56013488769531, 
101, 758982941, -160.19874572753906, -77.0125961303711, -2.1474530696868896, 6.826696872711182, 2.8300960063934326, 0.5857252478599548, -66.1836929321289, -13.681432723999023, 39.03080749511719, 
102, 758999608, -161.4107666015625, -76.98414611816406, -2.529299736022949, 6.3665618896484375, 7.349323272705078, 0.6377689838409424, -95.10560607910156, 0.09409124404191971, 4.340069770812988, 
103, 759016275, -163.51910400390625, -77.41226196289062, -1.9770140647888184, 6.475654602050781, 1.0105574131011963, -0.1822749525308609, -94.13243103027344, 22.16297149658203, -15.245559692382812, 
104, 759032942, -165.78555297851562, -78.18805694580078, -0.3856620788574219, 7.262185573577881, 2.3630170822143555, -0.8202403783798218, -42.58555221557617, 39.34651184082031, -32.191036224365234, 
105, 759049609, -169.80787658691406, -79.27308654785156, 2.8256659507751465, 7.570849418640137, 3.672429323196411, -0.8427392244338989, -52.24575424194336, 55.40894317626953, -50.77763748168945, 
106, 759066276, -176.0408935546875, -80.4781265258789, 8.305866241455078, 7.928987979888916, 2.713644027709961, -1.1950178146362305, -50.09229278564453, 64.2991943359375, -66.18051147460938, 
107, 759082943, 174.39413452148438, -81.63855743408203, 17.230493545532227, 8.408193588256836, 2.3017823696136475, -1.9556362628936768, -44.67580795288086, 70.35303497314453, -81.89183807373047, 
108, 759099610, 160.06314086914062, -82.54849243164062, 31.030075073242188, 8.84366512298584, 2.120835304260254, -2.0301122665405273, -39.4349365234375, 77.78744506835938, -98.43790435791016, 
109, 759116277, 141.40940856933594, -82.84327697753906, 49.291717529296875, 8.82478141784668, 2.001786708831787, -2.1539225578308105, -32.044471740722656, 82.94083404541016, -111.97459411621094, 
110, 759132944, 122.68621063232422, -82.26908874511719, 67.73716735839844, 9.202107429504395, 1.25318443775177, -2.639925956726074, -25.608535766601562, 83.23898315429688, -120.29071044921875, 
111, 759149611, 108.59329986572266, -80.97158813476562, 81.87230682373047, 9.908818244934082, 0.1722356081008911, -3.5329854488372803, -6.205905914306641, 77.86658477783203, -122.4187240600586, 
112, 759166278, 99.47895050048828, -79.28411865234375, 91.51309967041016, 10.305598258972168, 0.12764783203601837, -4.955989837646484, 23.235090255737305, 72.0115966796875, -121.43326568603516, 
113, 759182945, 94.43892669677734, -77.45632934570312, 97.25248718261719, 9.955327033996582, 0.25631552934646606, -6.9804863929748535, 34.96139144897461, 56.32204818725586, -116.81693267822266, 
114, 759199612, 92.31808471679688, -75.73686981201172, 100.0436782836914, 9.205554962158203, -0.6208997964859009, -7.900990962982178, 35.568153381347656, 33.864097595214844, -105.1103515625, 
115, 759216279, 91.87335205078125, -74.21537780761719, 101.11880493164062, 7.929821968078613, -1.0790913105010986, -4.962742328643799, 35.34519958496094, 15.088436126708984, -91.96085357666016, 
116, 759232946, 91.98112487792969, -72.84378051757812, 101.48750305175781, 8.142847061157227, -0.6532194018363953, -2.567202091217041, 27.290103912353516, 5.524994373321533, -82.85843658447266, 
117, 759249613, 92.3514175415039, -71.61803436279297, 101.6561279296875, 8.608879089355469, -0.7961501479148865, -2.2559666633605957, 31.376052856445312, 2.458177328109741, -74.2527084350586, 
118, 759266280, 93.18417358398438, -70.5395736694336, 101.39082336425781, 8.972166061401367, -1.0506776571273804, -2.8678081035614014, 34.374183654785156, -6.024928092956543, -65.30219268798828, 
119, 759282947, 94.34056854248047, -69.61941528320312, 100.62228393554688, 9.254989624023438, -1.919621229171753, -2.5019237995147705, 25.399707794189453, -16.917810440063477, -55.279266357421875, 
120, 759299614, 95.70976257324219, -68.94376373291016, 99.42098999023438, 9.969067573547363, -2.5340261459350586, -1.0935580730438232, 14.02862548828125, -26.477380752563477, -39.729454040527344, 
121, 759316281, 97.07500457763672, -68.56727600097656, 98.21377563476562, 10.093884468078613, -1.3512721061706543, -0.6383154988288879, 13.653610229492188, -26.137958526611328, -21.522245407104492, 
122, 759332948, 98.12774658203125, -68.47705078125, 97.1540756225586, 5.13883638381958, 6.34926700592041, -5.423990249633789, 3.228466272354126, -21.37114143371582, -4.612610816955566, 
123, 759349615, 103.20195770263672, -68.59662628173828, 88.96871185302734, 12.157150268554688, -2.8435966968536377, 2.218536138534546, -153.5636444091797, -172.37722778320312, 38.2740478515625, 
124, 759366282, 97.62686920166016, -69.58125305175781, 89.97715759277344, 21.610300064086914, -7.626690864562988, 6.727331161499023, -278.8043518066406, 34.540061950683594, 51.888397216796875, 
125, 759382949, 94.74563598632812, -69.85933685302734, 96.82522583007812, 10.062996864318848, 16.36784553527832, 8.613764762878418, 211.9266815185547, 145.3358612060547, -2.062750816345215, 
126, 759399616, 92.00616455078125, -69.20978546142578, 98.84063720703125, 8.019011497497559, 19.026948928833008, 15.77777099609375, -51.42054748535156, 41.353363037109375, -43.82223129272461, 
127, 759416283, 91.68431091308594, -68.771484375, 95.3187026977539, 13.100011825561523, -3.1998302936553955, -2.039395332336426, -216.51983642578125, -76.058349609375, -25.16646385192871, 
128, 759432950, 92.40074920654297, -68.95236206054688, 92.49131774902344, 15.56220817565918, -8.921887397766113, -8.585966110229492, -115.25701141357422, -60.11857604980469, 11.161678314208984, 
129, 759449617, 92.11595153808594, -69.09952545166016, 94.01887512207031, 14.705323219299316, -2.0548758506774902, -2.6147096157073975, 68.24825286865234, 34.21492004394531, 4.701531887054443, 
130, 759466284, 90.77184295654297, -68.9593734741211, 95.9662857055664, 5.354800224304199, 5.699487686157227, 8.64070987701416, 28.169157028198242, 42.74526596069336, -12.768197059631348, 
131, 759482951, 92.67584991455078, -68.76535034179688, 94.0460205078125, 7.962642192840576, 6.002436637878418, -0.18259558081626892, 6.700884819030762, -41.26375198364258, -13.397031784057617, 
132, 759499618, 92.56168365478516, -68.62590026855469, 93.08423614501953, 7.636877536773682, 6.579650402069092, -4.183935165405273, -60.70815658569336, -20.68736457824707, -10.20756721496582, 
133, 759516285, 92.70455169677734, -68.54925537109375, 92.54633331298828, 9.033576965332031, 4.8494486808776855, -0.5243138670921326, -21.667110443115234, -11.059433937072754, -6.638479709625244, 
134, 759532952, 92.60784912109375, -68.451416015625, 92.3486557006836, 8.869797706604004, 3.1698861122131348, 0.13372893631458282, -17.044158935546875, -3.663414716720581, -8.150907516479492, 
135, 759549619, 92.58776092529297, -68.32154846191406, 92.15020751953125, 10.163832664489746, 2.5150840282440186, -0.027702728286385536, -12.471833229064941, -3.803694486618042, -10.077519416809082, 
136, 759566286, 92.50444030761719, -68.17951965332031, 91.87699127197266, 9.787954330444336, 3.278700113296509, 0.8398727774620056, -20.4273624420166, -5.534370422363281, -10.808098793029785, 
137, 759582953, 92.36370849609375, -68.04792785644531, 91.63602447509766, 9.94900894165039, 3.819713592529297, -0.10651072859764099, -22.041799545288086, -4.871021270751953, -10.240863800048828, 
138, 759599620, 92.30345153808594, -67.96282196044922, 91.57921600341797, 9.341139793395996, 4.195579528808594, 0.20091630518436432, -6.955015182495117, -0.638332724571228, -7.626286029815674, 
139, 759616287, 92.54861450195312, -67.9521713256836, 91.38321685791016, 8.705133438110352, 4.914141654968262, 0.34672313928604126, 3.6355884075164795, -3.6166164875030518, -2.9828298091888428, 
140, 759632954, 93.02369689941406, -68.03622436523438, 90.98815155029297, 8.671937942504883, 5.17857027053833, 0.8338626623153687, 6.366940975189209, -7.834082126617432, 3.038032054901123, 
141, 759649621, 93.67428588867188, -68.17544555664062, 90.36337280273438, 9.047012329101562, 4.239784240722656, 0.446614533662796, 4.115701198577881, -12.731685638427734, 6.8417134284973145, 
142, 759666288, 94.45719146728516, -68.34852600097656, 89.78752136230469, 9.064767837524414, 3.7126593589782715, 0.12116559594869614, 14.756022453308105, -11.334589958190918, 9.006103515625, 
143, 759682955, 95.36321258544922, -68.53453826904297, 89.2108154296875, 8.858485221862793, 3.8294408321380615, 0.178329735994339, 22.052032470703125, -11.051124572753906, 9.973448753356934, 
144, 759699622, 96.29946899414062, -68.71717834472656, 88.57673645019531, 8.736339569091797, 3.9915761947631836, 0.11978639662265778, 20.639204025268555, -12.051739692687988, 10.10390853881836, 
145, 759716289, 97.22187042236328, -68.8880386352539, 87.85944366455078, 8.701241493225098, 3.748924493789673, -0.06954120099544525, 15.113715171813965, -13.649020195007324, 9.858416557312012, 
146, 759732956, 98.11174774169922, -69.04671478271484, 87.13980102539062, 8.856290817260742, 3.89239239692688, -0.16276569664478302, 12.991005897521973, -13.511847496032715, 9.386345863342285, 
147, 759749623, 98.91043090820312, -69.18276977539062, 86.39472961425781, 8.986489295959473, 3.8235509395599365, -0.12929528951644897, 6.0633320808410645, -13.992834091186523, 8.355836868286133, 
148, 759766290, 99.6550521850586, -69.29285430908203, 85.67266082763672, 9.162689208984375, 3.3323447704315186, -0.30187416076660156, 4.076809883117676, -13.553306579589844, 6.959675312042236, 
149, 759782957, 100.42752838134766, -69.376220703125, 84.99214172363281, 9.074457168579102, 3.2583391666412354, -0.2529025971889496, 8.059394836425781, -12.796114921569824, 5.405417442321777, 
150, 759799624, 101.2557373046875, -69.44068145751953, 84.26689910888672, 9.017595291137695, 3.392080068588257, -0.36780592799186707, 8.87874698638916, -13.804298400878906, 4.6481781005859375, 
151, 759816291, 102.06075286865234, -69.4990463256836, 83.52885437011719, 9.112396240234375, 3.637991189956665, -0.1891249716281891, 6.752519130706787, -14.018854141235352, 4.555536270141602, 
152, 759832958, 102.92208862304688, -69.57035064697266, 82.74310302734375, 9.34709644317627, 3.8509857654571533, -0.42952850461006165, 7.438812732696533, -14.714384078979492, 5.761141300201416, 
153, 759849625, 103.74071502685547, -69.66546630859375, 81.9491195678711, 9.215951919555664, 4.092493534088135, -0.2951836585998535, 4.393050193786621, -14.390484809875488, 7.434177875518799, 
154, 759866292, 104.58168029785156, -69.78324127197266, 81.09214782714844, 9.102096557617188, 4.134219646453857, -0.4986783564090729, 2.170236825942993, -15.133780479431152, 9.319607734680176, 
155, 759882959, 105.42733001708984, -69.92680358886719, 80.19575500488281, 9.046627044677734, 4.0302228927612305, -0.4497508704662323, 0.20230858027935028, -15.258399963378906, 11.281737327575684, 
156, 759899626, 106.28205871582031, -70.08183288574219, 79.2516860961914, 9.022974967956543, 3.7569661140441895, -0.5663325190544128, -1.9769446849822998, -15.705178260803223, 12.462217330932617, 
157, 759916293, 107.1692886352539, -70.23236846923828, 78.33793640136719, 9.143836975097656, 3.19000244140625, -0.7145034074783325, 1.6348671913146973, -14.850595474243164, 12.27138614654541, 
158, 759932960, 108.03374481201172, -70.36604309082031, 77.58545684814453, 9.218981742858887, 3.178363084793091, -0.7961888909339905, 9.331825256347656, -11.721922874450684, 10.523560523986816, 
159, 759949627, 108.7895736694336, -70.47403717041016, 76.97109985351562, 9.205127716064453, 3.106934070587158, -0.9501380920410156, 10.601625442504883, -9.322596549987793, 8.331671714782715, 
160, 759966294, 109.42376708984375, -70.55828094482422, 76.51631164550781, 9.290096282958984, 2.9429759979248047, -1.0758522748947144, 12.296172142028809, -6.598233699798584, 6.048987865447998, 
161, 759982961, 109.90595245361328, -70.62269592285156, 76.22230529785156, 9.349350929260254, 2.9601728916168213, -0.9829960465431213, 12.26562786102295, -3.8727834224700928, 3.9003236293792725, 
162, 759999628, 110.20738220214844, -70.66183471679688, 76.11359405517578, 9.354413032531738, 2.824946641921997, -1.0019513368606567, 11.906472206115723, -0.8854313492774963, 1.2332711219787598, 
163, 760016295, 110.41500854492188, -70.67597198486328, 76.16548919677734, 9.275975227355957, 2.730215549468994, -1.1266436576843262, 15.368778228759766, 1.5943470001220703, -1.2827234268188477, 
164, 760032962, 110.53761291503906, -70.67426300048828, 76.31543731689453, 9.380073547363281, 3.1814355850219727, -1.030380129814148, 15.814621925354004, 3.0853021144866943, -2.8680615425109863, 
165, 760049629, 110.39861297607422, -70.66217041015625, 76.59127044677734, 9.185317993164062, 3.3194310665130615, -0.8086892366409302, 7.255612850189209, 5.2056097984313965, -4.316740036010742, 
166, 760066296, 110.18785095214844, -70.63495635986328, 76.9222640991211, 9.121953010559082, 3.148118019104004, -0.9587540626525879, 6.0720109939575195, 5.91935920715332, -5.505809783935547, 
167, 760082963, 110.02151489257812, -70.60918426513672, 77.27588653564453, 9.154088973999023, 3.1807494163513184, -1.0785728693008423, 10.021775245666504, 6.386844158172607, -5.551223278045654, 
168, 760099630, 109.78318786621094, -70.59818267822266, 77.67536163330078, 9.168803215026855, 3.7143075466156006, -0.7184451222419739, 8.303915977478027, 7.570380210876465, -4.9970784187316895, 
169, 760116297, 109.46278381347656, -70.57984161376953, 78.0203628540039, 8.988707542419434, 3.8854079246520996, -0.2054491639137268, 0.3034017086029053, 6.405090808868408, -4.96915864944458, 
170, 760132964, 109.23077392578125, -70.53594207763672, 78.18856811523438, 8.940986633300781, 3.4700376987457275, -0.24093687534332275, -4.3714094161987305, 2.554028272628784, -5.161036491394043, 
171, 760149631, 109.30572509765625, -70.50485229492188, 78.1929931640625, 9.097527503967285, 3.5255279541015625, -0.6585834622383118, 4.801093578338623, -0.31246212124824524, -3.320737600326538, 
172, 760166298, 109.4109878540039, -70.48458099365234, 78.05207061767578, 8.75684642791748, 4.182211875915527, -0.20420488715171814, -1.598693609237671, -2.8617968559265137, -1.7069201469421387, 
173, 760182965, 109.75521850585938, -70.46617126464844, 77.67652130126953, 8.984611511230469, 3.7979276180267334, -0.34778115153312683, -0.4989865720272064, -7.292460918426514, 0.06388447433710098, 
174, 760199632, 110.35688018798828, -70.46874237060547, 77.1235122680664, 9.040111541748047, 3.592228651046753, -0.5848605632781982, 4.934743404388428, -10.22433853149414, 2.576209783554077, 
175, 760216299, 111.05348205566406, -70.48241424560547, 76.60900115966797, 9.125448226928711, 3.7131474018096924, -0.8981060981750488, 12.813102722167969, -9.238546371459961, 3.0811781883239746, 
176, 760232966, 111.63108825683594, -70.5103759765625, 76.11202239990234, 9.103682518005371, 3.9627575874328613, -0.8853020668029785, 6.672591209411621, -8.543965339660645, 3.889860153198242, 
177, 760249633, 112.13443756103516, -70.54167175292969, 75.6517333984375, 9.305567741394043, 4.0272321701049805, -0.4470490515232086, 4.2967305183410645, -7.730170726776123, 3.932389259338379, 
178, 760266300, 112.66685485839844, -70.57103729248047, 75.1552505493164, 9.220027923583984, 3.409229040145874, -1.069591999053955, 4.01041841506958, -8.414325714111328, 4.221851348876953, 
179, 760282967, 113.13629150390625, -70.61998748779297, 74.75591278076172, 9.115785598754883, 3.4518001079559326, -1.0291332006454468, 5.724740505218506, -6.108130931854248, 4.641233921051025, 
180, 760299634, 113.6117935180664, -70.66435241699219, 74.30239868164062, 9.048073768615723, 3.5444858074188232, -0.815169095993042, 3.0262625217437744, -7.1467132568359375, 4.881493091583252, 
181, 760316301, 114.08668518066406, -70.7095718383789, 73.83457946777344, 9.155655860900879, 3.4012813568115234, -1.0524612665176392, 2.179506778717041, -7.329703330993652, 5.133049011230469, 
182, 760332968, 114.57380676269531, -70.75877380371094, 73.42198181152344, 9.110922813415527, 3.318661689758301, -1.139907717704773, 6.036434650421143, -6.168487548828125, 4.979129314422607, 
183, 760349635, 115.03907775878906, -70.80854797363281, 73.06584167480469, 8.805746078491211, 3.3162622451782227, -1.1959846019744873, 7.922952175140381, -5.073774337768555, 4.605555057525635, 
184, 760366302, 115.45111083984375, -70.83982849121094, 72.76319885253906, 8.617097854614258, 3.216522216796875, -1.2496564388275146, 7.757313251495361, -4.532257556915283, 3.214169979095459, 
185, 760382969, 115.73374938964844, -70.84992980957031, 72.55880737304688, 9.023260116577148, 3.113314390182495, -1.131249189376831, 5.558884620666504, -3.297699451446533, 1.283471703529358, 
186, 760399636, 115.92481231689453, -70.84716796875, 72.44081115722656, 9.576173782348633, 2.713966131210327, -1.6654635667800903, 4.975594520568848, -2.0982441902160645, -0.12952344119548798, 
187, 760416303, 115.76183319091797, -70.86175537109375, 72.65534210205078, 9.383273124694824, 2.9665169715881348, -1.3011865615844727, 2.56518292427063, 4.262357234954834, -2.0578014850616455, 
188, 760432970, 115.5457534790039, -70.86090850830078, 72.9240951538086, 9.18094539642334, 3.123978614807129, -1.1947184801101685, 2.4508349895477295, 4.825311660766602, -3.339768409729004, 
189, 760449637, 115.26311492919922, -70.86235046386719, 73.2066879272461, 9.244580268859863, 3.580528974533081, -1.1516101360321045, -0.753557562828064, 5.1382527351379395, -3.300445556640625, 
190, 760466304, 114.96121215820312, -70.8875732421875, 73.500244140625, 9.319011688232422, 3.785322666168213, -1.062188982963562, -1.276537299156189, 5.943972587585449, -2.0393989086151123, 
191, 760482971, 114.73036193847656, -70.93756866455078, 73.74651336669922, 9.034125328063965, 3.718592643737793, -0.9699492454528809, 0.33020535111427307, 5.715775489807129, -0.23299875855445862, 
192, 760499638, 114.63471221923828, -71.00408172607422, 73.89353942871094, 8.967049598693848, 3.7164406776428223, -0.7765228748321533, 2.8096046447753906, 4.344778537750244, 1.555440068244934, 
193, 760516305, 114.65185546875, -71.07599639892578, 73.92041778564453, 8.952530860900879, 3.680584192276001, -0.8159486651420593, 2.7825064659118652, 2.3235909938812256, 2.875570058822632, 
194, 760532972, 114.74857330322266, -71.15510559082031, 73.845703125, 9.002700805664062, 3.397724151611328, -0.9566138982772827, 1.8062909841537476, 0.6990794539451599, 4.131143569946289, 
195, 760549639, 114.91063690185547, -71.24063110351562, 73.73763275146484, 9.098464012145996, 3.452784776687622, -1.0167489051818848, 3.8335230350494385, 0.2857288718223572, 4.778017044067383, 
196, 760566306, 115.06102752685547, -71.33844757080078, 73.6379165649414, 9.09972095489502, 3.454028606414795, -1.0583267211914062, 3.6148111820220947, 0.7626182436943054, 5.399209499359131, 
197, 760582973, 115.17373657226562, -71.44058990478516, 73.55239868164062, 9.016119956970215, 3.579380989074707, -0.9485043287277222, 2.1636135578155518, 1.1382602453231812, 5.542197227478027, 
198, 760599640, 115.23091888427734, -71.53197479248047, 73.45488739013672, 9.120758056640625, 3.3035616874694824, -1.0844060182571411, -1.8532711267471313, 0.6677806973457336, 5.093104839324951, 
199, 760616307, 115.19860076904297, -71.62724304199219, 73.46452331542969, 9.253700256347656, 3.1149487495422363, -1.1611080169677734, -1.1194032430648804, 2.6098642349243164, 4.453492641448975, 
200, 760632974, 115.0998764038086, -71.71832275390625, 73.53923034667969, 9.175830841064453, 3.059079647064209, -1.0162335634231567, -1.3947908878326416, 3.607836961746216, 3.717561960220337, 
201, 760649641, 114.98267364501953, -71.80793762207031, 73.63557434082031, 9.09398078918457, 3.3255021572113037, -0.9356618523597717, -1.262334942817688, 3.9175848960876465, 3.483846426010132, 
202, 760666308, 114.93850708007812, -71.89842224121094, 73.6756591796875, 9.148907661437988, 3.427914619445801, -0.8332884907722473, -0.08103858679533005, 2.9656882286071777, 4.009904861450195, 
203, 760682975, 114.92772674560547, -71.99781799316406, 73.69157409667969, 9.17884635925293, 3.497260570526123, -0.7248619794845581, 0.5476827621459961, 2.7668826580047607, 4.721246719360352, 
204, 760699642, 114.98103332519531, -72.09913635253906, 73.62393188476562, 9.133313179016113, 3.498096227645874, -0.7228689789772034, -0.35859063267707825, 1.3984214067459106, 5.507607460021973, 
205, 760716309, 115.10433197021484, -72.19877624511719, 73.47631072998047, 9.11756420135498, 3.2893826961517334, -0.7942861914634705, -0.7176038026809692, 0.02107284963130951, 6.067193984985352, 
206, 760732976, 115.31820678710938, -72.30907440185547, 73.29991912841797, 9.156489372253418, 3.4932072162628174, -0.8174503445625305, 3.0681138038635254, -0.16006658971309662, 6.892461776733398, 
207, 760749643, 115.54459381103516, -72.42820739746094, 73.03923797607422, 9.071276664733887, 3.401671886444092, -0.9067323207855225, -0.9862940311431885, -1.2810707092285156, 8.049657821655273, 
208, 760766310, 115.79750061035156, -72.54612731933594, 72.74201965332031, 9.137885093688965, 3.308621644973755, -0.8976132273674011, -1.5025821924209595, -1.8487762212753296, 8.300405502319336, 
209, 760782977, 116.11961364746094, -72.66598510742188, 72.44932556152344, 9.166238784790039, 3.1043522357940674, -1.0615124702453613, 2.9127535820007324, -1.6563160419464111, 8.38365364074707, 
210, 760799644, 116.39752960205078, -72.7877426147461, 72.21002960205078, 9.187631607055664, 3.1043665409088135, -1.0340665578842163, 3.3105697631835938, -0.676425039768219, 8.075389862060547, 
211, 760816311, 116.61455535888672, -72.90586853027344, 71.98829650878906, 9.236807823181152, 3.0861971378326416, -0.9456245303153992, 0.6535529494285583, -0.43482688069343567, 7.75119161605835, 
212, 760832978, 116.86284637451172, -73.01799774169922, 71.74860382080078, 9.273636817932129, 3.0188024044036865, -0.901340126991272, 1.4998093843460083, -0.8288142681121826, 7.577447891235352, 
213, 760849645, 117.12603759765625, -73.12700653076172, 71.5101547241211, 9.236841201782227, 2.990865707397461, -0.9253087639808655, 2.462642192840576, -0.8450784087181091, 7.406303882598877, 
214, 760866312, 117.40966796875, -73.23460388183594, 71.25614166259766, 9.202496528625488, 3.1351382732391357, -0.8839392066001892, 2.7851059436798096, -1.0721733570098877, 7.463804721832275, 
215, 760882979, 117.73832702636719, -73.33784484863281, 70.95260620117188, 9.156181335449219, 3.142157554626465, -0.8402298092842102, 2.643096923828125, -1.892817735671997, 7.642684459686279, 
216, 760899646, 118.1392593383789, -73.43773651123047, 70.58341979980469, 9.150103569030762, 3.090437889099121, -0.9487102627754211, 3.1974196434020996, -2.9129843711853027, 8.017333984375, 
217, 760916313, 118.56466674804688, -73.53827667236328, 70.19955444335938, 9.186895370483398, 3.0665221214294434, -0.9891853928565979, 3.8242647647857666, -3.0292272567749023, 8.190513610839844, 
218, 760932980, 119.01004791259766, -73.63399505615234, 69.78115844726562, 9.255138397216797, 3.0838992595672607, -0.9101139903068542, 3.0222158432006836, -3.5869696140289307, 8.247912406921387, 
219, 760949647, 119.45955657958984, -73.72830200195312, 69.3584213256836, 9.340304374694824, 2.9809763431549072, -0.9920397996902466, 3.017746686935425, -3.6001219749450684, 8.239729881286621, 
220, 760966314, 119.9179916381836, -73.8276138305664, 68.9518051147461, 9.350478172302246, 3.007112741470337, -1.0145633220672607, 4.478927135467529, -3.1204733848571777, 8.388809204101562, 
221, 760982981, 120.38346862792969, -73.92478942871094, 68.52978515625, 9.251211166381836, 2.9250102043151855, -0.9581495523452759, 4.00013542175293, -3.30629301071167, 8.434258460998535, 
222, 760999648, 120.9121322631836, -74.01310729980469, 68.06572723388672, 9.216954231262207, 2.804394006729126, -1.0143916606903076, 5.365242004394531, -4.0755462646484375, 8.354732513427734, 
223, 761016315, 121.45703125, -74.09613037109375, 67.60553741455078, 9.349726676940918, 2.9043545722961426, -1.068327784538269, 6.55044412612915, -4.075558185577393, 8.083235740661621, 
224, 761032982, 122.01224517822266, -74.17825317382812, 67.14120483398438, 9.279685974121094, 2.828014373779297, -1.0883840322494507, 6.927873134613037, -4.054965496063232, 8.10655689239502, 
225, 761049649, 122.58155822753906, -74.25694274902344, 66.68257904052734, 9.227378845214844, 2.7982747554779053, -1.087113857269287, 8.098528861999512, -3.9756312370300293, 7.915180206298828, 
226, 761066316, 123.17303466796875, -74.32845306396484, 66.2034912109375, 9.168915748596191, 2.8180480003356934, -1.124792456626892, 8.234827041625977, -4.379543304443359, 7.773721218109131, 
227, 761082983, 123.79159545898438, -74.39469146728516, 65.68310546875, 9.174296379089355, 2.8612735271453857, -1.0200062990188599, 7.465855121612549, -5.002508163452148, 7.923964500427246, 
228, 761099650, 124.44559478759766, -74.4542236328125, 65.11161041259766, 9.279353141784668, 2.825562000274658, -1.1664793491363525, 6.640049934387207, -5.799984931945801, 8.106826782226562, 
229, 761116317, 125.02517700195312, -74.51766204833984, 64.60920715332031, 9.427387237548828, 2.765817880630493, -1.1758639812469482, 6.17356014251709, -4.640331745147705, 7.7225141525268555, 
230, 761132984, 125.6077651977539, -74.58647155761719, 64.13018035888672, 9.477344512939453, 2.7828547954559326, -1.265053629875183, 7.687694072723389, -4.042704105377197, 7.819713592529297, 
231, 761149651, 126.14310455322266, -74.66364288330078, 63.681480407714844, 9.32426643371582, 2.9142379760742188, -1.1298657655715942, 6.607470512390137, -3.255836248397827, 7.972077369689941, 
232, 761166318, 126.70849609375, -74.73554229736328, 63.179107666015625, 9.327906608581543, 2.7366409301757812, -1.1992300748825073, 5.293436050415039, -4.024921894073486, 8.26223087310791, 
233, 761182985, 127.29979705810547, -74.8067626953125, 62.67654800415039, 9.285223007202148, 2.6076674461364746, -1.1952322721481323, 6.838818073272705, -3.944638729095459, 8.263075828552246, 
234, 761199652, 127.92498016357422, -74.868408203125, 62.16836929321289, 9.218127250671387, 2.573272466659546, -1.1995867490768433, 8.545034408569336, -4.255488395690918, 7.892295837402344, 
235, 761216319, 128.5587158203125, -74.91783142089844, 61.6508674621582, 9.301106452941895, 2.5653016567230225, -1.254568099975586, 8.514389038085938, -4.718143463134766, 7.447850227355957, 
236, 761232986, 129.16416931152344, -74.96053314208984, 61.17346954345703, 9.44231128692627, 2.4819698333740234, -1.3146589994430542, 9.129172325134277, -4.384986400604248, 6.793663501739502, 
237, 761249653, 129.71728515625, -75.00199127197266, 60.75611877441406, 9.410895347595215, 2.4210798740386963, -1.4080699682235718, 9.470287322998047, -3.629685878753662, 6.179169178009033, 
238, 761266320, 130.2236328125, -75.03485870361328, 60.389678955078125, 9.325372695922852, 2.455010175704956, -1.3948314189910889, 9.618167877197266, -3.2859439849853516, 5.303783893585205, 
239, 761282987, 130.68052673339844, -75.06287384033203, 60.07698440551758, 9.365979194641113, 2.478102445602417, -1.4042181968688965, 9.75840950012207, -2.783268928527832, 4.576241493225098, 
240, 761299654, 131.0722198486328, -75.08602142333984, 59.80225372314453, 9.338494300842285, 2.485015869140625, -1.4161301851272583, 8.044342994689941, -2.490861654281616, 3.9972667694091797, 
241, 761316321, 131.4194793701172, -75.10838317871094, 59.561683654785156, 9.332595825195312, 2.4997498989105225, -1.389522671699524, 7.369229316711426, -2.0951576232910156, 3.63450026512146, 
242, 761332988, 131.70455932617188, -75.12617492675781, 59.349735260009766, 9.333148956298828, 2.4520223140716553, -1.372596025466919, 5.291859149932861, -1.9227582216262817, 3.1617534160614014, 
243, 761349655, 131.9855194091797, -75.13518524169922, 59.147186279296875, 9.366999626159668, 2.395897150039673, -1.3969228267669678, 5.594435691833496, -2.1491878032684326, 2.6909539699554443, 
244, 761366322, 132.25636291503906, -75.14122009277344, 58.95713424682617, 9.375325202941895, 2.364868640899658, -1.4016438722610474, 5.721282958984375, -2.1148667335510254, 2.44348406791687, 
245, 761382989, 132.5406951904297, -75.14806365966797, 58.7799186706543, 9.418920516967773, 2.5106041431427, -1.399641513824463, 7.262040615081787, -1.921260118484497, 2.371332883834839, 
246, 761399656, 132.80055236816406, -75.16316223144531, 58.602108001708984, 9.371650695800781, 2.653168201446533, -1.3704159259796143, 5.771341800689697, -1.583620548248291, 2.75989031791687, 
247, 761416323, 133.10171508789062, -75.17591857910156, 58.382728576660156, 9.278746604919434, 2.530719041824341, -1.45131516456604, 5.846977710723877, -2.134934186935425, 3.115741014480591, 
248, 761432990, 133.4073486328125, -75.19204711914062, 58.16223907470703, 9.285906791687012, 2.517880439758301, -1.4613887071609497, 6.052313327789307, -1.9896074533462524, 3.3017780780792236, 
249, 761449657, 133.7113800048828, -75.20637512207031, 57.93285369873047, 9.310514450073242, 2.370044469833374, -1.479142665863037, 5.432256698608398, -2.1411454677581787, 3.3432838916778564, 
250, 761466324, 133.97328186035156, -75.22589111328125, 57.73786926269531, 9.349913597106934, 2.351616621017456, -1.5875389575958252, 4.915826797485352, -1.5300770998001099, 3.2135424613952637, 
251, 761482991, 134.17138671875, -75.25431823730469, 57.58620834350586, 9.33381175994873, 2.477419137954712, -1.5962870121002197, 3.5903944969177246, -0.6582080125808716, 3.1536083221435547, 
252, 761499658, 134.31394958496094, -75.28742980957031, 57.44648742675781, 9.305943489074707, 2.565969705581665, -1.5321707725524902, 0.95460444688797, -0.31727728247642517, 3.2379252910614014, 
253, 761516325, 134.40896606445312, -75.32604217529297, 57.326419830322266, 9.658976554870605, 2.3559353351593018, -1.5348784923553467, -0.7537432909011841, 0.1392882615327835, 3.278111457824707, 
254, 761532992, 134.46432495117188, -75.3915023803711, 57.31915283203125, 9.359455108642578, 2.2329938411712646, -1.654137372970581, 3.4058685302734375, 2.496976137161255, 3.2372987270355225, 
255, 761549659, 134.57763671875, -75.44937896728516, 57.26872634887695, 9.353590965270996, 2.45878005027771, -1.3198126554489136, 4.382659435272217, 1.7224220037460327, 3.366731882095337, 
256, 761566326, 134.74742126464844, -75.50703430175781, 57.13353729248047, 9.138776779174805, 2.585170269012451, -1.2617567777633667, 2.841799736022949, 0.8111990690231323, 4.265789031982422, 
257, 761582993, 135.02015686035156, -75.54635620117188, 56.84680938720703, 9.135590553283691, 2.5982234477996826, -1.2663849592208862, 0.22989320755004883, -1.5649616718292236, 5.098150730133057, 
258, 761599660, 135.35440063476562, -75.58194732666016, 56.468868255615234, 9.44123649597168, 2.5252277851104736, -1.4600051641464233, -1.3822789192199707, -2.657484292984009, 5.933009147644043, 
259, 761616327, 135.67543029785156, -75.63724517822266, 56.1075439453125, 9.441676139831543, 2.423596143722534, -1.5451912879943848, -1.2068449258804321, -1.6024715900421143, 6.598773956298828, 
260, 761632994, 135.94447326660156, -75.69161224365234, 55.785850524902344, 9.24926471710205, 2.2984323501586914, -1.6215006113052368, -2.0319771766662598, -1.1824936866760254, 6.147752285003662, 
261, 761649661, 136.1253204345703, -75.73847198486328, 55.551387786865234, 9.465270042419434, 1.9266841411590576, -1.8237667083740234, -2.250383138656616, -0.5759528279304504, 4.902009010314941, 
262, 761666328, 136.13995361328125, -75.81329345703125, 55.567317962646484, 9.49274730682373, 1.8778759241104126, -1.8942838907241821, 2.328867197036743, 3.221853733062744, 3.388413190841675, 
263, 761682995, 136.02572631835938, -75.8987808227539, 55.73847579956055, 9.413949012756348, 2.2177927494049072, -1.5197995901107788, 3.617595672607422, 5.2703704833984375, 2.189354658126831, 
264, 761699662, 135.87184143066406, -75.97962951660156, 55.87739562988281, 9.364945411682129, 2.5418033599853516, -1.2633838653564453, -0.6406120657920837, 4.734463214874268, 2.3686304092407227, 
265, 761716329, 135.8094940185547, -76.0411148071289, 55.863624572753906, 9.298333168029785, 2.3958613872528076, -1.2223622798919678, -4.022871971130371, 2.3342714309692383, 3.1778383255004883, 
266, 761732996, 135.8970489501953, -76.08738708496094, 55.73861312866211, 9.32363224029541, 2.303544759750366, -1.2981810569763184, -1.4963581562042236, 0.5530359148979187, 3.7087769508361816, 
267, 761749663, 136.06088256835938, -76.13191223144531, 55.58940505981445, 9.363750457763672, 2.310529947280884, -1.4470241069793701, 1.6633976697921753, 0.2401510775089264, 3.8945200443267822, 
268, 761766330, 136.1774444580078, -76.18148040771484, 55.472835540771484, 9.370747566223145, 2.3206632137298584, -1.4377175569534302, 0.7274072170257568, 0.7984824776649475, 3.772526979446411, 
269, 761782997, 136.26930236816406, -76.22712707519531, 55.34575653076172, 9.411791801452637, 2.188904285430908, -1.4171005487442017, -1.369274377822876, 0.528454065322876, 3.7213211059570312, 
270, 761799664, 136.32882690429688, -76.27135467529297, 55.255165100097656, 9.437676429748535, 2.192124128341675, -1.420777440071106, -1.1715441942214966, 0.8336549997329712, 3.283855676651001, 
271, 761816331, 136.36012268066406, -76.31129455566406, 55.183143615722656, 9.462017059326172, 2.2422447204589844, -1.490946888923645, -1.7778992652893066, 0.8374969363212585, 2.921013355255127, 
272, 761832998, 136.32589721679688, -76.36028289794922, 55.167755126953125, 9.404017448425293, 2.1977548599243164, -1.5035593509674072, -2.426509141921997, 1.7814340591430664, 2.722470283508301, 
273, 761849665, 136.3023223876953, -76.40396118164062, 55.168373107910156, 9.350525856018066, 2.1826581954956055, -1.4714150428771973, -0.8559637069702148, 1.7090779542922974, 2.347115993499756, 
274, 761866332, 136.2452392578125, -76.4482650756836, 55.221797943115234, 9.42967414855957, 2.1593894958496094, -1.5535999536514282, 0.20218025147914886, 2.2468550205230713, 1.8439030647277832, 
275, 761882999, 136.1197509765625, -76.50130462646484, 55.379058837890625, 9.414872169494629, 2.011991024017334, -1.679914116859436, 2.1769001483917236, 3.6381049156188965, 1.1628421545028687, 
276, 761899666, 135.91993713378906, -76.56246185302734, 55.67130661010742, 9.391800880432129, 2.069194793701172, -1.5529946088790894, 5.576289653778076, 5.299134254455566, 0.16481134295463562, 
277, 761916333, 135.70399475097656, -76.62057495117188, 56.00370407104492, 9.355749130249023, 2.209537982940674, -1.4214227199554443, 6.966893196105957, 5.558463096618652, -0.3271639049053192, 
278, 761933000, 135.4960174560547, -76.67658996582031, 56.322975158691406, 9.372329711914062, 2.192621946334839, -1.3966411352157593, 6.726966381072998, 5.339397430419922, -0.2508252263069153, 
279, 761949667, 135.33306884765625, -76.72588348388672, 56.60972595214844, 9.368249893188477, 2.216305732727051, -1.408791422843933, 7.488533973693848, 4.7251410484313965, -0.1659703254699707, 
280, 761966334, 135.20263671875, -76.76689147949219, 56.8692741394043, 9.303733825683594, 2.069410562515259, -1.4152039289474487, 7.843429088592529, 4.10236120223999, -0.21980182826519012, 
281, 761983001, 135.1263427734375, -76.80146026611328, 57.10268020629883, 9.412426948547363, 2.1444520950317383, -1.3204371929168701, 9.673887252807617, 3.598092555999756, -0.23293477296829224, 
282, 761999668, 135.06581115722656, -76.83052062988281, 57.32464599609375, 9.542946815490723, 2.237664222717285, -1.2459608316421509, 9.777351379394531, 3.214439868927002, -0.3147289454936981, 
283, 762016335, 134.97866821289062, -76.86121368408203, 57.537418365478516, 9.558820724487305, 2.394440174102783, -1.2113853693008423, 7.661612033843994, 3.1977782249450684, -0.13769391179084778, 
284, 762033002, 134.9248046875, -76.88992309570312, 57.66993713378906, 9.370734214782715, 2.433635711669922, -1.2623205184936523, 5.0448760986328125, 2.341212034225464, 0.5595287084579468, 
285, 762049669, 134.93296813964844, -76.91498565673828, 57.71126174926758, 9.38759994506836, 2.407747268676758, -1.3047089576721191, 3.3678717613220215, 1.2936526536941528, 1.311684012413025, 
286, 762066336, 134.99945068359375, -76.94204711914062, 57.693206787109375, 9.454344749450684, 2.3896965980529785, -1.2531957626342773, 3.257096529006958, 0.7909265756607056, 2.007120132446289, 
287, 762083003, 135.129638671875, -76.97297668457031, 57.62454605102539, 9.356003761291504, 2.231280565261841, -1.3340802192687988, 3.9043684005737305, 0.4332965314388275, 2.700866222381592, 
288, 762099670, 135.36688232421875, -77.0024642944336, 57.4619026184082, 9.281368255615234, 2.2725470066070557, -1.2567392587661743, 5.62782096862793, -0.389556348323822, 3.415562391281128, 
289, 762116337, 135.69227600097656, -77.02425384521484, 57.196815490722656, 9.311217308044434, 2.322176218032837, -1.2145172357559204, 4.731107711791992, -1.696815848350525, 4.121551036834717, 
290, 762133004, 136.0816650390625, -77.0384521484375, 56.87344741821289, 9.368379592895508, 2.3077948093414307, -1.2936110496520996, 5.1212592124938965, -2.5607128143310547, 4.390247821807861, 
291, 762149671, 136.47274780273438, -77.05397033691406, 56.53794479370117, 9.40413761138916, 2.3009116649627686, -1.2600761651992798, 4.373401165008545, -2.6041717529296875, 4.614455223083496, 
292, 762166338, 136.9210662841797, -77.07121276855469, 56.14516067504883, 9.457797050476074, 2.2085013389587402, -1.4522619247436523, 4.523273468017578, -3.021031379699707, 5.257078647613525, 
293, 762183005, 137.3511505126953, -77.09562683105469, 55.74900817871094, 9.459086418151855, 2.2260985374450684, -1.3485534191131592, 2.730903148651123, -2.768125057220459, 5.688197135925293, 
294, 762199672, 137.8247833251953, -77.112060546875, 55.32747268676758, 9.51574993133545, 2.1302330493927, -1.395577311515808, 3.868901252746582, -3.301676034927368, 5.641966342926025, 
295, 762216339, 138.29000854492188, -77.13243865966797, 54.8734245300293, 9.453145027160645, 2.2019875049591064, -1.32035493850708, 0.9127854108810425, -3.452784299850464, 6.239368915557861, 
296, 762233006, 138.81109619140625, -77.14425659179688, 54.357704162597656, 9.413705825805664, 2.0217249393463135, -1.443041443824768, 2.5584018230438232, -4.057333946228027, 6.222734451293945, 
297, 762249673, 139.33041381835938, -77.15972137451172, 53.89960479736328, 9.375333786010742, 2.1240482330322266, -1.532904863357544, 4.4413652420043945, -3.531057357788086, 6.056732654571533, 
298, 762266340, 139.85606384277344, -77.1755142211914, 53.4134635925293, 9.43940258026123, 2.1565639972686768, -1.5081946849822998, 3.8757212162017822, -3.606294631958008, 6.261749744415283, 
299, 762283007, 140.28404235839844, -77.19615936279297, 52.98942184448242, 9.437529563903809, 1.9377048015594482, -1.5411545038223267, 1.5333621501922607, -2.812889337539673, 5.866326808929443, 
300, 762299674, 140.72901916503906, -77.2120132446289, 52.58887481689453, 9.420903205871582, 1.808737874031067, -1.5418764352798462, 3.9279706478118896, -2.781731605529785, 5.460813522338867, 
301, 762316341, 141.1291961669922, -77.2264404296875, 52.24821853637695, 9.43785285949707, 1.8069883584976196, -1.6257737874984741, 5.229607582092285, -2.241239309310913, 4.71483039855957, 
302, 762333008, 141.42678833007812, -77.24324798583984, 52.03879165649414, 9.526481628417969, 1.869839072227478, -1.6069941520690918, 5.534053802490234, -1.1732923984527588, 3.668308973312378, 
303, 762349675, 141.62179565429688, -77.26335144042969, 51.901771545410156, 9.520536422729492, 1.9258263111114502, -1.5982990264892578, 5.201945781707764, -0.1899181753396988, 2.760735273361206, 
304, 762366342, 141.7301483154297, -77.29106140136719, 51.87006378173828, 9.49130630493164, 1.8994028568267822, -1.6082005500793457, 5.288337707519531, 0.9284411668777466, 2.110172986984253, 
305, 762383009, 141.75306701660156, -77.31903076171875, 51.92267608642578, 9.503432273864746, 1.8948662281036377, -1.5996052026748657, 5.000118732452393, 1.6219818592071533, 1.2627894878387451, 
306, 762399676, 141.69798278808594, -77.3533706665039, 52.06596755981445, 9.52787971496582, 1.8112664222717285, -1.6668684482574463, 5.785121917724609, 2.675983428955078, 0.5325842499732971, 
307, 762416343, 141.58840942382812, -77.3968505859375, 52.29985427856445, 9.48734188079834, 1.8900701999664307, -1.5947929620742798, 7.701056480407715, 3.8436288833618164, -0.021745188161730766, 
308, 762433010, 141.43357849121094, -77.4388656616211, 52.5885124206543, 9.438735961914062, 1.9341410398483276, -1.4988293647766113, 7.624499320983887, 4.1451416015625, -0.5185677409172058, 
309, 762449677, 141.22943115234375, -77.47796630859375, 52.90697479248047, 9.322511672973633, 1.8831617832183838, -1.5518704652786255, 6.933417320251465, 4.315311908721924, -0.9969233274459839, 
310, 762466344, 140.9759063720703, -77.51241302490234, 53.26665496826172, 9.2923583984375, 1.9253153800964355, -1.5812419652938843, 6.042984485626221, 4.40208101272583, -1.4959163665771484, 
311, 762483011, 140.66281127929688, -77.54341888427734, 53.627349853515625, 9.436883926391602, 2.0153493881225586, -1.4517221450805664, 2.378235340118408, 4.2314043045043945, -1.579458475112915, 
312, 762499678, 140.28213500976562, -77.56898498535156, 54.0093879699707, 9.583806037902832, 1.900856852531433, -1.4058476686477661, -1.0663591623306274, 4.0835676193237305, -1.8471626043319702, 
313, 762516345, 139.88052368164062, -77.59037780761719, 54.3778190612793, 9.526856422424316, 1.8950355052947998, -1.4164438247680664, -0.2895771861076355, 4.170689105987549, -2.315605878829956, 
314, 762533012, 139.50596618652344, -77.6027603149414, 54.79553985595703, 9.413530349731445, 2.0048248767852783, -1.3776618242263794, 0.8255677223205566, 3.718278646469116, -2.547183036804199, 
315, 762549679, 139.21238708496094, -77.60404968261719, 55.08726119995117, 9.44953441619873, 2.1093907356262207, -1.386415958404541, 1.3943617343902588, 2.603024959564209, -2.233337640762329, 
316, 762566346, 138.9704132080078, -77.60490417480469, 55.36093521118164, 9.603782653808594, 2.1775176525115967, -1.4166005849838257, 2.297696113586426, 2.2868621349334717, -1.864976167678833, 
317, 762583013, 138.7390899658203, -77.6172866821289, 55.641319274902344, 9.554893493652344, 2.1061642169952393, -1.5122566223144531, 3.105802297592163, 2.842465400695801, -1.4192253351211548, 
318, 762599680, 138.51199340820312, -77.64131927490234, 55.96993637084961, 9.425456047058105, 2.031888246536255, -1.5462688207626343, 4.4261369705200195, 3.5421531200408936, -1.109618902206421, 
319, 762616347, 138.30162048339844, -77.66706085205078, 56.264408111572266, 9.325682640075684, 2.039735794067383, -1.4068057537078857, 4.823620319366455, 3.528489112854004, -0.9206870198249817, 
320, 762633014, 138.12071228027344, -77.68496704101562, 56.50143051147461, 9.386380195617676, 2.0653374195098877, -1.4082715511322021, 3.549696207046509, 2.7419354915618896, -0.7139924764633179, 
321, 762649681, 137.94078063964844, -77.70066833496094, 56.63682174682617, 9.433685302734375, 2.0437941551208496, -1.3937263488769531, 2.217848539352417, 2.417384147644043, -0.5601625442504883, 
322, 762666348, 137.75511169433594, -77.71882629394531, 56.7708625793457, 9.38931655883789, 2.0766098499298096, -1.376410961151123, 0.38636118173599243, 2.3220410346984863, -0.20638713240623474, 
323, 762683015, 137.57923889160156, -77.73123168945312, 56.91249084472656, 9.374966621398926, 2.0844011306762695, -1.4342248439788818, -1.0390048027038574, 1.7854803800582886, -0.09930042922496796, 
324, 762699682, 137.39700317382812, -77.74602508544922, 56.99658966064453, 9.447551727294922, 2.1208231449127197, -1.4401276111602783, -3.5034077167510986, 1.5775055885314941, 0.33956679701805115, 
325, 762716349, 137.19818115234375, -77.76396179199219, 57.12331771850586, 9.541829109191895, 2.0325982570648193, -1.4114134311676025, -3.7134313583374023, 1.8445816040039062, 0.357572466135025, 
326, 762733016, 137.01889038085938, -77.77945709228516, 57.255123138427734, 9.494644165039062, 1.958805799484253, -1.3442341089248657, -1.7403700351715088, 1.8516252040863037, 0.1398005187511444, 
327, 762749683, 136.85743713378906, -77.79237365722656, 57.398193359375, 9.511201858520508, 1.9401137828826904, -1.3398897647857666, -0.42141208052635193, 1.7757282257080078, 0.0014343109214678407, 
328, 762766350, 136.66619873046875, -77.80538940429688, 57.39999008178711, 9.456357955932617, 1.9353843927383423, -1.437167763710022, 3.4759445190429688, 2.553323984146118, -0.8852774500846863, 
329, 762783017, 136.52130126953125, -77.81082916259766, 57.63890075683594, 9.29161548614502, 2.088829517364502, -1.362991452217102, 2.491469144821167, 1.757421851158142, -0.5954440236091614, 
330, 762799684, 136.423095703125, -77.80776977539062, 57.764015197753906, 9.422307968139648, 2.1201696395874023, -1.361878514289856, 1.7318215370178223, 0.8493361473083496, -0.3800923824310303, 
331, 762816351, 136.24705505371094, -77.80674743652344, 57.9390869140625, 9.45689582824707, 2.0098164081573486, -1.4123706817626953, 1.4293359518051147, 1.5876352787017822, -0.9695175886154175, 
332, 762833018, 136.09588623046875, -77.80259704589844, 58.07597351074219, 9.497593879699707, 1.9661237001419067, -1.391924500465393, 2.1436100006103516, 1.331303358078003, -0.9761127829551697, 
333, 762849685, 135.8982696533203, -77.7994613647461, 58.309993743896484, 9.514143943786621, 1.996662974357605, -1.3417458534240723, 2.3756356239318848, 1.8519197702407837, -1.3991577625274658, 
334, 762866352, 135.6959991455078, -77.79187774658203, 58.44186019897461, 9.48767375946045, 2.0875535011291504, -1.288519024848938, 1.9279000759124756, 1.6193182468414307, -1.552411437034607, 
335, 762883019, 135.50283813476562, -77.78181457519531, 58.57844161987305, 9.419537544250488, 2.0954699516296387, -1.3049051761627197, 1.023425817489624, 1.3051016330718994, -1.4258718490600586, 
336, 762899686, 135.34552001953125, -77.77146911621094, 58.72882843017578, 9.395462036132812, 2.1519670486450195, -1.3075157403945923, 0.7164704203605652, 0.9436037540435791, -1.0537320375442505, 
337, 762916353, 135.24085998535156, -77.75712585449219, 58.82866668701172, 9.36129093170166, 2.2157392501831055, -1.3591625690460205, -0.478189080953598, 0.1249963715672493, -0.5410298705101013, 
338, 762933020, 135.18594360351562, -77.7421646118164, 58.843868255615234, 9.384511947631836, 2.20503568649292, -1.3075114488601685, -0.7135825157165527, -0.40405312180519104, -0.06909025460481644, 
339, 762949687, 135.15113830566406, -77.72942352294922, 58.866512298583984, 9.452498435974121, 2.077805519104004, -1.3881574869155884, -0.8508090376853943, -0.5003761053085327, 0.2370455265045166, 
340, 762966354, 135.11827087402344, -77.72093200683594, 58.89259719848633, 9.52250862121582, 2.0382540225982666, -1.3682219982147217, 1.453648567199707, 0.015252361074090004, 0.08349739760160446, 
341, 762983021, 135.08946228027344, -77.71845245361328, 58.99020004272461, 9.451911926269531, 2.102177381515503, -1.3923426866531372, 2.9772138595581055, 0.47714534401893616, 0.13863514363765717, 
342, 762999688, 135.05589294433594, -77.71688842773438, 59.064109802246094, 9.393745422363281, 2.1130499839782715, -1.4063925743103027, 2.9473493099212646, 0.5494628548622131, 0.14068415760993958, 
343, 763016355, 135.0305633544922, -77.71453094482422, 58.99965286254883, 9.421875953674316, 2.084041118621826, -1.4127984046936035, 2.3164188861846924, 0.314901739358902, 0.28510138392448425, 
344, 763033022, 134.93833923339844, -77.71341705322266, 59.03450012207031, 9.514201164245605, 2.181978702545166, -1.2938090562820435, 2.0814480781555176, 0.9645167589187622, -0.2457154393196106, 
345, 763049689, 134.81829833984375, -77.7101058959961, 59.12849807739258, 9.550087928771973, 2.034109592437744, -1.4013835191726685, 2.0074145793914795, 1.1275286674499512, -0.5768364071846008, 
346, 763066356, 134.6766357421875, -77.71913146972656, 59.32190704345703, 9.508493423461914, 1.9808645248413086, -1.4524385929107666, 3.4224464893341064, 2.0869104862213135, -0.4630841016769409, 
347, 763083023, 134.59120178222656, -77.7219009399414, 59.488037109375, 9.327216148376465, 2.1635684967041016, -1.3118035793304443, 3.7871968746185303, 1.3709712028503418, -0.2651747167110443, 
348, 763099690, 134.59217834472656, -77.71038055419922, 59.506622314453125, 9.344343185424805, 2.1503899097442627, -1.3088207244873047, 3.1070001125335693, -0.15007121860980988, 0.023000206798315048, 
349, 763116357, 134.5956268310547, -77.69813537597656, 59.55173873901367, 9.34755802154541, 2.2354607582092285, -1.3174482583999634, 1.7218202352523804, -0.3963565528392792, 0.2330435812473297, 
350, 763133024, 134.5698699951172, -77.69680786132812, 59.650638580322266, 9.513907432556152, 2.1727964878082275, -1.5494818687438965, 2.6562740802764893, 0.4713057279586792, 0.294309139251709, 
351, 763149691, 134.4601593017578, -77.67485046386719, 59.67810821533203, 9.563419342041016, 1.7610740661621094, -1.2929706573486328, -6.080992698669434, -0.9707724452018738, -0.023217912763357162, 
352, 763166358, 134.38302612304688, -77.65560150146484, 59.83834457397461, 9.656283378601074, 1.5679510831832886, -1.4525383710861206, 5.2838239669799805, 0.6131552457809448, -1.353765845298767, 
353, 763183025, 134.2438507080078, -77.6552505493164, 60.031742095947266, 9.327797889709473, 2.2331767082214355, -1.449181318283081, 9.785731315612793, 2.6883866786956787, -1.8148202896118164, 
354, 763199692, 134.09506225585938, -77.6311264038086, 60.234962463378906, 9.354373931884766, 2.4323668479919434, -1.4788330793380737, 2.6807849407196045, 0.7098367214202881, -1.8272737264633179, 
355, 763216359, 133.87843322753906, -77.63754272460938, 60.470787048339844, 9.418896675109863, 2.219747543334961, -1.5433804988861084, -1.1453360319137573, 2.0319900512695312, -0.5391345024108887, 
356, 763233026, 133.62677001953125, -77.65174102783203, 60.73640441894531, 9.428084373474121, 2.0672004222869873, -1.498528003692627, 1.6653568744659424, 3.134091854095459, -0.9323791861534119, 
357, 763249693, 133.36219787597656, -77.66960906982422, 61.0945930480957, 9.510040283203125, 1.9834439754486084, -1.4020758867263794, 5.130102634429932, 3.9777488708496094, -1.392255187034607, 
358, 763266360, 133.06056213378906, -77.68759155273438, 61.62049865722656, 9.523921966552734, 2.0344247817993164, -1.3176147937774658, 4.079596996307373, 4.210017204284668, -1.5358014106750488, 
359, 763283027, 132.73684692382812, -77.69512176513672, 62.01158142089844, 9.481893539428711, 1.9832358360290527, -1.2766566276550293, 3.563706636428833, 3.8972864151000977, -2.0920965671539307, 
360, 763299694, 132.42547607421875, -77.7007827758789, 62.235538482666016, 9.40343952178955, 2.165935516357422, -1.3272624015808105, 4.4619951248168945, 3.826723575592041, -2.183047294616699, 
361, 763316361, 132.079345703125, -77.70606994628906, 62.68227767944336, 9.395648956298828, 2.374587059020996, -1.269350290298462, 1.8887640237808228, 3.7950406074523926, -2.096323013305664, 
362, 763333028, 131.69757080078125, -77.71115112304688, 63.08546447753906, 9.476178169250488, 2.284522294998169, -1.3101541996002197, 0.49471572041511536, 3.9140493869781494, -2.1823558807373047, 
363, 763349695, 131.3165283203125, -77.71815490722656, 63.61772155761719, 9.481657028198242, 2.1088106632232666, -1.3483532667160034, 0.2707454264163971, 3.9917969703674316, -2.0231986045837402, 
364, 763366362, 130.93418884277344, -77.73336791992188, 64.02525329589844, 9.443614959716797, 2.0984227657318115, -1.3256001472473145, 1.403941035270691, 4.509173393249512, -1.7974225282669067, 
365, 763383029, 130.5915069580078, -77.73518371582031, 64.35448455810547, 9.389166831970215, 2.1433985233306885, -1.1596941947937012, 0.8660357594490051, 3.5148370265960693, -1.964071273803711, 
366, 763399696, 130.3170928955078, -77.7317123413086, 64.73939514160156, 9.382294654846191, 2.233588933944702, -1.1875200271606445, 1.3891431093215942, 2.7556958198547363, -1.6748849153518677, 
367, 763416363, 130.1370391845703, -77.72211456298828, 64.99665069580078, 9.380537986755371, 2.26304292678833, -1.1638004779815674, 1.0198209285736084, 1.5197808742523193, -1.101109266281128, 
368, 763433030, 130.04794311523438, -77.71070098876953, 65.01590728759766, 9.38741683959961, 2.292630672454834, -1.1846630573272705, 1.0143588781356812, 0.5267443656921387, -0.4129791855812073, 
369, 763449697, 130.0520782470703, -77.69615173339844, 64.96285247802734, 9.429262161254883, 2.253708600997925, -1.2638896703720093, 1.3743199110031128, -0.462053120136261, 0.1789623349905014, 
370, 763466364, 130.0648193359375, -77.68419647216797, 64.97508239746094, 9.430710792541504, 2.243352174758911, -1.176393747329712, 1.6494771242141724, -0.39022231101989746, 0.3382861614227295, 
371, 763483031, 130.129150390625, -77.6694564819336, 64.9223861694336, 9.488442420959473, 2.15324330329895, -1.3307067155838013, 2.717667818069458, -0.8434262275695801, 0.4950871169567108, 
372, 763499698, 130.16693115234375, -77.65914916992188, 64.81878662109375, 9.411043167114258, 2.1430397033691406, -1.2773089408874512, 2.610004186630249, -0.42948654294013977, 0.487684965133667, 
373, 763516365, 130.21871948242188, -77.6473617553711, 64.82213592529297, 9.416464805603027, 2.1512622833251953, -1.3395795822143555, 3.845766544342041, -0.41044357419013977, 0.36498743295669556, 
374, 763533032, 130.28286743164062, -77.6373062133789, 64.73660278320312, 9.426209449768066, 2.1966099739074707, -1.2751117944717407, 4.066073417663574, -0.43444257974624634, 0.5201490521430969, 
375, 763549699, 130.36294555664062, -77.62297821044922, 64.66939544677734, 9.418251037597656, 2.247011661529541, -1.2673605680465698, 3.5226876735687256, -0.8494836688041687, 0.5344666242599487, 
376, 763566366, 130.5218505859375, -77.60591888427734, 64.60084533691406, 9.401493072509766, 2.198157548904419, -1.357737421989441, 3.8063995838165283, -1.6827672719955444, 1.0553393363952637, 
377, 763583033, 130.5888214111328, -77.59739685058594, 64.55909729003906, 9.559231758117676, 2.2437667846679688, -1.324106216430664, 2.5472402572631836, -0.6467462182044983, 0.8353389501571655, 
378, 763599700, 130.6339874267578, -77.59416198730469, 64.5446548461914, 9.430352210998535, 2.2793445587158203, -1.3053134679794312, 1.6312661170959473, -0.36691468954086304, 1.0276516675949097, 
379, 763616367, 130.74954223632812, -77.58538055419922, 64.40072631835938, 9.39499568939209, 2.1000618934631348, -1.265311598777771, 1.2508794069290161, -1.357280969619751, 1.4352140426635742, 
380, 763633034, 130.90089416503906, -77.57022094726562, 64.35867309570312, 9.52835464477539, 2.1614959239959717, -1.341315507888794, 2.418703079223633, -1.758491039276123, 1.2930890321731567, 
381, 763649701, 131.02593994140625, -77.5635986328125, 64.12371826171875, 9.412919044494629, 2.2196176052093506, -1.179113745689392, 2.0104050636291504, -1.2462692260742188, 1.5077683925628662, 
382, 763666368, 131.24473571777344, -77.54683685302734, 63.948768615722656, 9.373028755187988, 2.1726574897766113, -1.2859084606170654, 2.451923370361328, -2.4963290691375732, 1.8153836727142334, 
383, 763683035, 131.49815368652344, -77.52691650390625, 63.7430419921875, 9.386378288269043, 2.31205415725708, -1.3747495412826538, 2.3702056407928467, -2.9787955284118652, 1.9992058277130127, 
384, 763699702, 131.7492218017578, -77.51338958740234, 63.45219039916992, 9.449570655822754, 2.2050962448120117, -1.3626506328582764, 0.6177720427513123, -2.9890024662017822, 2.5431559085845947, 
385, 763716369, 131.99725341796875, -77.49996948242188, 63.26063919067383, 9.410572052001953, 2.1450271606445312, -1.3350480794906616, 2.2528607845306396, -2.676923990249634, 2.2963383197784424, 
386, 763733036, 132.215576171875, -77.47879791259766, 63.15086364746094, 9.484354972839355, 2.157114028930664, -1.349439263343811, 2.8490347862243652, -2.5878429412841797, 1.6158603429794312, 
387, 763749703, 132.37606811523438, -77.4591064453125, 62.9620361328125, 9.509781837463379, 2.0440690517425537, -1.5243301391601562, 2.0678350925445557, -2.0947604179382324, 1.284560203552246, 
388, 763766370, 132.47276306152344, -77.44491577148438, 62.82639694213867, 9.449033737182617, 2.0281033515930176, -1.4595599174499512, 2.5702409744262695, -1.1579244136810303, 0.881454586982727, 
389, 763783037, 132.58010864257812, -77.42633056640625, 62.72294616699219, 9.400321006774902, 2.119028091430664, -1.372191309928894, 3.1077358722686768, -1.3465876579284668, 0.7053545117378235, 
390, 763799704, 132.70860290527344, -77.40460205078125, 62.64585876464844, 9.395339965820312, 2.1616454124450684, -1.43197762966156, 2.625218152999878, -1.7618718147277832, 0.834365725517273, 
391, 763816371, 132.8435821533203, -77.38179016113281, 62.46253967285156, 9.394845008850098, 2.138885974884033, -1.4818885326385498, 2.3082358837127686, -1.925562858581543, 0.898973822593689, 
392, 763833038, 132.98895263671875, -77.36016845703125, 62.247406005859375, 9.378629684448242, 2.1742305755615234, -1.398376226425171, 2.984283208847046, -1.868280053138733, 0.9501993060112, 
393, 763849705, 133.1652374267578, -77.33019256591797, 62.11240768432617, 9.380180358886719, 2.0804080963134766, -1.3818188905715942, 2.05021333694458, -2.66646146774292, 1.020134687423706, 
394, 763866372, 133.36260986328125, -77.29772186279297, 61.848121643066406, 9.418587684631348, 2.1142711639404297, -1.404664397239685, 2.1683263778686523, -2.9634792804718018, 1.098829746246338, 
395, 763883039, 133.57321166992188, -77.25891876220703, 61.48029708862305, 9.471012115478516, 2.072740077972412, -1.4572386741638184, 1.510810136795044, -3.471801996231079, 1.0586050748825073, 
396, 763899706, 133.7638397216797, -77.22225952148438, 61.28244400024414, 9.43649673461914, 2.0412001609802246, -1.5367523431777954, 2.325908660888672, -3.0555315017700195, 0.8547279834747314, 
397, 763916373, 133.95936584472656, -77.18368530273438, 61.15215301513672, 9.367727279663086, 2.106717586517334, -1.4640153646469116, 2.5232157707214355, -3.1400012969970703, 0.8103537559509277, 
398, 763933040, 134.1629180908203, -77.14055633544922, 60.82234191894531, 9.399742126464844, 2.12322735786438, -1.4915107488632202, 1.892503023147583, -3.5306081771850586, 0.7936670184135437, 
399, 763949707, 134.35574340820312, -77.09357452392578, 60.48183059692383, 9.432906150817871, 2.1211931705474854, -1.4644250869750977, 1.5271893739700317, -3.654036521911621, 0.6014695167541504, 
400, 763966374, 134.55126953125, -77.0420150756836, 60.24300003051758, 9.379765510559082, 2.05730938911438, -1.5145455598831177, 0.8840798735618591, -3.981391668319702, 0.5594902038574219, 
401, 763983041, 134.76666259765625, -76.98413848876953, 60.28938293457031, 9.335354804992676, 2.041599988937378, -1.5550508499145508, 0.7713584899902344, -4.455278396606445, 0.5384365916252136, 
402, 763999708, 135.0047149658203, -76.92321014404297, 60.085243225097656, 9.358620643615723, 2.0244271755218506, -1.5562444925308228, 1.182525634765625, -4.759159564971924, 0.5760552287101746, 
403, 764016375, 135.29832458496094, -76.8611068725586, 59.84992218017578, 9.321565628051758, 2.083188772201538, -1.5524884462356567, 2.227274179458618, -5.1932053565979, 0.9375209808349609, 
404, 764033042, 135.67149353027344, -76.78746795654297, 59.42576599121094, 9.268266677856445, 2.1101088523864746, -1.5780949592590332, 3.465097665786743, -6.280529022216797, 1.0813490152359009, 
405, 764049709, 136.13461303710938, -76.69705200195312, 59.266563415527344, 9.307188987731934, 2.1101956367492676, -1.4746986627578735, 4.929107189178467, -7.658788681030273, 1.1255055665969849, 
406, 764066376, 136.64198303222656, -76.6004409790039, 58.84525680541992, 9.284222602844238, 2.116353988647461, -1.4916861057281494, 6.418205261230469, -8.141051292419434, 1.1604030132293701, 
407, 764083043, 137.18426513671875, -76.47811889648438, 58.79887390136719, 9.302876472473145, 2.1813998222351074, -1.5663228034973145, 9.219700813293457, -9.180763244628906, 0.1073877140879631, 
408, 764099710, 137.642333984375, -76.34496307373047, 58.596622467041016, 9.351484298706055, 2.1470327377319336, -1.4533336162567139, 13.364056587219238, -8.189513206481934, -1.8540021181106567, 
409, 764116377, 138.12921142578125, -76.20430755615234, 58.33621597290039, 9.271007537841797, 1.7916151285171509, -1.6924618482589722, 12.350857734680176, -9.02684497833252, -1.56511652469635, 
410, 764133044, 138.6825408935547, -76.04824829101562, 57.61250305175781, 9.374924659729004, 1.718492031097412, -1.9636750221252441, 6.798055648803711, -11.334753036499023, -0.3183148205280304, 
411, 764149711, 139.07733154296875, -75.90438842773438, 57.1046142578125, 9.394458770751953, 2.0239405632019043, -1.5581591129302979, 3.38002610206604, -9.83570384979248, -0.8353842496871948, 
412, 764166378, 139.39535522460938, -75.73694610595703, 56.9840087890625, 9.405465126037598, 1.8808845281600952, -1.7926819324493408, -0.7560358643531799, -10.883491516113281, -1.7272697687149048, 
413, 764183045, 139.49176025390625, -75.56668853759766, 56.92245101928711, 9.350192070007324, 1.744228720664978, -1.8535857200622559, -6.420120716094971, -9.787846565246582, -3.2415192127227783, 
414, 764199712, 139.39195251464844, -75.38887023925781, 56.77146530151367, 9.345393180847168, 1.3691954612731934, -2.016425848007202, -9.200252532958984, -8.645429611206055, -5.291868209838867, 
415, 764216379, 139.1081085205078, -75.21728515625, 56.87553405761719, 9.351151466369629, 1.621591567993164, -1.9105464220046997, -10.614025115966797, -6.701798439025879, -6.996908187866211, 
416, 764233046, 138.66004943847656, -75.06249237060547, 57.046390533447266, 9.216854095458984, 1.988889455795288, -1.945615530014038, -15.158453941345215, -4.9581618309021, -7.466851711273193, 
417, 764249713, 138.17234802246094, -74.92069244384766, 57.19767379760742, 8.962449073791504, 2.7183995246887207, -2.1849677562713623, -19.59181022644043, -4.651363372802734, -6.603758335113525, 
418, 764266380, 137.58465576171875, -74.78256225585938, 57.34567642211914, 8.796293258666992, 2.5730953216552734, -1.861222743988037, -25.397693634033203, -4.36171293258667, -6.5440354347229, 
419, 764283047, 137.11683654785156, -74.62152862548828, 57.44963836669922, 9.0032320022583, 2.130375623703003, -2.0288748741149902, -21.914920806884766, -5.980717182159424, -6.781205177307129, 
420, 764299714, 136.747802734375, -74.4617919921875, 57.44987487792969, 9.677227973937988, 2.048039674758911, -1.8672550916671753, -16.043607711791992, -5.862637996673584, -6.778382301330566, 
421, 764316381, 136.48748779296875, -74.3296127319336, 57.58251953125, 10.282663345336914, 2.7938199043273926, -1.8705183267593384, -8.284430503845215, -4.383487224578857, -5.944044589996338, 
422, 764333048, 136.2625732421875, -74.26226806640625, 57.75660705566406, 10.004632949829102, 3.0549676418304443, -2.2033252716064453, -1.8030062913894653, -0.6815924644470215, -4.166738510131836, 
423, 764349715, 136.17356872558594, -74.26310729980469, 57.92747116088867, 9.473883628845215, 2.963385820388794, -2.239354372024536, 7.717127799987793, 2.558011293411255, -1.6131138801574707, 
424, 764366382, 136.2723846435547, -74.31013488769531, 58.06790542602539, 9.4201021194458, 2.9738221168518066, -2.047009229660034, 14.841607093811035, 3.759185791015625, 1.1641815900802612, 
425, 764383049, 136.4739532470703, -74.3953628540039, 58.07087707519531, 9.508673667907715, 3.049539089202881, -1.7082183361053467, 13.483809471130371, 3.963984489440918, 4.277561187744141, 
426, 764399716, 136.78575134277344, -74.49928283691406, 57.93238830566406, 9.230912208557129, 2.616363763809204, -1.8144960403442383, 9.629566192626953, 2.7943532466888428, 7.166162014007568, 
427, 764416383, 137.22256469726562, -74.61239624023438, 57.63263702392578, 9.130012512207031, 2.7454779148101807, -1.780468225479126, 8.741908073425293, 1.67103111743927, 9.208802223205566, 
428, 764433050, 137.73550415039062, -74.73046112060547, 57.21452331542969, 9.132420539855957, 2.519909620285034, -1.9777641296386719, 7.922338008880615, 0.9920507073402405, 10.46555233001709, 
429, 764449717, 138.2816619873047, -74.86002349853516, 56.8074836730957, 9.094046592712402, 2.1223134994506836, -2.020449161529541, 8.46509838104248, 1.366188645362854, 11.174155235290527, 
430, 764466384, 138.8584442138672, -74.99482727050781, 56.411434173583984, 9.29175090789795, 2.0802860260009766, -2.0494885444641113, 11.93529224395752, 2.0458226203918457, 10.99465274810791, 
431, 764483051, 139.42977905273438, -75.13336944580078, 56.0311279296875, 9.2974214553833, 2.208683490753174, -1.815767765045166, 12.041801452636719, 2.434380292892456, 10.983073234558105, 
432, 764499718, 139.9748077392578, -75.25761413574219, 55.59093475341797, 9.253507614135742, 2.4199841022491455, -1.6222796440124512, 8.637421607971191, 1.6041821241378784, 10.731990814208984, 
433, 764516385, 140.5524444580078, -75.36568450927734, 55.08275604248047, 9.42688274383545, 2.0207672119140625, -2.0106759071350098, 4.016296863555908, -0.11560297757387161, 11.388108253479004, 
434, 764533052, 141.1117706298828, -75.4879379272461, 54.55150604248047, 9.352876663208008, 2.1027517318725586, -1.9993928670883179, 3.433429002761841, 0.7741506695747375, 11.764732360839844, 
435, 764549719, 141.756103515625, -75.59315490722656, 53.858558654785156, 9.237424850463867, 2.112384557723999, -1.7429444789886475, 2.537957191467285, -0.8221167922019958, 12.283428192138672, 
436, 764566386, 142.5679168701172, -75.68492126464844, 53.10511779785156, 9.298428535461426, 2.3107872009277344, -1.7020986080169678, 3.378746271133423, -2.732146739959717, 13.606901168823242, 
437, 764583053, 143.55116271972656, -75.77030944824219, 52.131317138671875, 9.355695724487305, 2.4019217491149902, -1.6171051263809204, 2.4309353828430176, -4.514472484588623, 15.647984504699707, 
438, 764599720, 144.8241729736328, -75.84236145019531, 50.891075134277344, 9.277978897094727, 2.3312690258026123, -1.701560139656067, 4.2761549949646, -7.126743793487549, 18.395442962646484, 
439, 764616387, 146.37313842773438, -75.90145111083984, 49.362789154052734, 9.306185722351074, 2.3914055824279785, -1.6338109970092773, 5.529120922088623, -9.46603775024414, 21.242198944091797, 
440, 764633054, 148.19253540039062, -75.95883178710938, 47.623111724853516, 9.483960151672363, 2.2637009620666504, -1.9435240030288696, 8.414172172546387, -10.71423053741455, 24.20151138305664, 
441, 764649721, 150.18963623046875, -76.03081512451172, 45.76767349243164, 9.289543151855469, 2.17309832572937, -1.8272833824157715, 10.849184036254883, -10.172463417053223, 26.66310691833496, 
442, 764666388, 152.42510986328125, -76.07020568847656, 43.66082000732422, 9.264225959777832, 1.9447181224822998, -1.754483699798584, 12.046207427978516, -12.444133758544922, 28.847721099853516, 
443, 764683055, 154.84820556640625, -76.06230926513672, 41.32204055786133, 9.337361335754395, 1.7826952934265137, -1.9498189687728882, 9.733580589294434, -15.323917388916016, 31.0649471282959, 
444, 764699722, 157.40467834472656, -76.03641510009766, 38.87150955200195, 9.43608570098877, 1.8065046072006226, -2.026019811630249, 11.2496337890625, -15.658734321594238, 32.78596496582031, 
445, 764716389, 160.06704711914062, -75.98029327392578, 36.30152130126953, 9.280324935913086, 1.4468178749084473, -2.1259653568267822, 10.668978691101074, -16.551088333129883, 34.52946472167969, 
446, 764733056, 162.94171142578125, -75.88787841796875, 33.579078674316406, 9.36087703704834, 1.6827566623687744, -1.9301151037216187, 14.576662063598633, -17.74198341369629, 36.896358489990234, 
447, 764749723, 166.0535888671875, -75.72826385498047, 30.637794494628906, 9.52595329284668, 1.6116756200790405, -1.8330553770065308, 16.195701599121094, -20.68352508544922, 40.139366149902344, 
448, 764766390, 169.42189025878906, -75.50596618652344, 27.47093963623047, 9.45789909362793, 1.729074478149414, -1.8170042037963867, 18.6169490814209, -22.95406150817871, 44.30009841918945, 
449, 764783057, 173.033447265625, -75.1731185913086, 24.059537887573242, 9.386698722839355, 1.7922099828720093, -1.8970073461532593, 19.254207611083984, -27.537246704101562, 49.17176055908203, 
450, 764799724, 176.94174194335938, -74.72296905517578, 20.39267921447754, 9.540310859680176, 1.7148692607879639, -1.9545938968658447, 22.626483917236328, -31.80069923400879, 55.58612060546875, 
451, 764816391, -178.8486328125, -74.12857818603516, 16.529356002807617, 9.74227523803711, 2.1604676246643066, -1.5945197343826294, 29.890567779541016, -36.59143829345703, 62.67380142211914, 
452, 764833058, -174.67376708984375, -73.3608627319336, 12.688124656677246, 10.405378341674805, 2.936147928237915, -2.016608715057373, 29.848695755004883, -42.254852294921875, 68.07369232177734, 
453, 764849725, -170.5695037841797, -72.40589141845703, 8.898804664611816, 10.663907051086426, 1.4828368425369263, -3.1381685733795166, 29.60364532470703, -48.1547737121582, 74.82017517089844, 
454, 764866392, -166.21942138671875, -71.39667510986328, 5.141685962677002, 10.732327461242676, 1.0085417032241821, -2.8970730304718018, 47.38357162475586, -45.14178466796875, 81.89444732666016, 
455, 764883059, -162.27745056152344, -70.15242004394531, 1.9005565643310547, 13.181051254272461, 3.113865613937378, -1.2713497877120972, 53.56410598754883, -54.385921478271484, 83.02886962890625, 
456, 764899726, -158.78460693359375, -68.891845703125, -1.3271955251693726, 14.633706092834473, 1.0500949621200562, -1.5546456575393677, 28.847936630249023, -48.6963005065918, 90.2742919921875, 
457, 764916393, -155.69740295410156, -67.42304992675781, -4.320587158203125, 15.80877685546875, 0.9654219746589661, -1.1563777923583984, 19.240398406982422, -55.44051742553711, 96.92894744873047, 
458, 764933060, -152.63462829589844, -65.87018585205078, -7.4460015296936035, 14.724376678466797, 0.9826098680496216, 0.21836575865745544, 12.33813190460205, -51.578250885009766, 108.75871276855469, 
459, 764949727, -149.79647827148438, -64.03059387207031, -10.202017784118652, 13.697441101074219, 2.4189887046813965, -0.09948670864105225, 21.22334098815918, -63.234676361083984, 115.80490112304688, 
460, 764966394, -147.408203125, -61.98505401611328, -12.069416046142578, 11.828977584838867, 5.308672904968262, -0.3816496729850769, 44.23054885864258, -78.57875061035156, 108.72074890136719, 
461, 764983061, -146.0164794921875, -59.816139221191406, -12.97623062133789, 10.683012008666992, 6.1874589920043945, -1.637437105178833, 36.79897689819336, -94.64395141601562, 95.03108978271484, 
462, 764999728, -145.06056213378906, -57.29084777832031, -12.9236421585083, 11.776878356933594, 4.837857723236084, -3.468973398208618, 60.96994400024414, -126.28690338134766, 85.98847961425781, 
463, 765016395, -143.09007263183594, -55.1199951171875, -13.112298965454102, 12.332573890686035, 2.760413646697998, -6.23915958404541, 109.82772064208984, -102.21804809570312, 83.23963165283203, 
464, 765033062, -141.58053588867188, -53.27179718017578, -13.301373481750488, 9.844239234924316, 3.1262714862823486, -8.979818344116211, 82.46393585205078, -84.12750244140625, 74.82019805908203, 
465, 765049729, -141.21311950683594, -51.7340202331543, -13.505791664123535, 8.969328880310059, 0.404310941696167, -9.48834228515625, 13.515329360961914, -67.78484344482422, 65.28104400634766, 
466, 765066396, -142.43820190429688, -50.40585708618164, -14.32929515838623, 8.547700881958008, -3.9132161140441895, -5.659122943878174, -110.6595687866211, -43.78361511230469, 75.5684814453125, 
467, 765083063, -143.10299682617188, -48.83888626098633, -14.684660911560059, 4.770114421844482, 2.0694074630737305, 0.6886184215545654, -54.84128189086914, -66.88459777832031, 69.74486541748047, 
468, 765099730, -145.0995635986328, -47.288429260253906, -14.097843170166016, 5.380264759063721, 7.072773456573486, 0.34108442068099976, -92.27455139160156, -89.63713073730469, 37.359344482421875, 
469, 765116397, -147.5522918701172, -46.42362594604492, -13.718749046325684, 6.255936145782471, 2.787426471710205, -3.288491725921631, -129.15284729003906, -52.41240692138672, 17.756418228149414, 
470, 765133064, -149.9078369140625, -46.21522903442383, -13.614119529724121, 6.82759952545166, -1.2148120403289795, -2.8759477138519287, -135.33145141601562, -13.62978458404541, 4.7305006980896, 
471, 765149731, -151.06576538085938, -46.65841293334961, -13.554569244384766, 5.908234596252441, -0.49868151545524597, -3.1224424839019775, -65.43668365478516, 21.156185150146484, -13.312064170837402, 
472, 765166398, -151.84530639648438, -47.433143615722656, -13.266380310058594, 5.9247145652771, 0.6508854031562805, -4.785093784332275, -32.67742156982422, 34.40272521972656, -30.625608444213867, 
473, 765183065, -152.6155548095703, -48.49629592895508, -12.992977142333984, 7.75825309753418, 0.37155139446258545, -5.5006232261657715, -32.58473205566406, 50.52390670776367, -37.476318359375, 
474, 765199732, -153.81150817871094, -49.849853515625, -12.69985580444336, 7.878504276275635, 1.2460291385650635, -2.862253427505493, -57.00313949584961, 66.50607299804688, -44.868080139160156, 
475, 765216399, -155.50543212890625, -51.34064865112305, -12.194232940673828, 8.10140323638916, 1.5920588970184326, -1.598634958267212, -76.75390625, 71.7345962524414, -53.656227111816406, 
476, 765233066, -157.76744079589844, -52.979427337646484, -11.47679328918457, 8.082886695861816, 1.2849313020706177, -2.5759949684143066, -100.298583984375, 78.85246276855469, -61.165321350097656, 
477, 765249733, -160.8507537841797, -54.61174011230469, -10.448766708374023, 8.150541305541992, 0.7947188019752502, -3.573448657989502, -133.80612182617188, 77.72966766357422, -66.60468292236328, 
478, 765266400, -164.60975646972656, -56.24123764038086, -9.091287612915039, 8.644227981567383, -0.43886056542396545, -3.5288197994232178, -157.0641326904297, 78.5439224243164, -71.08626556396484, 
479, 765283067, -168.35671997070312, -58.040679931640625, -7.425930976867676, 9.573963165283203, -0.7836498022079468, -4.326743125915527, -139.4883575439453, 91.12403106689453, -75.90365600585938, 
480, 765299734, -172.2599334716797, -59.965980529785156, -5.286101341247559, 9.965246200561523, 0.029486238956451416, -5.368966579437256, -122.76702117919922, 101.48889923095703, -82.60706329345703, 
481, 765316401, -176.83328247070312, -61.961605072021484, -2.4334115982055664, 10.631312370300293, 1.1366498470306396, -5.786928176879883, -123.39510345458984, 110.00646209716797, -92.08390045166016, 
482, 765333068, 177.6852264404297, -64.0928955078125, 1.1736215353012085, 10.604801177978516, 0.1403016597032547, -5.058766841888428, -134.65374755859375, 125.79823303222656, -97.13088989257812, 
483, 765349735, 171.34417724609375, -66.2485580444336, 5.844499111175537, 10.530953407287598, -0.935247004032135, -4.328501224517822, -124.77266693115234, 138.58616638183594, -102.8473129272461, 
484, 765366402, 163.9006805419922, -68.3481674194336, 12.054369926452637, 10.185137748718262, -1.9381060600280762, -4.127250671386719, -101.56241607666016, 152.37823486328125, -111.58002471923828, 
485, 765383069, 155.05914306640625, -70.27154541015625, 20.102848052978516, 9.791193008422852, -2.024975299835205, -3.0612590312957764, -77.42755889892578, 166.30088806152344, -117.556640625, 
486, 765399736, 144.38558959960938, -71.8228759765625, 30.03072738647461, 9.102173805236816, -1.5319535732269287, -1.6841177940368652, -75.76459503173828, 176.27041625976562, -118.45209503173828, 
487, 765416403, 131.9369354248047, -72.82865142822266, 41.72455596923828, 9.608747482299805, -1.2338149547576904, -1.3615796566009521, -77.14656066894531, 185.36985778808594, -116.81620788574219, 
488, 765433070, 118.39142608642578, -73.14568328857422, 54.49190139770508, 10.203397750854492, -0.8694952726364136, -1.8947685956954956, -78.99087524414062, 192.57298278808594, -111.88761138916016, 
489, 765449737, 105.28083801269531, -72.70750427246094, 66.67464447021484, 11.37353515625, -1.6744258403778076, -3.671262264251709, -86.76494598388672, 187.98464965820312, -102.5668716430664, 
490, 765466404, 93.87252807617188, -71.66987609863281, 77.23739624023438, 11.823844909667969, -3.6931538581848145, -5.909655570983887, -80.08538055419922, 179.5230255126953, -92.08195495605469, 
491, 765483071, 83.89818572998047, -70.10030364990234, 87.04335021972656, 10.749361038208008, -3.2168068885803223, -5.074128150939941, -41.60262680053711, 193.28839111328125, -88.95761108398438, 
492, 765499738, 76.0263900756836, -68.0606918334961, 95.2313461303711, 10.232756614685059, -1.6950387954711914, -3.844816207885742, -12.561012268066406, 193.04681396484375, -88.65592956542969, 
493, 765516405, 70.32962799072266, -65.83684539794922, 101.43379211425781, 10.478218078613281, -0.1477554738521576, -4.729486465454102, 1.3645930290222168, 177.26271057128906, -84.48735809326172, 
494, 765533072, 65.49188995361328, -63.567054748535156, 106.26930236816406, 10.072781562805176, 1.0017575025558472, -4.404824733734131, -27.302377700805664, 165.4190673828125, -78.65303039550781, 
495, 765549739, 61.621578216552734, -61.6494255065918, 109.51111602783203, 10.141642570495605, -0.7717122435569763, -5.623004913330078, -58.95564651489258, 130.8335418701172, -62.39102554321289, 
496, 765566406, 58.98567199707031, -60.1627311706543, 111.93257904052734, 9.627218246459961, -0.8419973254203796, -5.9765801429748535, -30.7002010345459, 105.16095733642578, -41.82453155517578, 
497, 765583073, 57.13139724731445, -59.28089141845703, 113.49164581298828, 8.318201065063477, 1.0142937898635864, -5.689699649810791, -30.027591705322266, 67.74118041992188, -19.381671905517578, 
498, 765599740, 56.09781265258789, -59.16900634765625, 114.23970031738281, 7.659935474395752, 0.02707742527127266, -6.743485450744629, -23.0507755279541, 22.70203971862793, 7.537353515625, 
499, 765616407, 56.111915588378906, -59.813804626464844, 114.218017578125, 7.238370418548584, -0.47863805294036865, -8.185998916625977, 0.09140580892562866, -22.188257217407227, 32.191444396972656, 
500, 765633074, 57.26599884033203, -61.077449798583984, 113.32061767578125, 7.787679195404053, -0.40777093172073364, -8.656513214111328, 22.740711212158203, -63.78269958496094, 49.16552734375, 
501, 765649741, 59.5803337097168, -62.7269401550293, 111.80183410644531, 8.280091285705566, 0.7836658358573914, -7.80340051651001, 58.76505661010742, -88.22811889648438, 62.173580169677734, 
502, 765666408, 63.75387954711914, -64.83161926269531, 108.76464080810547, 10.70298957824707, 4.302787780761719, -6.55156135559082, 87.17041015625, -130.53045654296875, 73.20808410644531, 
503, 765683075, 66.86029815673828, -61.60185241699219, 118.04733276367188, 24.426862716674805, 32.6413688659668, 12.273879051208496, 683.7642211914062, 309.4006652832031, -70.61103057861328, 
504, 765699742, 63.58986282348633, -61.01280975341797, 117.19234466552734, -4.985027313232422, 18.257020950317383, 27.60088539123535, -240.97216796875, -7.270840644836426, -41.99208450317383, 
505, 765716409, 66.17030334472656, -62.491676330566406, 112.24175262451172, 9.002267837524414, -9.568361282348633, -10.709604263305664, -106.5443115234375, -164.88487243652344, 21.184349060058594, 
506, 765733076, 68.70397186279297, -63.74026107788086, 105.48723602294922, 14.979341506958008, 10.003975868225098, 5.72580099105835, -209.16360473632812, -197.7701873779297, -0.7725895047187805, 
507, 765749743, 69.2312240600586, -64.88517761230469, 101.6429443359375, 19.65712547302246, -7.131743907928467, -6.052549362182617, -175.8856201171875, -117.88556671142578, 28.664077758789062, 
508, 765766410, 71.24415588378906, -65.23008728027344, 101.99158477783203, 11.183450698852539, 1.0845270156860352, -2.7971317768096924, 140.0784454345703, 1.45078706741333, 22.770238876342773, 
509, 765783077, 74.19554901123047, -65.68683624267578, 100.17584228515625, 5.1650495529174805, 9.338722229003906, -2.309877634048462, 78.31029510498047, -51.163143157958984, 12.993572235107422, 
510, 765799744, 77.03955078125, -66.29866027832031, 97.26840209960938, 8.303617477416992, 6.896260738372803, 2.1212072372436523, 11.595537185668945, -77.65272521972656, 18.238418579101562, 
511, 765816411, 79.27243041992188, -66.8790283203125, 94.97908782958984, 8.216302871704102, 4.823297500610352, -1.4777182340621948, 8.246150016784668, -60.36356735229492, 23.205406188964844, 
512, 765833078, 81.81668853759766, -67.41107940673828, 92.60381317138672, 8.811501502990723, 5.657515525817871, -3.471536874771118, 21.656557083129883, -59.6335563659668, 22.722152709960938, 
513, 765849745, 84.63484191894531, -67.91542053222656, 89.688720703125, 11.70859146118164, 3.256578207015991, -0.3883042335510254, 7.629841327667236, -69.33683013916016, 22.535945892333984, 
514, 765866412, 86.74556732177734, -68.35095977783203, 87.8160400390625, 10.419302940368652, 1.7242798805236816, -1.8852941989898682, 22.69464683532715, -43.45885467529297, 23.228546142578125, 
515, 765883079, 89.24662017822266, -68.7441635131836, 86.1249008178711, 10.030600547790527, 3.6321418285369873, -1.5202186107635498, 55.951934814453125, -37.66714096069336, 22.56837272644043, 
516, 765899746, 91.563232421875, -69.1078109741211, 84.5214614868164, 9.438636779785156, 3.826709032058716, 0.5462944507598877, 49.55817794799805, -34.18801498413086, 22.33846092224121, 
517, 765916413, 93.97359466552734, -69.46075439453125, 82.70187377929688, 8.631893157958984, 4.7419047355651855, -0.12593266367912292, 42.838321685791016, -37.30906677246094, 23.289817810058594, 
518, 765933080, 96.39380645751953, -69.82948303222656, 80.69683074951172, 8.637531280517578, 4.298630237579346, -0.11339892446994781, 32.75690460205078, -39.43891906738281, 26.08853530883789, 
519, 765949747, 99.03504180908203, -70.19606018066406, 78.53765869140625, 8.585442543029785, 3.938429594039917, -0.05884913355112076, 37.064857482910156, -40.69816589355469, 28.015413284301758, 
520, 765966414, 101.99948120117188, -70.52410125732422, 76.12622833251953, 8.527449607849121, 3.6189932823181152, -0.48432403802871704, 41.9412727355957, -43.99454879760742, 28.500959396362305, 
521, 765983081, 105.18242645263672, -70.80504608154297, 73.51874542236328, 8.587160110473633, 3.7268528938293457, -0.6641077399253845, 43.702457427978516, -46.167118072509766, 28.82418441772461, 
522, 765999748, 108.46465301513672, -71.04380798339844, 70.69422912597656, 8.7390718460083, 3.6958272457122803, -0.8874193429946899, 37.120418548583984, -48.64937973022461, 30.009450912475586, 
523, 766016415, 111.78243255615234, -71.24617004394531, 67.67572784423828, 9.06244945526123, 3.3380703926086426, -1.1879298686981201, 28.0317325592041, -50.56483459472656, 31.80124855041504, 
524, 766033082, 115.08927917480469, -71.39727783203125, 64.60590362548828, 9.109505653381348, 3.256951093673706, -1.5468186140060425, 24.282121658325195, -50.30110168457031, 32.04133224487305, 
525, 766049749, 118.30598449707031, -71.48489379882812, 61.51929473876953, 9.071048736572266, 2.9990463256835938, -1.528611183166504, 17.78757095336914, -50.08555221557617, 31.4439754486084, 
526, 766066416, 121.58507537841797, -71.5151138305664, 58.40472412109375, 9.30402660369873, 3.312065601348877, -1.7845476865768433, 19.894983291625977, -50.26485824584961, 31.426055908203125, 
527, 766083083, 124.63117218017578, -71.52073669433594, 55.44130325317383, 9.285405158996582, 3.478661298751831, -1.6356227397918701, 14.492575645446777, -46.822364807128906, 31.329692840576172, 
528, 766099750, 127.8050537109375, -71.47483825683594, 52.37517547607422, 9.445237159729004, 2.8417508602142334, -2.208641529083252, 16.344284057617188, -48.521583557128906, 32.530513763427734, 
529, 766116417, 130.8917694091797, -71.41960144042969, 49.436214447021484, 9.412689208984375, 2.7599167823791504, -2.319916248321533, 18.40153694152832, -45.28468322753906, 33.2653694152832, 
530, 766133084, 133.88189697265625, -71.35050964355469, 46.66297149658203, 9.119494438171387, 2.6016499996185303, -2.3476154804229736, 22.09183120727539, -41.82597351074219, 32.995975494384766, 
531, 766149751, 136.98171997070312, -71.248046875, 43.8452262878418, 8.976223945617676, 2.9690258502960205, -2.1129746437072754, 26.219266891479492, -42.21851348876953, 34.556419372558594, 
532, 766166418, 140.2080841064453, -71.09048461914062, 40.927345275878906, 8.863349914550781, 2.9782230854034424, -2.0784695148468018, 28.25557518005371, -44.26631546020508, 36.38129806518555, 
533, 766183085, 143.6269073486328, -70.86947631835938, 37.90704345703125, 8.996975898742676, 3.1599466800689697, -2.052144765853882, 34.18329620361328, -46.66729736328125, 38.55787658691406, 
534, 766199752, 147.19715881347656, -70.57591247558594, 34.78498458862305, 8.997271537780762, 3.0753164291381836, -2.411595106124878, 37.76942825317383, -49.410400390625, 41.16980743408203, 
535, 766216419, 151.05197143554688, -70.2367935180664, 31.626235961914062, 9.131111145019531, 3.5554282665252686, -1.9872071743011475, 53.12128448486328, -49.88716125488281, 44.36124038696289, 
536, 766233086, 155.21481323242188, -69.74836730957031, 28.202177047729492, 9.322900772094727, 3.302485942840576, -1.5522645711898804, 57.11122131347656, -57.71434783935547, 49.71768569946289, 
537, 766249753, 159.7414093017578, -69.06774139404297, 24.478200912475586, 9.655596733093262, 2.792219877243042, -2.2856481075286865, 62.81504440307617, -67.63131713867188, 57.21137237548828, 
538, 766266420, 164.4726104736328, -68.19673156738281, 20.588993072509766, 9.716398239135742, 2.186739206314087, -2.571362257003784, 66.93978118896484, -75.65733337402344, 65.11752319335938, 
539, 766283087, 169.25999450683594, -67.04728698730469, 16.678163528442383, 10.282145500183105, 1.920170783996582, -2.5970191955566406, 70.63787841796875, -87.257568359375, 71.58993530273438, 
540, 766299754, 174.03097534179688, -65.8190689086914, 13.100522994995117, 12.900733947753906, 3.834306478500366, -2.509042978286743, 89.88323974609375, -85.1924819946289, 74.46722412109375, 
541, 766316421, 178.2799530029297, -64.39979553222656, 9.729453086853027, 11.83926010131836, -0.29403260350227356, -3.989795684814453, 71.85071563720703, -90.4964370727539, 79.49730682373047, 
542, 766333088, -177.60401916503906, -62.85340118408203, 6.760936737060547, 12.737509727478027, 0.7952327728271484, -2.617178201675415, 87.7735366821289, -92.15399932861328, 79.93045043945312, 
543, 766349755, -173.4127197265625, -61.14150619506836, 4.275360584259033, 13.252786636352539, 0.8381025195121765, -2.3933942317962646, 120.1868667602539, -96.77365112304688, 78.11498260498047, 
544, 766366422, -169.18206787109375, -59.25114822387695, 2.2708280086517334, 14.54104995727539, 1.6611981391906738, -3.158884286880493, 149.85960388183594, -102.95460510253906, 76.5237808227539, 
545, 766383089, -164.7178192138672, -57.299564361572266, 0.6738297343254089, 16.020095825195312, 5.466115951538086, -1.681854248046875, 186.73829650878906, -102.60377502441406, 75.81173706054688, 
546, 766399756, -160.58766174316406, -55.346153259277344, -0.7840890884399414, 17.30241584777832, 8.669593811035156, -0.38105425238609314, 175.41819763183594, -97.34402465820312, 81.55921936035156, 
547, 766416423, -157.2131805419922, -53.36222457885742, -2.3664772510528564, 18.766048431396484, 10.99225902557373, -0.2668204605579376, 125.74151611328125, -91.09605407714844, 94.82562255859375, 
548, 766433090, -154.93893432617188, -51.036808013916016, -3.925536870956421, 17.9801082611084, 9.241294860839844, -1.515513300895691, 63.00315475463867, -104.27914428710938, 109.38827514648438, 
549, 766449757, -152.46192932128906, -48.6489143371582, -5.338585376739502, 17.475271224975586, 7.984574794769287, -3.4016330242156982, 84.3042984008789, -104.24616241455078, 112.94145965576172, 
550, 766466424, -149.4447021484375, -46.595272064208984, -6.740318298339844, 15.98300838470459, 5.787966251373291, -3.7395195960998535, 119.41227722167969, -80.25340270996094, 109.87129211425781, 
551, 766483091, -147.37689208984375, -45.355220794677734, -7.7948832511901855, 9.537482261657715, 2.5629494190216064, -3.576561450958252, 79.1159439086914, -40.42420196533203, 76.95519256591797, 
552, 766499758, -147.0857391357422, -44.354766845703125, -8.26179313659668, 5.328317165374756, 2.8989858627319336, -2.953146457672119, -1.728952407836914, -39.81388854980469, 49.72443389892578, 
553, 766516425, -146.5110321044922, -44.490596771240234, -9.271491050720215, 6.044102668762207, -1.8158713579177856, -3.9990792274475098, -7.358920097351074, 30.41997528076172, 32.28731918334961, 
554, 766533092, -145.0217742919922, -44.64360046386719, -9.967059135437012, 3.5363993644714355, -5.723906993865967, -8.51769733428955, 60.63383865356445, 24.2222900390625, 19.95428466796875, 
555, 766549759, -145.25054931640625, -44.45497131347656, -9.818161010742188, 4.8732171058654785, 4.336337566375732, -3.937434196472168, -6.910613536834717, -12.989229202270508, 1.7748719453811646, 
556, 766566426, -146.60926818847656, -45.41041946411133, -9.728805541992188, 2.838192939758301, 7.156740188598633, 3.6629626750946045, -77.16059875488281, 45.29096603393555, -34.72580337524414, 
557, 766583093, -149.6942596435547, -46.90470886230469, -9.50621509552002, 1.8443999290466309, 2.142012119293213, 3.36879825592041, -174.87411499023438, 71.18800354003906, -54.62914276123047, 
558, 766599760, -152.08013916015625, -49.00941467285156, -9.270970344543457, 0.9879441857337952, -1.0145877599716187, 0.9596959352493286, -132.09796142578125, 105.62224578857422, -69.1476821899414, 
559, 766616427, -154.30992126464844, -51.331233978271484, -8.457046508789062, -0.03195305913686752, -0.13091497123241425, -0.5033825635910034, -95.7071533203125, 110.10901641845703, -90.21063995361328, 
560, 766633094, -157.4821319580078, -53.77971649169922, -6.863381862640381, 2.2132925987243652, 0.48815447092056274, -4.5081305503845215, -113.84332275390625, 110.22897338867188, -112.52972412109375, 
561, 766649761, -160.9936981201172, -56.82933044433594, -5.01704740524292, 5.171442031860352, -0.610041618347168, -3.3967554569244385, -118.99238586425781, 148.6100616455078, -123.31141662597656, 
562, 766666428, -164.9774932861328, -60.26401138305664, -2.5543429851531982, 6.222911357879639, -1.4640164375305176, -0.3651169538497925, -112.34428405761719, 174.3470916748047, -133.50933837890625, 
563, 766683095, -169.9312744140625, -63.94759750366211, 1.2816201448440552, 7.449115753173828, -0.3614315390586853, 0.4279281497001648, -93.11761474609375, 192.1168212890625, -152.5868377685547, 
564, 766699762, -176.90371704101562, -67.84242248535156, 7.518599033355713, 9.040060997009277, 1.5813078880310059, -1.1961796283721924, -75.95214080810547, 214.17608642578125, -178.03587341308594, 
565, 766716429, 171.96490478515625, -71.33240509033203, 17.86460304260254, 12.298874855041504, 1.6064934730529785, -3.125391721725464, -85.08600616455078, 217.5670928955078, -206.57801818847656, 
566, 766733096, 155.31985473632812, -74.37625122070312, 34.09638595581055, 15.368871688842773, 0.9642007350921631, -2.67891788482666, -66.65122985839844, 254.01156616210938, -223.2251434326172, 
567, 766749763, 132.12881469726562, -75.73436737060547, 56.42557144165039, 16.137025833129883, 2.043670892715454, -3.496023178100586, -95.26571655273438, 267.5581970214844, -229.06980895996094, 
568, 766766430, 109.01234436035156, -74.67398071289062, 78.94538116455078, 18.750125885009766, 2.1996309757232666, -4.789607524871826, -78.8957290649414, 263.43072509765625, -227.68350219726562, 
569, 766783097, 91.9128189086914, -71.62042999267578, 94.94881439208984, 20.56186294555664, 3.674259901046753, -8.117851257324219, -105.61620330810547, 239.8944091796875, -228.3678741455078, 
570, 766799764, 81.0133285522461, -67.75499725341797, 104.24281311035156, 18.911975860595703, 0.5906531810760498, -11.45079231262207, -130.01925659179688, 207.237060546875, -218.3448944091797, 
571, 766816431, 74.15216827392578, -64.21920776367188, 110.14518737792969, 18.65825653076172, -7.185238361358643, -14.529851913452148, -87.48773193359375, 186.23300170898438, -175.4908447265625, 
572, 766833098, 69.78498840332031, -61.407108306884766, 115.7112045288086, 12.577190399169922, -7.2031965255737305, -16.440040588378906, 35.57099533081055, 197.24896240234375, -112.65377807617188, 
573, 766849765, 66.70231628417969, -59.70399475097656, 119.15959167480469, 5.873754978179932, -1.5634286403656006, -14.571137428283691, -4.365696430206299, 132.41053771972656, -56.837646484375, 
574, 766866432, 66.61530303955078, -59.71616744995117, 119.18344116210938, 3.8112969398498535, -5.606075763702393, -11.807647705078125, -3.625375747680664, 0.5323536396026611, 1.268693208694458, 
575, 766883099, 69.08203887939453, -60.75130081176758, 117.18539428710938, 8.909929275512695, -10.172096252441406, -9.890312194824219, 44.27539825439453, -78.33134460449219, 35.3557014465332, 
576, 766899766, 73.61793518066406, -62.268341064453125, 114.36723327636719, 8.870728492736816, 1.7372057437896729, -10.868986129760742, 123.84280395507812, -105.2769546508789, 60.647674560546875, 
577, 766916433, 78.74576568603516, -63.71495056152344, 110.2273178100586, 10.996305465698242, 6.010240077972412, -5.233278274536133, 86.63478088378906, -129.94985961914062, 57.502967834472656, 
578, 766933100, 83.07846069335938, -64.10247802734375, 107.41213989257812, 15.063937187194824, 10.866694450378418, 5.301757335662842, 108.5730972290039, -76.70755767822266, 11.424971580505371, 
579, 766949767, 80.03366088867188, -64.44568634033203, 107.68629455566406, 17.752302169799805, 2.6819820404052734, 19.497282028198242, -167.53509521484375, 4.328936576843262, 21.6384334564209, 
580, 766966434, 81.0857925415039, -65.15193939208984, 104.52657318115234, 12.20588207244873, -7.769774436950684, -3.7193334102630615, -108.06507110595703, -86.36363220214844, 28.74991226196289, 
581, 766983101, 85.64813995361328, -65.9835205078125, 99.37335968017578, 17.50206756591797, -1.7584019899368286, -11.367204666137695, -7.464855670928955, -132.53118896484375, 34.90022659301758, 
582, 766999768, 87.56432342529297, -66.25152587890625, 99.54747009277344, 9.64235782623291, 8.586402893066406, -8.892295837402344, 124.8408203125, 3.531132221221924, 16.42038345336914, 
583, 767016435, 90.75718688964844, -66.6779556274414, 96.05435943603516, 8.307013511657715, 6.990921497344971, 0.34959155321121216, -0.2809276282787323, -83.75402069091797, 24.481319427490234, 
584, 767033102, 92.0031509399414, -67.12972259521484, 94.27903747558594, 6.561730861663818, 5.391680717468262, -1.3183043003082275, -22.902355194091797, -40.831878662109375, 28.25155258178711, 
585, 767049769, 95.00234985351562, -67.56427001953125, 90.96532440185547, 8.449893951416016, 3.412141799926758, -1.537883996963501, -3.2163243293762207, -74.54443359375, 30.85491180419922, 
586, 767066436, 97.73419952392578, -67.89468383789062, 88.68276977539062, 10.639899253845215, 1.6107712984085083, -0.4344674348831177, 37.495845794677734, -49.09455490112305, 25.62036895751953, 
587, 767083103, 100.235107421875, -68.14775848388672, 86.75111389160156, 9.929991722106934, 3.6497979164123535, -1.8805557489395142, 42.90108871459961, -40.19452667236328, 21.924867630004883, 
588, 767099770, 102.20230102539062, -68.38884735107422, 85.08802795410156, 9.340703010559082, 5.099921226501465, -1.9393593072891235, 25.66724395751953, -33.14891052246094, 21.527048110961914, 
589, 767116437, 104.38201141357422, -68.69867706298828, 83.14359283447266, 8.638307571411133, 5.409531116485596, -0.32315337657928467, 22.53325843811035, -36.9809455871582, 28.05955696105957, 
590, 767133104, 107.1070327758789, -69.03887939453125, 80.62237548828125, 8.282750129699707, 5.619942665100098, 0.5227053165435791, 22.72482681274414, -46.67918014526367, 34.61098861694336, 
591, 767149771, 110.20033264160156, -69.31673431396484, 77.66826629638672, 8.532459259033203, 4.1766533851623535, -0.49818795919418335, 20.269519805908203, -54.10038375854492, 36.11627960205078, 
592, 767166438, 113.52473449707031, -69.53363800048828, 74.52881622314453, 8.76707649230957, 3.729044198989868, -1.3860031366348267, 23.447633743286133, -56.33369064331055, 36.90779495239258, 
593, 767183105, 117.03694915771484, -69.72344207763672, 71.35905456542969, 8.848502159118652, 3.5588724613189697, -1.685962438583374, 32.78794860839844, -54.74664306640625, 38.74582290649414, 
594, 767199772, 120.54930114746094, -69.87258911132812, 68.13970947265625, 9.116347312927246, 3.580559015274048, -1.9718632698059082, 29.812000274658203, -53.8970832824707, 40.149070739746094, 
595, 767216439, 124.107177734375, -69.9760971069336, 64.87818145751953, 9.27385425567627, 3.0313615798950195, -2.0239827632904053, 30.013988494873047, -53.19475555419922, 41.3512077331543, 
596, 767233106, 127.70442962646484, -70.00824737548828, 61.63060760498047, 9.067644119262695, 2.765357732772827, -1.9360541105270386, 33.0978889465332, -52.625797271728516, 40.84137725830078, 
597, 767249773, 131.30807495117188, -69.93590545654297, 58.3807487487793, 8.889854431152344, 2.5166244506835938, -2.3627448081970215, 33.36415481567383, -54.0432014465332, 39.321876525878906, 
598, 767266440, 134.8742218017578, -69.76683807373047, 55.24113464355469, 8.890972137451172, 2.70784854888916, -2.7076187133789062, 37.47064971923828, -54.07746505737305, 37.10746765136719, 
599, 767283107, 138.09942626953125, -69.52947235107422, 52.391273498535156, 9.04712200164795, 2.9222805500030518, -2.885918378829956, 33.55342483520508, -51.03813934326172, 33.50729751586914, 
600, 767299774, 140.9444580078125, -69.24414825439453, 49.84248352050781, 9.000517845153809, 1.9770724773406982, -3.298116445541382, 27.927343368530273, -47.74026870727539, 30.027729034423828, 
601, 767316441, 143.70164489746094, -68.94403839111328, 47.52962112426758, 9.094179153442383, 1.956463098526001, -3.6141152381896973, 36.15740966796875, -44.28862380981445, 28.37335968017578, 
602, 767333108, 146.2740936279297, -68.6658935546875, 45.425838470458984, 9.083911895751953, 2.2815918922424316, -3.104294538497925, 37.01533126831055, -39.62202453613281, 27.992687225341797, 
603, 767349775, 148.9423370361328, -68.33109283447266, 43.25437927246094, 8.896858215332031, 2.267029047012329, -2.6749565601348877, 39.24114990234375, -42.3219108581543, 29.746723175048828, 
604, 767366442, 151.8523406982422, -67.90784454345703, 40.9000129699707, 9.01780891418457, 2.8855974674224854, -2.4972848892211914, 43.87461471557617, -47.86074447631836, 33.417152404785156, 
605, 767383109, 155.0178680419922, -67.37499237060547, 38.309242248535156, 9.3616361618042, 3.1586015224456787, -2.4970250129699707, 46.53470230102539, -54.81840133666992, 38.78202819824219, 
606, 767399776, 158.4154815673828, -66.73795318603516, 35.52048110961914, 9.414142608642578, 3.206294059753418, -2.915121078491211, 50.134151458740234, -60.67570114135742, 45.000282287597656, 
607, 767416443, 162.05226135253906, -65.951416015625, 32.58603286743164, 10.835908889770508, 3.593417167663574, -3.149868965148926, 57.29929733276367, -68.084716796875, 50.71883773803711, 
608, 767433110, 165.64144897460938, -65.15888214111328, 29.698841094970703, 10.727057456970215, 3.787550210952759, -2.845599889755249, 58.01836013793945, -65.40861511230469, 55.828067779541016, 
609, 767449777, 169.31460571289062, -64.25347137451172, 26.77322769165039, 10.43957805633545, 1.602954626083374, -3.620126962661743, 62.05455780029297, -69.08894348144531, 61.644676208496094, 
610, 767466444, 173.22914123535156, -63.17955780029297, 23.78057098388672, 10.322673797607422, 1.390268087387085, -3.3443403244018555, 74.24691009521484, -75.55425262451172, 69.0199203491211, 
611, 767483111, 177.39732360839844, -61.87710952758789, 20.859060287475586, 10.84252643585205, 1.2615314722061157, -3.881852626800537, 94.93037414550781, -84.29719543457031, 74.41513061523438, 
612, 767499778, -178.4151153564453, -60.47801208496094, 18.288944244384766, 11.959220886230469, 1.1397781372070312, -4.048900127410889, 116.51604461669922, -84.41756439208984, 73.8049087524414, 
613, 767516445, -174.07240295410156, -59.08042526245117, 16.16438102722168, 12.647485733032227, 2.910186290740967, -3.4257075786590576, 150.78372192382812, -79.30631256103516, 69.73194122314453, 
614, 767533112, -170.03575134277344, -57.58005142211914, 14.346226692199707, 14.548263549804688, 2.226926803588867, -1.5961558818817139, 149.72930908203125, -81.09061431884766, 69.39271545410156, 
615, 767549779, -165.63211059570312, -55.92464065551758, 12.599818229675293, 16.895448684692383, 4.486205577850342, -0.7098665237426758, 176.95822143554688, -84.86087036132812, 77.32772827148438, 
616, 767566446, -162.02020263671875, -54.249332427978516, 10.624091148376465, 18.599777221679688, 5.817181587219238, -0.15630561113357544, 119.88623809814453, -77.53457641601562, 93.4137191772461, 
