PacketCounter,SampleTimeFine,Euler_X,Euler_Y,Euler_Z,Acc_X,Acc_Y,Acc_Z,Gyr_X,Gyr_Y,Gyr_Z,
0,4293044231,-20.4738369,16.08481216,-20.22081757,0,0,0,0,0,0, 
1,4293060898,-19.98860741,16.08016014,-20.29695702,-2.71561861,-2.905563831,8.757130623,19.66822243,4.128153324,-8.682808876, 
2,4293077565,-19.35453224,16.15120888,-20.3378849,-2.717108011,-2.970794678,8.544671059,18.27419472,4.507489681,-10.14256859, 
3,4293094232,-18.93706512,16.25222397,-20.4370594,-2.670113087,-2.968436241,8.672683716,16.36849022,3.895498037,-11.20656967, 
4,4293110899,-18.65754318,16.31275558,-20.58250046,-2.743887901,-2.995467424,8.808135033,14.26372433,5.03568697,-11.67852211, 
5,4293127566,-18.47224236,16.37850761,-20.73650169,-2.831339836,-2.904402971,8.766367912,11.96478939,6.071413994,-11.27640057, 
6,4293144233,-18.30579758,16.49637413,-20.90602684,-2.720682383,-3.177913189,8.894351006,11.88945961,8.230067253,-11.56587505, 
7,4293160900,-18.23244476,16.61183167,-21.1152401,-2.609838247,-2.773986101,8.857892036,10.11431885,10.09393215,-11.05988312, 
8,4293177567,-18.18767738,16.72444916,-21.35093498,-2.690332413,-2.832538605,9.15242672,6.781041145,12.0809679,-12.15781307, 
9,4293194234,-18.12088776,16.83880615,-21.63100433,-2.746263027,-2.568701267,8.987738609,7.258616924,13.41356182,-12.82282352, 
10,4293210901,-17.99172211,16.95769119,-21.89928055,-2.752380848,-3.110440731,8.736198425,9.767516136,13.94617176,-14.42808151, 
11,4293227568,-17.85486984,17.08908081,-22.18728828,-2.862914324,-3.020840883,8.713179588,13.13390255,14.89447212,-15.73329639, 
12,4293244235,-17.77814865,17.23396111,-22.49543571,-2.944824457,-2.930814505,9.015324593,11.09082413,15.44072723,-16.79093552, 
13,4293260902,-17.78549767,17.38524628,-22.85184479,-2.988377571,-2.792083025,8.978485107,6.801193237,16.11437798,-18.6247673, 
14,4293277569,-17.83184433,17.5393734,-23.24644852,-2.961431503,-2.920471191,8.879372597,4.725893974,16.48288155,-20.20826149, 
15,4293294236,-17.89812279,17.70726585,-23.69215012,-2.865516186,-2.96685195,8.69774437,4.341684818,17.69007492,-21.55522156, 
16,4293310903,-17.96486092,17.92287445,-24.17592621,-2.706020594,-3.610583544,9.241031647,5.654150963,21.37304115,-23.2575779, 
17,4293327570,-18.01340866,18.23478508,-24.76065254,-2.709971666,-3.60201478,9.132656097,9.902198792,29.49041176,-26.6156292, 
18,4293344237,-17.89823151,18.63763809,-25.42809105,-2.591300964,-3.293241978,9.26175499,22.60376167,36.95894623,-29.9849987, 
19,4293360904,-17.45937157,19.13367462,-26.22077179,-2.745771408,-3.168094873,8.842323303,43.83745575,44.1436348,-32.33568573, 
20,4293377571,-16.61619377,19.70698547,-27.00688171,-2.963153839,-2.572306633,8.932019234,68.43772888,48.28131866,-30.94221878, 
21,4293394238,-15.46771526,20.33547211,-27.77620506,-3.004712343,-2.520792007,8.759209633,86.93949127,51.10860443,-31.70454979, 
22,4293410905,-14.11999321,21.00896454,-28.51622391,-3.142487526,-2.41526556,9.278491974,98.54946136,52.54634476,-30.57256317, 
23,4293427572,-12.70655155,21.7002697,-29.26860809,-3.008774757,-2.045469999,9.499530792,102.2446213,52.59462738,-30.20685387, 
24,4293444239,-11.03984547,22.43780327,-29.85169411,-2.282826662,-1.878492713,8.442181587,115.5547943,53.74643326,-25.9901104, 
25,4293460906,-9.051886559,23.18822289,-30.45055199,-2.438437462,-1.580783844,8.5020895,134.1984406,53.75140381,-24.78796959, 
26,4293477573,-7.137095451,23.88161659,-30.97578621,-2.877745628,-0.41888389,9.269088745,129.9967041,49.82008362,-26.45892525, 
27,4293494240,-5.648696899,24.48417854,-31.53404808,-3.303100109,0.200933024,9.799229622,103.7991943,43.8050499,-28.01789093, 
28,4293510907,-4.679003716,25.01238823,-32.05528641,-3.288573265,-0.340174913,9.398234367,72.6672287,38.9976387,-30.62041092, 
29,4293527574,-3.975848436,25.52155113,-32.62908936,-3.28941679,-1.282042027,8.94321537,57.1429863,37.53493118,-32.02483368, 
30,4293544241,-3.365796089,26.03256226,-33.21718597,-3.250398636,-1.477765322,8.379383087,52.74518204,37.31797409,-33.06333923, 
31,4293560908,-2.923547029,26.54022598,-33.86108017,-3.233474255,-1.008304119,7.955757618,44.44695663,36.81797791,-34.94254303, 
32,4293577575,-2.727425575,27.06515503,-34.53807449,-3.137541056,-0.833181918,7.258543968,31.31191063,37.61686707,-36.89135742, 
33,4293594242,-2.745457649,27.64062691,-35.26501465,-3.386529684,-1.218671799,6.733504772,20.36319542,40.50633621,-39.18116379, 
34,4293610909,-2.890339613,28.28874779,-36.06233597,-3.672928572,-1.637930632,6.683220387,15.46537399,44.73740005,-42.24290085, 
35,4293627576,-3.009889364,28.9989109,-36.91049194,-4.51944685,-2.077001333,7.535467625,19.47672844,48.30155563,-44.3101387, 
36,4293644243,-3.094671965,29.69097328,-37.77598572,-5.435081959,-2.241318703,8.606119156,22.82737541,46.87622833,-44.0901413, 
37,4293660910,-3.332334518,30.31576157,-38.65301895,-5.832770824,-1.501184344,8.78234005,15.29846573,42.5935936,-44.79626465, 
38,4293677577,-3.720570564,30.89759445,-39.53577423,-6.03989172,-0.79271251,9.147846222,6.478607178,39.79074097,-43.65325165, 
39,4293694244,-4.126643181,31.44507408,-40.3586235,-6.192336559,-0.115150973,8.444420815,4.083898544,37.50685883,-40.56781769, 
40,4293710911,-4.623189926,32.00052261,-41.09142685,-5.75352335,-0.041752279,7.477263927,-3.546695471,37.58474731,-36.4093132, 
41,4293727578,-5.129000664,32.59029388,-41.79096222,-5.985168934,-0.302590549,6.979972839,-5.892288685,39.29979324,-32.81894302, 
42,4293744245,-5.574121952,33.21438217,-42.42477798,-6.539655685,-0.857907355,6.929467678,-3.936879635,40.88591766,-29.26751518, 
43,4293760912,-5.888468742,33.89007187,-43.00600052,-7.077832222,-1.10594511,7.664554119,2.58992815,43.38461685,-25.99990845, 
44,4293777579,-6.173093796,34.6172142,-43.54069519,-6.96664381,-0.729888916,7.064726353,3.313840389,45.91911697,-23.132061, 
45,4293794246,-6.445878983,35.41448593,-44.01622772,-6.705877781,-0.691367269,6.758003712,2.289823771,49.45794678,-19.37860107, 
46,4293810913,-6.693566322,36.30174637,-44.43719101,-6.899563313,-0.392397881,7.076416016,2.052458048,54.23592758,-15.54722691, 
47,4293827580,-7.033677101,37.2584343,-44.80995941,-6.169716358,0.022652581,7.74837923,-5.004355431,57.89823532,-12.32522297, 
48,4293844247,-7.532398224,38.30787277,-45.17567825,-5.526039124,-1.504532337,7.917652607,-14.63557243,63.47367096,-10.77759933, 
49,4293860914,-7.839135647,39.45729446,-45.50889969,-5.850949764,-1.786389589,7.490146637,-3.971240997,69.44937134,-7.595769882, 
50,4293877581,-8.087246895,40.70087814,-45.82235336,-6.05714941,-1.672431469,7.370686054,-1.20810461,74.95666504,-4.666400433, 
51,4293894248,-8.346662521,42.04176712,-46.17183304,-6.138755798,-1.146550179,7.256033421,-1.036627412,80.88319397,-3.62631011, 
52,4293910915,-8.680931091,43.48868561,-46.54595184,-6.434381962,-1.094080925,7.30809021,-4.129704952,87.41571808,-3.038651466, 
53,4293927582,-9.070118904,45.09812927,-46.9798851,-6.674755096,-1.25939095,7.228144169,-4.549269199,97.50702667,-3.089770317, 
54,4293944249,-9.57042408,46.85291672,-47.5104866,-7.061707497,-1.10078299,7.226054192,-6.528639317,106.8042526,-4.343903065, 
55,4293960916,-10.08408546,48.7539711,-48.15064621,-7.530231476,-0.938527167,7.09708786,-1.818390012,116.215126,-5.522905827, 
56,4293977583,-10.58123302,50.71271515,-48.81688309,-8.018371582,-1.587308049,6.620963097,1.148493171,119.752243,-3.947533131, 
57,4293994250,-10.93469143,52.64450836,-49.37572861,-8.377396584,-1.455225468,6.208588123,5.578229427,117.2719421,1.641738296, 
58,4294010917,-11.09320068,54.54554367,-49.67824173,-9.211772919,-1.735792756,6.510917664,5.566791534,113.5236435,11.66699219, 
59,4294027584,-11.07916737,56.48319244,-49.67283249,-8.793554306,-1.332774162,5.493943691,1.045162797,113.5625763,23.03275681, 
60,4294044251,-10.98657894,58.42389679,-49.49942017,-8.150074005,-2.136007071,5.061422348,-2.762659788,112.691185,28.28277779, 
61,4294060918,-10.83400536,60.30496979,-49.19284058,-8.198968887,-1.639304996,4.509279728,-6.168884754,108.5340042,31.19802666, 
62,4294077585,-10.59627342,62.11663055,-48.78604126,-8.204577446,-1.369838238,3.876363277,-6.613304138,104.0849152,32.4630928, 
63,4294094252,-10.22036552,63.83572006,-48.30263138,-8.44240284,-1.155536413,3.669962406,-2.772378683,98.48330688,32.34169769, 
64,4294110919,-9.80361557,65.47137451,-47.78077316,-9.208077431,-1.342272401,4.099084854,-2.797495365,93.6802063,31.03046227, 
65,4294127586,-9.314234734,67.05214691,-47.09588242,-9.266126633,-0.441162109,3.344056606,-7.764302254,90.14104462,32.87568283, 
66,4294144253,-8.652630806,68.59011078,-46.24153137,-8.725174904,-1.163223863,2.857346773,-7.330346107,87.42021942,34.2779808, 
67,4294160920,-7.878933907,70.06576538,-45.28369141,-9.047504425,-1.543365955,3.180726528,-6.913945198,83.94142151,33.60648727, 
68,4294177587,-7.026769161,71.50200653,-44.19670105,-9.667809486,-1.150541782,3.329013586,-10.01153469,81.90000916,33.35583496, 
69,4294194254,-5.890512943,72.92675018,-42.84897995,-9.541770935,-0.517205179,2.97507143,-8.389872551,81.41374207,35.10290527, 
70,4294210921,-4.312269688,74.35135651,-41.14899445,-9.059294701,0.005371496,2.195318699,-2.771981478,81.8422699,37.14889908, 
71,4294227588,-1.996566772,75.77905273,-38.92283249,-9.875497818,-0.682426929,2.859769344,10.23452854,82.86360168,39.96007538, 
72,4294244255,1.269791365,77.21600342,-35.89805222,-10.91108322,-1.814685822,3.650546551,19.84152031,85.20491028,43.82598495, 
73,4294260922,5.708593845,78.6614151,-31.71716881,-11.09283733,-1.950473547,3.221781969,21.34340858,89.12849426,48.11756134, 
74,4294277589,11.98662376,80.04605865,-25.7818203,-10.77017784,-2.149517536,2.94098568,27.0347538,91.62877655,53.4944725, 
75,4294294256,20.70261765,81.25228119,-17.55588531,-10.63406944,-2.20595026,1.994172215,36.30143738,91.47569275,58.06970215, 
76,4294310923,32.91722488,82.15710449,-6.189642429,-11.32012272,-2.181925535,2.852568865,58.36728668,92.23967743,65.03890228, 
77,4294327590,48.21467972,82.63798523,7.809085369,-12.07208157,-2.608863831,2.930518866,85.62535858,93.73908234,67.56302643, 
78,4294344257,62.4644165,82.75984955,20.69444275,-14.05522346,-2.308255672,4.467357635,88.50476837,84.89341736,52.07192993, 
79,4294360924,73.98293304,82.62136841,31.54816628,-14.96407413,-1.359516501,5.434752464,45.6164856,74.2518692,40.96466064, 
80,4294377591,81.98297882,82.39483643,39.50556564,-14.60635567,-1.143084049,4.909582138,7.148127556,58.9776268,29.03499031, 
81,4294394258,86.00300598,82.1765213,44.03197861,-13.95934677,-0.482296556,4.468214512,-27.3400383,36.23548889,19.85358238, 
82,4294410925,85.35723877,82.007164,44.29854584,-13.09777641,0.008802105,4.63482666,-53.92195511,3.11992979,13.50071621, 
83,4294427592,80.13137817,81.85917664,40.25391006,-12.47003841,0.750444412,4.29832983,-72.5043869,-32.88267899,7.818850517, 
84,4294444259,71.09540558,81.6568222,32.78851318,-11.5994978,1.29142189,2.738026142,-97.95809937,-62.90376663,-0.830256045, 
85,4294460926,59.21220016,81.26812744,22.69414139,-10.96201706,0.769394815,0.858559728,-113.0125122,-88.92311096,-13.28386974, 
86,4294477593,45.98443222,80.57039642,11.45832729,-9.781783104,1.563443661,0.26995039,-126.8120499,-107.5222321,-28.02359581, 
87,4294494260,33.4598999,79.69622803,1.316252112,-8.059157372,2.429087877,-0.90808773,-150.7351532,-104.7969437,-43.3725853, 
88,4294510927,21.38129616,78.87423706,-7.891901016,-7.0081563,0.886245608,-2.453129768,-180.6535034,-89.29160309,-65.27487183, 
89,4294527594,8.966499329,78.09768677,-17.65686607,-7.376441479,-2.843509912,-2.528987646,-169.5516663,-74.27038574,-97.4888916, 
90,4294544261,-2.503511906,76.9734726,-27.19845009,-7.842929363,-3.205007315,-1.525525689,-127.8682709,-73.41799164,-116.1511917, 
91,4294560928,-11.92914391,75.44989014,-35.36695099,-7.942975998,-3.091099977,-0.4037278,-88.09354401,-75.50304413,-123.787056, 
92,4294577595,-18.96375656,73.60814667,-41.72393799,-8.021125793,-2.181295156,0.423368156,-52.9001236,-79.18772888,-123.8305283, 
93,4294594262,-24.04786301,71.54364014,-46.59949112,-8.117621422,-1.499833107,1.299411297,-24.25071716,-83.08592224,-123.2559586, 
94,4294610929,-27.68476486,69.30911255,-50.3436203,-8.219965935,-0.711871326,1.905519247,-4.781768322,-87.83605957,-122.6465836, 
95,4294627596,-30.34273338,67.0016861,-53.18048859,-8.137178421,0.516565859,2.145559072,0.327163965,-90.41274261,-119.1329651, 
96,4294644263,-32.40019989,64.72789764,-55.34334564,-7.969423294,1.252493739,2.158220768,-3.209755421,-88.94231415,-113.1881027, 
97,4294660930,-34.1613121,62.55741501,-57.07921982,-8.174074173,1.325462222,2.168781042,-10.57271385,-83.61777496,-107.293663, 
98,4294677597,-35.77283096,60.50953293,-58.51096725,-8.614546776,1.288715124,2.027722836,-19.46500778,-77.41547394,-101.473671, 
99,4294694264,-37.30316162,58.62331772,-59.63137054,-8.558797836,1.617870212,1.752965808,-32.22256088,-70.96347046,-92.57343292, 
100,4294710931,-38.81249619,56.98042297,-60.50191116,-8.131789207,1.653151989,1.531677604,-44.81568909,-60.92324066,-80.87648773, 
101,4294727598,-40.28868866,55.64594269,-61.2170105,-8.032361984,1.411917567,1.535425782,-51.42230606,-47.21934891,-67.89002991, 
102,4294744265,-41.60216141,54.65370178,-61.7702713,-8.059212685,1.188372135,1.748696446,-50.22124481,-33.34482193,-52.2367363, 
103,4294760932,-42.62398911,54.01353836,-62.20284653,-8.085071564,0.599030793,1.949047565,-38.98402405,-19.31040573,-36.20295334, 
104,4294777599,-43.24199677,53.73788834,-62.51229477,-8.15553093,0.386760414,2.16468358,-20.94011307,-5.763379574,-18.78502846, 
105,4294794266,-43.42766953,53.80542374,-62.67970276,-8.179480553,0.301075965,2.304662704,-1.996477962,5.778264046,-1.308213592, 
106,4294810933,-43.28612518,54.17782593,-62.71665573,-8.111420631,0.435341477,2.350131512,11.22011948,15.77297783,14.37157917, 
107,4294827600,-42.95721817,54.82117844,-62.62923431,-8.100197792,0.441761225,2.312461853,16.28388214,24.60627556,28.34560013, 
108,4294844267,-42.50061417,55.70240784,-62.40787125,-8.064142227,0.240891442,2.311171532,17.18755913,32.09995651,40.93723679, 
109,4294860934,-41.9395256,56.78777313,-62.03369141,-8.129284859,0.036676772,2.351069927,15.59957027,38.13120651,52.28964233, 
110,4294877601,-41.30653763,58.04440308,-61.49489212,-8.154252052,-0.15923427,2.430928707,11.24138832,42.98599625,62.19777298, 
111,4294894268,-40.62450027,59.44433212,-60.77536392,-8.160981178,-0.369553208,2.469177485,4.426141262,46.84614563,70.91294098, 
112,4294910935,-39.88384247,60.9640274,-59.86370087,-8.217372894,-0.647805572,2.50835371,-2.703842163,50.06622314,78.4437561, 
113,4294927602,-39.08042908,62.58119965,-58.75327301,-8.319322586,-0.906197011,2.629705906,-10.24388599,52.84953308,84.66997528, 
114,4294944269,-38.23865891,64.28108215,-57.4564476,-8.4734478,-1.127054214,2.702798367,-18.89678192,55.8755188,89.43990326, 
115,4294960936,-37.31884766,66.04768372,-55.9567337,-8.558452606,-1.365434051,2.74809289,-26.33639336,58.59357834,93.2707901, 
116,10307,-36.31693649,67.87596893,-54.27324677,-8.752900124,-1.745005012,2.806685686,-32.7449379,62.11445236,95.78648376, 
117,26974,-35.10058212,69.71498871,-52.36576462,-8.735780716,-2.183516979,2.818549156,-33.65211868,63.45430374,96.39112091, 
118,43641,-33.65805435,71.54841614,-50.26483154,-8.794335365,-2.424394608,2.860804081,-32.31549835,65.25345612,95.01522827, 
119,60308,-32.02376556,73.35692596,-47.99201584,-8.731256485,-2.594782591,2.883776188,-31.90818214,67.00637817,91.83177948, 
120,76975,-30.24367523,75.12065125,-45.61065292,-8.680959702,-2.856174946,2.877393723,-30.63754463,68.73086548,86.45711517, 
121,93642,-28.28251648,76.82794952,-43.13827133,-8.723293304,-3.050425768,2.96154356,-26.15757179,70.10225677,80.07115173, 
122,110309,-26.09007263,78.45999908,-40.55758286,-8.829483986,-3.241506815,2.923617363,-19.58418655,70.37872314,72.98297882, 
123,126976,-23.63013458,80.0140686,-37.8650589,-8.9748106,-3.316494465,2.870965719,-10.95526505,70.44986725,65.51576233, 
124,143643,-20.83443451,81.4936142,-35.00685883,-9.66071701,-3.423303843,2.879734755,-1.323440671,70.38512421,58.21918869, 
125,160310,-17.61611938,82.86076355,-31.85217094,-10.35608006,-3.362934828,2.869960546,5.813986778,67.73877716,50.66959381, 
126,176977,-13.94331169,84.08145905,-28.29089737,-10.84265327,-3.293926001,2.829976797,8.351511955,62.74622345,42.82847595, 
127,193644,-9.998194695,85.10823822,-24.45818901,-10.98686504,-3.405910492,2.799069881,8.080733299,54.77617645,33.7085762, 
128,210311,-6.765663624,85.91917419,-21.32517624,-10.61294174,-3.515575647,2.59351635,6.894962311,45.15260696,21.60513306, 
129,226978,-6.294756889,86.55474091,-20.92996407,-10.19854927,-3.556783915,2.078713655,4.977493763,37.02153397,6.080433369, 
130,243645,-11.02418137,87.0496521,-25.76177597,-10.39787292,-3.561627388,1.593317151,6.101622581,31.20909882,-11.08713531, 
131,260312,-22.44573975,87.31343842,-37.41360855,-10.89566612,-3.528167009,1.030883193,13.41547871,24.47733116,-27.67786598, 
132,276979,-38.36863708,87.23445129,-53.7289505,-11.38116264,-2.706146717,0.189163283,22.90656853,19.0169487,-41.52134323, 
133,293646,-53.21418381,86.82183075,-69.0892334,-11.64090919,-1.896134138,-0.296712488,30.13438225,16.61124992,-49.78443146, 
134,310313,-64.9023819,86.15615845,-81.49678802,-12.12157917,-1.786603093,-0.769112885,42.26988602,18.1571312,-56.33733368, 
135,326980,-73.03869629,85.2720108,-90.80912018,-12.44915104,-2.07549715,-1.218932152,69.51795197,19.44985008,-63.14759445, 
136,343647,-78.51786041,84.2927475,-97.92731476,-12.6944828,-1.18678081,-1.694766402,97.09572601,22.64296341,-65.12558746, 
137,360314,-82.42987823,83.34495544,-103.6748123,-12.65250778,0.170127243,-2.120099068,108.6566696,26.53396988,-60.89926529, 
138,376981,-85.6528244,82.45709991,-108.6360245,-12.79709911,0.981563389,-2.589885712,102.5554276,30.2581234,-55.57715607, 
139,393648,-88.07064056,81.59554291,-112.5570526,-12.93129063,1.390326858,-3.091236591,88.47447205,28.79662132,-52.3475914, 
140,410315,-89.76412201,80.72536469,-115.5433502,-12.46897411,0.980641365,-3.691173553,76.02095032,25.38816071,-51.86527252, 
141,426982,-90.92661285,79.81290436,-117.8868103,-11.9000988,0.692798495,-3.483583927,69.45465851,22.70945549,-53.9034462, 
142,443649,-91.94056702,78.87174988,-119.9330826,-11.0943594,0.58180964,-3.343197346,60.48545074,22.51411247,-55.33782959, 
143,460316,-93.15209198,77.91281891,-122.0488434,-10.46326923,0.290688157,-2.855781317,52.37314606,26.27584457,-55.93305588, 
144,476983,-94.94480896,76.93882751,-124.4559937,-9.850068092,0.342298418,-3.159466743,34.17518997,33.52553558,-55.77729797, 
145,493650,-97.28744507,75.9552536,-126.9757843,-9.610078812,0.411965847,-3.098673105,7.251315594,39.37651825,-54.74829483, 
146,510317,-100.1437683,74.93320465,-129.4126434,-9.297869682,0.334819674,-2.748327732,-28.96040916,43.31477737,-55.05483627, 
147,526984,-103.355484,73.93016052,-131.5632172,-9.388648987,0.16087161,-2.199926853,-67.43314362,43.73866272,-52.05879974, 
148,543651,-106.8041153,72.96392822,-133.3990173,-9.628602028,-0.908406675,-1.815637469,-100.310051,42.90146637,-48.21401978, 
149,560318,-110.1479416,72.08243561,-134.7795258,-9.307300568,-1.818345308,-1.438897133,-120.5495605,37.85832596,-42.84535599, 
150,576985,-113.4210815,71.23149109,-135.8075562,-9.008358955,-1.92006743,-1.083784461,-136.7332458,34.50895691,-40.89245224, 
151,593652,-116.6020126,70.38941956,-136.4690399,-9.377749443,-3.189485788,-1.444672585,-152.2405243,30.79242897,-41.07858658, 
152,610319,-119.4729996,69.63832092,-136.6947021,-9.14385891,-4.262299061,-1.70706296,-158.3926849,22.95093918,-38.46817398, 
153,626986,-121.9382248,68.99789429,-136.6837616,-8.498286247,-5.180371284,-2.021717548,-147.3758087,17.17019844,-34.0092392, 
154,643653,-124.1368484,68.40174866,-136.529541,-8.219043732,-5.062401772,-1.777791619,-139.3960266,14.47947884,-32.58853531, 
155,660320,-126.0141373,67.85112762,-136.1446686,-7.733568192,-5.028055668,-1.821667433,-132.9416351,9.803693771,-32.66795731, 
156,676987,-127.7541809,67.2953949,-135.7343903,-7.111306667,-5.348379135,-1.959157109,-126.0530548,10.4185667,-32.90024567, 
157,693654,-129.2778015,66.69535065,-135.3598022,-6.96854496,-5.842246532,-2.06611824,-111.0263596,13.50865841,-34.10453796, 
158,710321,-130.4158478,66.10865021,-134.9672241,-6.838757038,-5.890553951,-2.020880938,-88.82569885,13.30994225,-33.36580658, 
159,726988,-131.1444855,65.60131073,-134.453949,-7.584875107,-5.058026791,-1.835577846,-70.81667328,8.369178772,-31.39741707, 
160,743655,-131.5608978,65.16654968,-133.7640991,-7.492074966,-4.639729977,-1.549370289,-61.64874268,2.37584877,-30.97444344, 
161,760322,-131.6438446,64.75736237,-132.9321289,-7.76410532,-4.625620842,-1.892763734,-49.27724838,-1.348134398,-32.2867012, 
162,776989,-131.345047,64.35677338,-131.9732666,-7.608962059,-4.247332096,-2.28546834,-33.13129044,-4.383949757,-34.1856575, 
163,793656,-130.6983032,63.98785782,-131.0184631,-7.800106525,-3.950014353,-2.702728748,-11.88905048,-6.067745686,-32.81085205, 
164,810323,-129.832016,63.70383072,-130.0449219,-8.377755165,-2.775562048,-2.750068188,0.41149506,-10.38734818,-29.31465912, 
165,826990,-129.0570679,63.50163651,-128.9289398,-8.869815826,-2.062319756,-2.546723366,-12.60102272,-17.02719879,-27.96897697, 
166,843657,-128.4406586,63.35320282,-127.7210846,-9.022421837,-2.509640217,-2.782546282,-26.934412,-21.42874718,-26.99977875, 
167,860324,-127.7906036,63.23085785,-126.4590302,-8.973062515,-3.247036457,-3.630654573,-27.72573662,-23.94991112,-26.6044178, 
168,876991,-127.0389786,63.13323593,-125.2665863,-8.416181564,-3.298596144,-4.288397312,-17.8162117,-23.81237984,-24.10800552, 
169,893658,-126.1742325,63.05155182,-124.2807541,-7.863692284,-3.548622608,-4.777532578,0.110954538,-20.37446976,-19.74461174, 
170,910325,-125.1206818,63.01682281,-123.5713196,-7.940703869,-3.735255957,-4.763658047,26.2943306,-16.39230156,-12.75793552, 
171,926992,-123.9091568,63.08826065,-123.1869583,-8.13799572,-3.138983488,-4.278808117,53.19031906,-13.07106113,-2.16088295, 
172,943659,-122.5920486,63.31121826,-123.1062393,-7.8100667,-1.77933073,-3.808744669,75.79452515,-11.28001308,10.24091721, 
173,960326,-121.6648254,63.6082077,-123.4710541,-7.476452351,-0.501805007,-3.567178011,76.34594727,-3.393917084,20.50943565, 
174,976993,-121.4909363,63.8807373,-124.2096252,-7.797826767,-1.600078702,-4.771309376,51.35310364,5.856500626,24.31779671, 
175,993660,-121.7062988,64.38430023,-125.7602692,-7.150729179,-2.854882002,-4.908004761,72.02393341,16.31642151,47.0883255, 
176,1010327,-121.9260254,65.12736511,-128.1672516,-6.174583912,-1.481010318,-5.17816925,118.6936111,26.24547958,70.50262451, 
177,1026994,-122.5596695,66.24780273,-131.6386261,-5.264622688,1.426878691,-4.931907177,153.066452,33.88433456,102.7940063, 
178,1043661,-124.0970764,67.73105621,-136.3671875,-4.531601429,2.887243748,-3.871520996,170.2075195,40.78238297,135.4013519, 
179,1060328,-126.720993,69.38091278,-142.5983734,-4.012164593,2.80629468,-1.843571901,191.8710175,50.89442825,159.8419647, 
180,1076995,-131.0950623,70.83979797,-150.5434113,-5.022469044,3.037568331,0.686376333,187.1087189,67.98532104,169.8145447, 
181,1093662,-137.3202209,71.86224365,-159.603241,-9.709470749,1.758755803,3.944419384,142.7461243,78.62979889,164.885437, 
182,1110329,-144.1513214,72.69930267,-168.2211609,-12.71779346,-1.331465006,4.965214729,83.75549316,57.83873749,153.2466888, 
183,1126996,-150.3889313,73.3707962,-175.2243805,-13.74267769,-5.257665157,4.898898602,28.56073952,29.96390343,124.5802231, 
184,1143663,-154.8332672,73.88882446,-179.6569977,-14.56612682,-8.522283554,4.14815712,-10.74404335,4.918432713,80.72545624, 
185,1160330,-157.0076141,74.45745087,178.7758789,-15.46306038,-8.921580315,2.843425035,-39.41233826,-22.20830727,37.54975128, 
186,1176997,-156.9887238,75.12691498,179.9675446,-15.2808733,-7.497461796,0.930396378,-67.40762329,-45.43724823,-1.001255751, 
187,1193664,-154.9279022,75.81562042,-176.4593201,-14.16504002,-7.156999588,-0.103943877,-83.51776123,-60.49905014,-31.42699814, 
188,1210331,-150.5743561,76.33459473,-170.826767,-13.03476334,-7.483804226,-0.84092164,-66.51586151,-65.58543396,-56.89086151, 
189,1226998,-144.0389404,76.55336761,-163.5134735,-12.58464432,-6.306901455,-1.096907854,-34.22686768,-67.1522522,-77.97695923, 
190,1243665,-136.3703766,76.38311005,-155.3056641,-12.31933975,-4.177799702,-0.901461005,-18.51148796,-66.40579987,-93.3015976, 
191,1260332,-128.8314972,75.94319153,-146.9341278,-11.55572414,-0.031555634,-0.599258184,-35.2243309,-71.019104,-98.82855225, 
192,1276999,-122.7973785,75.27997589,-139.3106842,-9.244244576,1.855040669,-1.56320715,-80.81309509,-69.3276062,-96.98776245, 
193,1293666,-118.5439835,74.4331131,-133.1559296,-8.362996101,0.530432999,-2.531677723,-100.9917145,-57.57368088,-91.34670258, 
194,1310333,-115.4603577,73.53055573,-128.3807678,-8.001701355,-0.519608617,-2.807825089,-90.04546356,-46.48215866,-82.7477951, 
195,1327000,-113.0919342,72.67133331,-124.5940018,-8.48325634,-0.738195062,-2.82332468,-74.91262817,-39.76069641,-72.85343933, 
196,1343667,-111.0689468,71.91864777,-121.2470779,-8.586921692,-0.745975852,-3.291450262,-69.49165344,-40.47895813,-63.60643005, 
197,1360334,-109.2462463,71.29509735,-118.0381165,-8.575502396,-0.208608687,-3.327871084,-72.84667969,-45.13435364,-54.96138, 
198,1377001,-107.6139221,70.70669556,-114.5115356,-9.253308296,0.299468666,-0.962806582,-101.5619431,-55.32100296,-54.31113815, 
199,1393668,-106.3468628,69.95359802,-110.8497849,-9.469323158,-1.305784345,-0.527017355,-130.2623444,-58.67605972,-64.03347015, 
200,1410335,-105.3485794,69.14289093,-107.2205811,-9.447879791,-1.953856111,-1.485994458,-143.5118561,-61.03902435,-66.90782166, 
201,1427002,-104.6865616,68.32111359,-103.8686447,-9.472553253,-3.764927149,-2.07924509,-147.0490417,-58.84574127,-65.95645905, 
202,1443669,-104.1304169,67.54788208,-100.933815,-9.083194733,-3.830979586,-2.929539204,-129.144165,-53.74124527,-60.84521103, 
203,1460336,-103.6760178,66.80654907,-98.63484192,-8.51881218,-4.713092804,-3.741507769,-99.15150452,-42.56196594,-55.49000931, 
204,1477003,-103.4938583,66.1353302,-96.96166992,-7.953857422,-2.649171114,-3.157458067,-80.33291626,-30.941782,-47.98088455, 
205,1493670,-103.6315002,65.3939209,-95.74895477,-7.776624203,-6.359641552,-3.150752783,-73.76463318,-20.15522957,-49.71712112, 
206,1510337,-103.5958557,64.78556824,-95.18451691,-8.256629944,-6.258246899,-3.601584673,-27.70443535,-6.92062664,-38.17523193, 
207,1527004,-103.359787,64.24910736,-94.95243073,-8.11578083,-4.950806618,-3.161300898,2.505571604,-0.082902201,-31.92008972, 
208,1543671,-103.0026627,63.66296387,-94.9927063,-7.905042171,-5.661022663,-3.201911211,24.55016708,7.207854271,-33.15758896, 
209,1560338,-102.3814011,63.06502151,-95.37039948,-7.762523651,-5.522278786,-3.449589252,58.51744843,15.87069607,-31.82062912, 
210,1577005,-101.5231934,62.44245148,-96.14614868,-7.835049629,-5.279467583,-3.525265455,93.89739227,26.5763073,-31.06755257, 
211,1593672,-100.440033,61.83444214,-97.22535706,-7.801900864,-4.12139225,-3.116288662,123.3021927,34.57347488,-28.87397957, 
212,1610339,-99.45701599,61.29268265,-98.33661652,-8.894750595,-1.20758307,-1.011799812,118.7217331,34.75130463,-25.29893494, 
213,1627006,-99.01988983,60.78715515,-99.10246277,-10.24491024,-0.014787626,0.460530281,67.56845093,24.71981049,-25.24752426, 
214,1643673,-98.92612457,60.39244461,-99.26822662,-10.95518017,-1.136526704,1.006011724,15.43452168,6.491350651,-21.74536133, 
215,1660340,-98.83299255,60.05434418,-98.96530914,-11.13335896,-4.038700104,-0.015579255,-9.056381226,-7.709585667,-20.77257538, 
216,1677007,-98.46316528,59.78737259,-98.45968628,-10.36296082,-4.785997868,-1.665064812,-2.938134193,-14.48971367,-17.56292343, 
217,1693674,-97.58501434,59.59738159,-97.88977814,-9.763991356,-4.755576134,-2.039975882,24.31305122,-17.3797493,-13.17940426, 
218,1710341,-95.99606323,59.57943344,-96.95610809,-8.786955833,-2.338046312,-0.398424387,48.20112991,-29.95463562,-3.930659056, 
219,1727008,-94.25244904,59.85372543,-95.70765686,-7.594274521,-0.18891874,0.532487929,41.11092758,-40.99324036,13.40027809, 
220,1743675,-92.76602173,60.38595581,-94.33272552,-8.166441917,0.282645077,1.334117651,18.82133675,-44.83102417,29.56186104, 
221,1760342,-91.67881012,61.07152176,-92.91325378,-9.332263947,-0.177236348,1.945325136,-7.926546574,-44.98790741,39.47418213, 
222,1777009,-90.84057617,61.76361847,-91.37214661,-9.926989555,-1.967712045,1.053950906,-29.81460571,-46.82112885,40.29983521, 
223,1793676,-90.37796021,62.33084488,-89.83862305,-10.20248413,-3.242804766,-0.366601914,-52.4634552,-45.10675049,33.17485809, 
224,1810343,-90.29014587,62.70699692,-88.31015015,-10.75559521,-4.780718803,-1.398506165,-75.03823853,-44.06070328,21.82128143, 
225,1827010,-90.19573212,62.86544418,-86.85945892,-10.34509182,-7.68393898,-1.779599428,-70.67292023,-41.4876709,8.795842171, 
226,1843677,-90.09405518,62.76200867,-85.9307785,-9.350107193,-9.316827774,-2.403371572,-42.38547516,-27.13796043,-6.709083557, 
227,1860344,-90.05509949,62.38103867,-85.59498596,-9.316752434,-9.493889809,-2.571489573,-14.44677925,-11.03135204,-23.10613823, 
228,1877011,-90.12631226,61.77658081,-85.64881897,-8.802621841,-8.912050247,-1.800997257,-0.290366113,-0.301930338,-36.28763199, 
229,1893678,-90.49411011,60.93365479,-85.95881653,-8.519983292,-7.691962719,-1.30182004,-4.595671654,7.262381554,-50.3534584, 
230,1910345,-91.16593933,59.89631271,-86.35596466,-8.049075127,-7.552653313,-0.446728945,-18.41679764,10.70520496,-61.75281906, 
231,1927012,-91.91817474,58.73050308,-86.66943359,-7.801018238,-7.850667,-0.115893871,-27.78580475,9.528061867,-69.2325058, 
232,1943679,-92.57275391,57.49998856,-86.8908844,-6.875049114,-8.19778347,-0.340151519,-26.82802582,7.979615211,-72.9401474, 
233,1960346,-92.96684265,56.27755356,-87.11191559,-6.184690475,-8.525900841,-0.27691257,-11.38457012,8.867388725,-72.19487, 
234,1977013,-92.87145233,55.09980774,-87.35743713,-5.883136749,-8.340167046,-0.046311971,19.02165985,9.998384476,-69.25629425, 
235,1993680,-92.35166168,53.99229431,-87.63363647,-6.183356762,-7.404700756,0.260863066,45.78844452,10.76626015,-64.87540436, 
236,2010347,-91.55867004,52.9504509,-87.90422821,-6.42989254,-6.986736774,-0.162529737,61.6984787,9.975734711,-60.95393372, 
237,2027014,-90.27527618,52.07733917,-88.07192993,-6.671671867,-7.529294968,-0.208294839,86.04864502,5.179679394,-50.99346924, 
238,2043681,-88.25351715,51.40764999,-88.0278244,-6.65415287,-6.654791355,1.119026184,120.2759857,-3.898087978,-38.76210785, 
239,2060348,-86.15490723,50.83678818,-87.83790588,-6.297896385,-5.191212654,1.502211094,118.0582123,-10.47261047,-32.40222931, 
240,2077015,-84.33389282,50.33045197,-87.70878601,-5.950818539,-5.112208366,0.53105849,104.2539902,-8.989079475,-28.39748383, 
241,2093682,-82.91295624,49.86139297,-87.74044037,-6.024645805,-4.142311096,0.45666647,87.68654633,-3.44000268,-26.6189537, 
242,2110349,-81.92151642,49.43271637,-87.98896027,-6.245753288,-4.515453815,0.200215206,71.82293701,4.680061817,-25.31079292, 
243,2127016,-81.27472687,49.07802963,-88.36984253,-6.318908215,-4.402788162,-0.027957693,57.10477448,10.16352558,-21.79754066, 
244,2143683,-81.0239563,48.80686188,-88.90979767,-6.796853542,-4.990417004,-0.158454478,40.47524261,17.03251457,-17.94649124, 
245,2160350,-81.03631592,48.53110504,-89.65981293,-7.487530231,-5.617592335,-0.527713239,34.07006836,25.27183342,-19.60018349, 
246,2177017,-80.99306488,48.30386353,-90.51942444,-8.504792213,-5.750380039,-0.417135477,42.22743225,30.14686012,-17.46126366, 
247,2193684,-80.96820831,48.0524292,-91.35961151,-8.651124001,-4.027195454,0.317503482,40.14922714,29.26954651,-18.86946106, 
248,2210351,-81.37809753,47.74072647,-92.23825073,-8.377532959,-2.402367592,0.233311325,15.62987041,30.48720932,-22.7264576, 
249,2227018,-82.42880249,47.38124847,-93.14408875,-8.392332077,-0.787435472,-0.103964582,-21.79364586,31.69550705,-25.51509476, 
250,2243685,-84.18456268,47.07586288,-93.94526672,-8.261198997,-0.798225343,-0.136120126,-68.87818909,28.69370079,-21.23577118, 
251,2260352,-86.48830414,46.90176773,-94.55227661,-8.99538517,-2.120729685,0.364580423,-110.3705368,22.31533623,-11.90635872, 
252,2277019,-88.87596893,46.81725311,-94.8713913,-10.23901653,-5.504119396,0.535327613,-128.0375824,11.30185986,-5.296067715, 
253,2293686,-90.34105682,46.85757065,-94.73442078,-10.36428165,-6.730641365,0.831327498,-92.64356995,-7.145982265,2.606382847, 
254,2310353,-91.1813736,47.02621078,-94.29904938,-9.880400658,-4.801035881,1.399101973,-68.2627182,-19.46004868,9.921033859, 
255,2327020,-92.04221344,47.30911636,-93.64207458,-9.527864456,-2.792054176,1.833131313,-79.34315491,-28.68224525,16.09594917, 
256,2343687,-93.27565765,47.7052269,-92.74373627,-9.275567055,-3.85618782,1.014952421,-112.565094,-38.78191757,21.72564697, 
257,2360354,-94.39834595,48.23297882,-91.71613312,-8.6564188,-6.404726028,-0.734460115,-111.9956207,-44.52838516,28.34675407, 
258,2377021,-95.21338654,48.74351883,-90.84976959,-7.827760696,-8.095067024,-2.556709528,-86.66584778,-38.09368134,27.10706139, 
259,2393688,-95.66910553,49.22421646,-90.3574295,-7.716427803,-8.512058258,-3.369485378,-48.44876099,-23.27854156,26.38960838, 
260,2410355,-95.90998077,49.74498367,-90.35398102,-7.367022991,-6.899855614,-3.579009771,-13.38543701,-4.616150856,30.66272354, 
261,2427022,-96.14932251,50.29831696,-90.8168335,-6.803459167,-6.473136425,-2.832918406,8.202687263,12.82858276,34.52377319, 
262,2443689,-96.39416504,50.93429565,-91.65353394,-7.383687496,-6.276173115,-1.318371534,25.43338585,25.98696899,41.09237671, 
263,2460356,-96.57308197,51.60351181,-92.61824799,-7.63958931,-5.398800373,-0.691192269,35.74651718,29.91248894,43.69879532, 
264,2477023,-96.87703705,52.24291229,-93.44287109,-7.83711195,-4.670880318,0.493426055,22.03665161,24.265131,41.38710785, 
265,2493690,-97.25628662,52.82424927,-93.91329956,-7.770969391,-5.358411312,1.186523557,0.952060819,11.24324322,36.40383911, 
266,2510357,-97.37604523,53.48526382,-94.12799835,-7.101287842,-5.452345848,0.723651409,4.379264832,1.169335246,39.98588181, 
267,2527024,-97.26417542,54.26891327,-94.35166931,-7.053257942,-5.200296879,-0.801985323,18.76380539,0.454424649,47.3196106, 
268,2543691,-96.76264954,55.21905899,-94.43522644,-7.233981609,-5.090504169,-0.970432639,35.38631058,-5.506106853,56.62899017, 
269,2560358,-95.9286499,56.25072098,-94.36303711,-7.019473076,-6.130772591,-0.509505987,47.65528488,-10.70807362,60.96112442, 
270,2577025,-94.88871002,57.24347687,-94.14830017,-7.153801918,-5.93695879,0.057507426,52.78245163,-14.10686302,58.40267563, 
271,2593692,-94.21060181,58.10961914,-93.81582642,-7.368539333,-5.781012058,-0.113144405,24.95652199,-16.20969963,50.7807579, 
272,2610359,-94.0165863,58.76024246,-93.35005188,-7.557116032,-7.942540169,-0.585693598,-11.07214355,-18.84156609,37.75397873, 
273,2627026,-93.92259216,59.18787384,-92.85544586,-7.356462955,-10.71440792,-1.630835772,-18.73330879,-18.49863052,24.52284622, 
274,2643693,-93.59467316,59.43532944,-92.42463684,-7.176914692,-11.18654442,-2.369241238,-1.536232948,-15.651824,14.16413879, 
275,2660360,-93.09024048,59.5430069,-92.09925842,-7.379805565,-10.35963917,-2.228412628,14.4199028,-11.86942005,6.339214802, 
276,2677027,-92.71855927,59.48220444,-91.87145233,-7.600078106,-8.560367584,-1.951582193,11.46906757,-8.407355309,-3.30888772, 
277,2693694,-92.58502197,59.25421906,-91.64144897,-8.652171135,-5.995949268,-0.836050689,-2.915886641,-8.10881424,-13.15834999, 
278,2710361,-92.85641479,58.82463455,-91.34944916,-8.838157654,-5.217651367,-0.937137425,-30.36296844,-9.512368202,-25.31850243, 
279,2727028,-93.1892395,58.39169693,-90.97615051,-9.21212101,-4.740097046,-1.083220601,-38.1276207,-12.02828026,-25.71193504, 
280,2743695,-93.70050812,58.05682755,-90.6741333,-9.74799633,-2.7565341,-1.335291862,-45.0997467,-10.0834446,-19.82734489, 
281,2760362,-94.18758392,57.89238358,-90.56324768,-10.68044281,-2.160351992,-1.543502569,-33.77696228,-4.588797569,-9.406246185, 
282,2777029,-94.19628143,57.93673706,-90.45130157,-11.30797863,-0.483490407,-0.222305402,-5.117719173,-5.543838024,2.916902781, 
283,2793696,-93.97083282,58.19684601,-90.42279053,-11.03524685,1.638917446,0.162311211,13.36749172,-3.689802647,15.80246735, 
284,2810363,-93.54150391,58.72260666,-90.47799683,-10.23836899,1.25719583,0.08417245,29.906147,-1.988884091,31.61127663, 
285,2827030,-92.83943939,59.53069305,-90.6867218,-10.07643509,0.77796942,1.05361855,53.58485794,1.72000134,48.57540894, 
286,2843697,-92.56974792,60.47929001,-91.0982132,-10.20990086,1.301365137,1.580482483,39.16960144,8.167094231,56.98540115, 
287,2860364,-93.05188751,61.44527054,-91.62889099,-10.73706436,0.260696352,0.935531139,0.345122546,11.0676403,57.9750824, 
288,2877031,-94.2486496,62.3934288,-92.17983246,-10.85667515,-0.84888339,0.070549771,-41.24237061,10.39648151,56.89557648, 
289,2893698,-95.7720108,63.27902603,-92.64501953,-11.66232014,-3.170484066,-0.33814168,-65.1109848,6.59301424,53.01699829, 
290,2910365,-97.4520874,63.98763657,-93.08127594,-11.56308842,-4.752406597,-0.831492126,-75.86873627,5.230432034,42.45894623, 
291,2927032,-99.48957062,64.42707062,-93.49547577,-11.74431133,-4.993513107,-1.019120693,-98.37853241,5.421215534,26.53959465, 
292,2943699,-101.6096725,64.62916565,-93.55955505,-11.29070854,-5.568456173,-0.618034363,-122.2346497,-1.939989328,11.08123016, 
293,2960366,-103.4798279,64.74118805,-93.36319733,-11.17982769,-5.969880104,-0.402605623,-121.3769608,-7.660563469,4.346369267, 
294,2977033,-104.9160767,64.95291901,-92.78923035,-9.650848389,-4.457701683,-0.360637546,-115.8967972,-18.51475143,7.640126705, 
295,2993700,-106.3931198,65.34848785,-92.02126312,-8.018939972,-3.12969923,-0.819033265,-129.0075989,-26.1864109,16.55475616, 
296,3010367,-107.8973999,65.89719391,-91.38087463,-7.494474411,-4.968204021,-2.096422195,-123.8380356,-25.94068909,25.70687485, 
297,3027034,-109.0475159,66.58678436,-90.99672699,-6.848106384,-5.728285789,-2.254617929,-88.71355438,-23.00113297,35.29682922, 
298,3043701,-109.9530487,67.44553375,-90.89430237,-6.973225594,-4.791937351,-1.416751742,-58.64253616,-20.57959747,46.87649536, 
299,3060368,-110.9616623,68.38947296,-91.12314606,-6.95768261,-5.250968933,-1.754006028,-46.48566437,-16.08939934,54.05861664, 
300,3077035,-111.9934387,69.39836121,-91.79600525,-6.570094585,-5.929619789,-2.94375658,-22.97866058,-9.795527458,60.94200134, 
301,3093702,-113.0332565,70.41568756,-93.09278107,-6.332829952,-6.878192902,-3.769465923,11.90078259,0.081705809,66.04608917, 
302,3110369,-113.797905,71.43743134,-95.0396347,-6.317956924,-7.533800602,-3.195827961,65.67752838,9.307606697,71.02919006, 
303,3127036,-114.1450348,72.46284485,-97.40471649,-6.341023445,-6.257960796,-2.171600819,115.1690674,13.71787357,73.89659882, 
304,3143703,-114.1839676,73.6145401,-99.96907043,-6.217682362,-5.501093864,-1.590795398,145.8325806,11.13996124,81.4098053, 
305,3160370,-113.6940765,74.88021088,-102.5020447,-6.373118401,-5.941170216,-1.110055804,176.5926819,5.332098961,86.29750061, 
306,3177037,-112.5885391,76.15795135,-104.4446182,-6.822431087,-4.271025181,0.024738915,180.0284271,-4.910178185,82.27677155, 
307,3193704,-111.5968246,77.37187958,-105.5682602,-6.933913708,-1.274459124,1.571490645,125.9143448,-14.64562798,73.72901917, 
308,3210371,-110.8164902,78.38515472,-105.4068146,-8.615581512,-1.514557958,2.716084003,38.11276245,-25.36966324,56.37135696, 
309,3227038,-109.6060562,79.16435242,-103.5704193,-9.463042259,-3.481621742,1.865427017,-34.7141037,-37.64884567,36.86701584, 
310,3243705,-107.6418152,79.7530899,-100.6576309,-9.779996872,-6.599656105,0.378639281,-53.27693939,-42.86504745,23.71779823, 
311,3260372,-105.2071228,80.10805511,-97.77851105,-10.49014854,-8.845011711,-0.729046822,-23.4018898,-36.2469902,12.51000881, 
312,3277039,-102.3564758,80.20889282,-95.15763855,-11.23427296,-7.455370903,-0.391514599,16.59934807,-28.79755402,0.33935681, 
313,3293706,-99.75431824,80.06217194,-93.11560822,-10.8512764,-5.804555416,-0.525255978,35.83826065,-20.15410233,-11.60199356, 
314,3310373,-97.89268494,79.70258331,-92.02181244,-10.55347252,-4.760779858,-0.588324845,47.45591736,-9.316986084,-21.89587784, 
315,3327040,-96.53128052,79.23326874,-91.64957428,-10.40521812,-4.255977154,-0.461146861,60.05096817,-1.742874861,-27.16480446, 
316,3343707,-95.18289185,78.69103241,-91.57714844,-10.98435879,-4.045986652,0.036642227,76.93306732,1.279449463,-31.093853, 
317,3360374,-93.29798126,78.08815765,-91.22406006,-10.6534853,-3.245506525,0.662069619,92.60921478,-2.761176348,-34.97716141, 
318,3377041,-90.72714233,77.49959564,-90.34716797,-10.23875713,-2.323345661,0.755578816,103.0705948,-11.01057529,-34.24568939, 
319,3393708,-87.31472015,76.97814178,-88.71450806,-9.878318787,-1.123859525,0.746545672,109.4451065,-23.24984169,-29.48389435, 
320,3410375,-83.52108765,76.52323151,-86.41557312,-9.142933846,-0.128621146,0.468691111,93.60856628,-34.72688293,-23.30274773, 
321,3427042,-79.79509735,76.13690948,-83.98014832,-8.584547043,-1.355165243,0.307391047,81.86274719,-38.53836441,-16.62082672, 
322,3443709,-76.16075134,75.78510284,-81.79711914,-8.558868408,-2.805340528,-0.435506165,91.29851532,-36.46430206,-12.76189709, 
323,3460376,-72.70019531,75.49284363,-80.09938049,-8.29804039,-3.496147871,-0.993516564,109.2741394,-30.04030991,-8.828682899, 
324,3477043,-69.12677765,75.23896027,-78.64704132,-8.63711071,-3.965484619,-1.114838839,130.4280548,-26.79820251,-5.880141258, 
325,3493710,-65.50080109,74.99851227,-77.26275635,-9.106380463,-3.099957466,-1.165033221,137.6382446,-26.27105331,-3.706279993, 
326,3510377,-61.903862,74.73848724,-75.77870941,-9.329745293,-2.063666821,-1.015692592,130.2435913,-28.80136108,-2.298979998, 
327,3527044,-58.69266891,74.45854187,-74.28091431,-9.392187119,-1.236413956,0.183098972,106.4581299,-30.13056374,-1.384688854, 
328,3543711,-56.22356033,74.10696411,-73.04985046,-10.0194149,-1.993863106,0.862795234,77.5042572,-29.30365372,-5.684601307, 
329,3560378,-54.09784698,73.65131378,-71.93386078,-10.86276054,-2.533663988,0.96745491,63.69913864,-31.96895599,-10.50749016, 
330,3577045,-52.28728104,73.03588104,-70.93465424,-10.91652584,-1.884924412,0.732379436,51.70106125,-36.98366165,-17.96689796, 
331,3593712,-51.38954544,72.33023834,-70.44458771,-10.11714268,-1.59479785,0.310985863,26.3316803,-34.17237854,-26.61520767, 
332,3610379,-51.80896378,71.55510712,-70.79587555,-10.13894081,-2.063563585,0.224815831,-4.544809818,-24.94449234,-39.27932739, 
333,3627046,-53.06436539,70.71707153,-71.71559906,-10.31037045,-2.547606468,0.030547623,-22.48541069,-17.73963165,-49.53649139, 
334,3643713,-54.62252426,69.88134766,-72.99324036,-10.09607601,-2.612138987,-0.106103033,-20.65535545,-10.00708961,-54.55046844, 
335,3660380,-56.2755928,69.10172272,-74.51983643,-10.08516121,-2.615170956,-0.17971541,-12.68539143,-1.44707644,-55.56909943, 
336,3677047,-57.79921341,68.37438965,-76.14163971,-10.37979984,-2.326248884,-0.291851193,0.022718703,4.455683231,-54.68741989, 
337,3693714,-59.09716034,67.73171997,-77.77202606,-9.962593079,-1.790476799,-0.794738114,13.66507721,9.518813133,-50.90265274, 
338,3710381,-60.19723892,67.2178421,-79.46761322,-9.289899826,-1.143642306,-0.731237829,28.84083557,16.52867508,-45.27729797, 
339,3727048,-61.13524246,66.81725311,-81.21543121,-9.128118515,-0.62565273,-9.96E-04,41.19934464,22.34746933,-40.06255722, 
340,3743715,-62.11392593,66.54524994,-82.945755,-9.212317467,-0.157804251,0.586051345,37.60485077,26.79803467,-33.03016663, 
341,3760382,-63.3055191,66.38188171,-84.71781158,-9.237249374,-0.342353374,0.523264885,27.01154327,31.61439133,-27.41761589, 
342,3777049,-64.7570343,66.34276581,-86.58423615,-9.01613903,-1.119220614,0.027396131,16.56978607,37.69530869,-21.11404419, 
343,3793716,-66.37485504,66.39589691,-88.67401886,-8.993162155,-2.046119213,-0.220880285,18.92405891,45.40571976,-17.30021667, 
344,3810383,-67.90475464,66.51804352,-90.8658905,-9.432840347,-2.524686337,-0.007068802,29.93628883,49.54833984,-13.10600662, 
345,3827050,-69.16217041,66.70955658,-93.1259613,-9.330606461,-3.209554911,0.108463556,50.22116852,52.56662369,-8.489328384, 
346,3843717,-70.27204895,66.94218445,-95.48145294,-9.875210762,-1.627613068,1.344516277,64.56321716,55.25536346,-5.674068928, 
347,3860384,-71.97058105,66.95801544,-97.10669708,-10.77419567,3.648839235,7.051361561,-10.9339962,34.69433594,-10.99651718, 
348,3877051,-74.26672363,66.89442444,-97.46183777,-11.25690079,1.94587934,9.281447411,-116.984993,5.287255764,-5.846709251, 
349,3893718,-75.52906799,66.94298553,-96.64544678,-10.0998621,-1.965423942,6.562584877,-119.7484741,-19.17980576,7.860933781, 
350,3910385,-76.14886475,67.13111877,-96.02705383,-8.821157455,-5.639627934,2.180747509,-70.39926147,-12.53568745,14.4762001, 
351,3927052,-76.27265167,67.4129715,-95.86032867,-8.335741043,-6.064123154,1.263975859,-15.74987316,-0.953697085,17.39945602, 
352,3943719,-76.16312408,67.66584015,-96.15535736,-9.039216995,-5.934201717,1.712839127,23.79882431,8.957708359,13.25846577, 
353,3960386,-75.48368073,67.88861847,-96.45730591,-9.157558441,-4.890501976,1.62970984,58.36445999,8.704523087,11.48553371, 
354,3977053,-74.45630646,68.10746765,-96.68959045,-8.889623642,-3.644409418,1.474547148,75.36282349,7.244663239,11.57290173, 
355,3993720,-73.25196838,68.35115051,-96.73162842,-8.852826118,-2.714595795,1.414015293,75.39134216,3.770612717,14.0397892, 
356,4010387,-72.07292938,68.62589264,-96.54172516,-8.931897163,-2.216380835,1.510342598,60.92691422,-0.263090968,17.21671486, 
357,4027054,-71.06510162,68.91871643,-96.10991669,-9.160622597,-2.146173239,1.310688257,37.10104752,-4.523762703,19.84408951, 
358,4043721,-70.25255585,69.21526337,-95.50146484,-9.193528175,-2.626522064,1.231636405,15.44037533,-7.589913845,21.28897476, 
359,4060388,-69.64341736,69.48441315,-94.76374817,-9.344371796,-2.851485729,1.306843162,-4.082128525,-10.30099392,20.68309021, 
360,4077055,-69.22002411,69.7122345,-93.9071579,-9.290122032,-2.963430405,1.113182425,-21.97939301,-13.14148235,19.24363327, 
361,4093722,-68.97674561,69.89486694,-93.03964996,-9.158717155,-3.281101704,0.65650779,-33.46263504,-14.04621696,16.79779816, 
362,4110389,-68.86603546,70.038414,-92.25489807,-9.099899292,-3.60737133,0.349878818,-36.79474258,-13.12973213,13.99097157, 
363,4127056,-68.85552216,70.15148926,-91.64619446,-9.01495266,-3.94810915,0.128421366,-32.8985405,-10.3422699,10.97826767, 
364,4143723,-68.94007874,70.25019073,-91.29469299,-8.946123123,-4.139746189,-0.001595373,-24.09486198,-5.74484539,8.288519859, 
365,4160390,-69.08452606,70.34523773,-91.22189331,-8.912252426,-4.196764469,-0.06116033,-11.94617462,-0.569108188,6.077372074, 
366,4177057,-69.2498703,70.45005798,-91.40120697,-8.845417976,-4.020448685,0.009926651,1.060135365,4.348358154,4.849969864, 
367,4193724,-69.47762299,70.57001495,-91.81990814,-8.796632767,-3.981829166,0.051569328,10.87394428,9.094717979,4.067248344, 
368,4210391,-69.75946808,70.70483398,-92.43765259,-8.826099396,-3.809043646,0.221123904,18.92316055,13.02911663,3.618313789, 
369,4227058,-70.1210022,70.8482666,-93.210289,-8.855804443,-3.595660448,0.429650903,22.95569992,15.96473598,3.192606449, 
370,4243725,-70.58263397,70.98891449,-94.10434723,-8.880990982,-3.53324008,0.629959047,23.87676811,18.01497841,2.412672281, 
371,4260392,-71.13287354,71.11618805,-95.08938599,-8.98194313,-3.471291065,0.808559179,23.76635933,19.28820419,1.299528599, 
372,4277059,-71.76133728,71.2193222,-96.14727783,-9.057905197,-3.49672699,0.994748294,23.24489212,20.04618835,-0.250358552, 
373,4293726,-72.43106842,71.28523254,-97.27596283,-9.232787132,-3.603557348,1.179559112,24.81563568,20.58044243,-2.511917114, 
374,4310393,-73.04401398,71.29691315,-98.4054184,-9.364187241,-3.665200233,1.210373044,28.2685585,19.62649155,-5.346628189, 
375,4327060,-73.3963089,71.27141571,-99.43706512,-9.369840622,-3.600217104,1.314940095,38.33587265,17.24228287,-6.744755745, 
376,4343727,-73.3670578,71.20909119,-100.1370392,-9.650971413,-2.274501324,2.379564762,42.35730743,10.55115986,-6.97249651, 
377,4360394,-73.21714783,71.10521698,-100.3815155,-9.809529305,-1.290681005,3.243601322,23.68818474,1.456238747,-6.877209663, 
378,4377061,-73.01963806,70.99975586,-100.3223419,-9.619950294,-1.605070472,2.879393816,9.274325371,-4.180410862,-5.31118679, 
379,4393728,-72.77038574,70.93508148,-100.1235962,-9.288302422,-2.019798994,2.208193302,4.436337948,-6.055887222,-2.192697525, 
380,4410395,-72.53890228,70.90198517,-99.94787598,-9.207481384,-2.488858223,1.746730804,4.660218716,-5.053892136,-0.515603006, 
381,4427062,-72.27051544,70.88582611,-99.78790283,-9.251974106,-3.003176928,1.490041614,7.759881496,-4.443016529,0.365032285, 
382,4443729,-71.9228363,70.87595367,-99.6333847,-9.236365318,-3.211358786,1.347499847,12.81351852,-4.216526031,0.709971786, 
383,4460396,-71.49459839,70.86870575,-99.46591187,-9.26894474,-3.11725688,1.258987427,16.90609169,-4.401566029,0.967046797, 
384,4477063,-71.001297,70.87358093,-99.26534271,-9.299174309,-2.912240505,1.156615496,18.9281559,-4.773515701,1.894369006, 
385,4493730,-70.47687531,70.88289642,-99.04044342,-9.254534721,-2.944002151,1.07889998,19.41303062,-5.121221066,2.332833529, 
386,4510397,-69.99045563,70.89324951,-98.81504822,-9.195981026,-2.858148813,1.022495031,17.10456276,-5.088884354,2.429059982, 
387,4527064,-69.56523132,70.89493561,-98.61880493,-9.172726631,-2.945201397,0.987976253,15.08868408,-4.714591503,1.770620227, 
388,4543731,-69.16877747,70.89273834,-98.43334198,-9.142213821,-2.839581966,0.937103629,13.97420788,-4.591303349,1.504875183, 
389,4560398,-68.86347198,70.88419342,-98.30056,-9.11723423,-2.890769482,0.89063406,11.49713612,-3.758799553,0.792252302, 
390,4577065,-68.61406708,70.86083221,-98.19013977,-9.095235825,-2.831692219,0.827716112,9.415397644,-3.675583601,-0.177131101, 
391,4593732,-68.48062134,70.82726288,-98.12480927,-9.03288269,-2.772132158,0.756247461,5.02194643,-3.083084345,-1.06618619, 
392,4610399,-68.46976471,70.79224396,-98.13988495,-9.059926033,-2.867199898,0.719091654,2.233504295,-1.651193023,-1.729439735, 
393,4627066,-68.52585602,70.75824738,-98.22567749,-9.08336544,-2.930104494,0.736149907,2.232774258,-0.336109072,-2.191262484, 
394,4643733,-68.61755371,70.73085785,-98.37376404,-9.122128487,-2.948966265,0.748331666,3.629601002,0.954841375,-2.270175457, 
395,4660400,-68.73699951,70.71322632,-98.58297729,-9.145726204,-2.879638195,0.844396532,5.434657097,2.296370983,-2.159682274, 
396,4677067,-68.87779999,70.7100296,-98.84736633,-9.105823517,-2.81189394,0.92086488,7.284099579,3.632009983,-1.746844292, 
397,4693734,-69.05808258,70.7147522,-99.18112946,-9.107782364,-2.80747962,1.06159246,8.848742485,5.088489532,-1.783624053, 
398,4710401,-69.27049255,70.72202301,-99.56257629,-9.116209984,-2.796639442,1.15536201,9.624078751,6.029885769,-1.958175182, 
399,4727068,-69.51467133,70.73345184,-99.97858429,-9.216361046,-2.693161249,1.296339631,9.677684784,6.764585018,-1.940694094, 
400,4743735,-69.78839111,70.73223877,-100.3817368,-9.309792519,-2.552181482,1.429844379,7.180675983,6.275574207,-2.531067133, 
401,4760402,-70.09114075,70.71013641,-100.7374191,-9.280869484,-2.51698637,1.57401216,2.743658304,4.987101078,-3.362967253, 
402,4777069,-70.39614868,70.67158508,-101.0386429,-9.205186844,-2.547107935,1.614052892,-0.484214514,3.676203728,-3.900385618, 
403,4793736,-70.64550018,70.62978363,-101.2828445,-9.213137627,-2.57725668,1.637080908,-0.385592848,2.583937407,-3.700145721, 
404,4810403,-70.83582306,70.59454346,-101.4704285,-9.246386528,-2.54012084,1.68889606,-0.059440669,1.684239864,-2.948386431, 
405,4827070,-70.99279785,70.5703125,-101.614151,-9.239048958,-2.599699736,1.684012413,-0.555136085,1.099335551,-2.041620493, 
406,4843737,-71.11553955,70.5546875,-101.7205353,-9.170310974,-2.721960545,1.597391605,-0.632704139,0.578859806,-1.311645627, 
407,4860404,-71.2354126,70.54112244,-101.8193283,-9.038256645,-2.75132966,1.453469038,-0.883529305,0.495426506,-1.151630282, 
408,4877071,-71.38478851,70.51959991,-101.9445267,-8.963620186,-2.817157984,1.345980406,-1.163783431,0.855989277,-1.77203393, 
409,4893738,-71.60760498,70.48787689,-102.1419067,-8.885672569,-2.820652246,1.209894657,-1.499693871,2.046198606,-2.806159258, 
410,4910405,-71.93588257,70.45619965,-102.4389801,-8.813779831,-2.829509974,1.169510961,-2.207091331,3.966792583,-3.415434837, 
411,4927072,-72.37471008,70.43552399,-102.8520355,-8.702013016,-2.881280184,1.112663865,-2.257817507,6.430133343,-3.474421024, 
412,4943739,-72.93506622,70.44189453,-103.4063034,-8.604895592,-3.004089117,1.080880761,-1.596817851,9.650701523,-2.698983908, 
413,4960406,-73.60072327,70.4773407,-104.0906982,-8.463356972,-3.183964968,1.061845422,-0.541190207,12.68093109,-1.661772013, 
414,4977073,-74.37405396,70.53461456,-104.9020615,-8.287540436,-3.386307001,1.156671762,0.173692629,15.47727871,-0.909718871, 
415,4993740,-75.2285614,70.59481812,-105.822052,-8.118813515,-3.584638119,1.230332851,1.462473989,17.5912838,-1.049206257, 
416,5010407,-76.12664032,70.64225006,-106.8283234,-7.893980026,-3.748001814,1.338448286,3.743684769,19.04454994,-1.897385001, 
417,5027074,-77.05012512,70.65449524,-107.8978729,-7.807304859,-4.080998421,1.359315038,5.778810978,19.78601074,-3.890197515, 
418,5043741,-77.98097992,70.61827087,-109.0103836,-7.991585732,-4.407982826,1.241970301,7.739453793,20.07695961,-6.543639183, 
419,5060408,-78.89614868,70.56809235,-110.1528625,-8.432893753,-4.482860565,1.009373665,10.33711624,20.65559578,-7.115190983, 
420,5077075,-79.71649933,70.55758667,-111.2745056,-9.222504616,-4.644891262,0.887878299,14.81792831,20.83481407,-4.342470169, 
421,5093742,-80.32535553,70.6182785,-112.2648087,-10.10412979,-4.87979126,0.974271178,20.06561852,19.02658463,0.620277226, 
422,5110409,-80.64151001,70.75463867,-112.9932251,-10.63164806,-4.992747784,1.068523049,22.81760788,14.55692768,6.169334888, 
423,5127076,-80.73979187,70.9464798,-113.4267578,-10.7504797,-4.884621143,1.03576231,19.20161057,9.233665466,10.49437618, 
424,5143743,-80.78644562,71.12468719,-113.6316452,-10.53553581,-4.794665337,0.853796184,9.335759163,4.613618851,10.45270348, 
425,5160410,-80.89342499,71.22786713,-113.7093735,-10.04811573,-4.807267189,0.60105592,-1.508671403,1.426781178,6.43781662, 
426,5177077,-81.12260437,71.21298981,-113.7974167,-9.458955765,-4.734443665,0.41206786,-8.262702942,0.491533399,-0.555866122, 
427,5193744,-81.50866699,71.07453156,-114.0108109,-8.970832825,-4.465960503,0.380668372,-10.56975937,1.779507637,-8.213441849, 
428,5210411,-82.03665161,70.8143158,-114.3994217,-8.62531662,-4.484525204,0.418911695,-9.169710159,4.236691475,-15.89183521, 
429,5227078,-82.61755371,70.46936035,-114.9623718,-8.45002079,-4.499919415,0.480434716,-2.524923801,7.261892319,-21.32712746, 
430,5243745,-83.1624527,70.08235931,-115.6708374,-8.317679405,-4.461769104,0.542653561,7.766828537,10.28515244,-24.10917473, 
431,5260412,-83.61412811,69.69548798,-116.4977722,-8.268229485,-4.377068043,0.61881429,19.92344475,13.19278431,-24.28661728, 
432,5277079,-83.92362976,69.33829498,-117.3782501,-8.329707146,-4.197223186,0.666432858,31.33531761,14.97030258,-22.55582809, 
433,5293746,-84.0684967,69.04079437,-118.2383499,-8.352304459,-3.937571287,0.688227355,39.95042038,15.28763199,-18.89455032, 
434,5310413,-84.08731079,68.83532715,-119.0548401,-8.385598183,-3.607138634,0.641223848,44.97825623,15.16511536,-13.29586506, 
435,5327080,-84.05439758,68.73492432,-119.8024216,-8.426115036,-3.407511234,0.691717923,44.17221451,14.45289898,-6.882372379, 
436,5343747,-84.03618622,68.74141693,-120.4547424,-8.453530312,-3.219706059,0.690033138,37.94682312,13.09422016,-0.300534695, 
437,5360414,-84.09526062,68.85881042,-121.0213776,-8.438816071,-3.129003763,0.651095152,28.52241325,11.90057278,6.512871265, 
438,5377081,-84.24243164,69.07963562,-121.5172653,-8.474081039,-3.312666416,0.618767381,19.31250572,10.91730976,12.86847591, 
439,5393748,-84.42610168,69.39027405,-121.9512253,-8.515963554,-3.585535288,0.597145021,13.69110584,9.980125427,18.40307236, 
440,5410415,-84.59999084,69.77027893,-122.3303833,-8.530846596,-3.899092674,0.623482585,11.2488451,9.038936615,22.71083832, 
441,5427082,-84.74647522,70.19931793,-122.682724,-8.594100952,-4.115547657,0.546196103,11.42774391,8.556986809,25.73651505, 
442,5443749,-84.86280823,70.6646347,-123.0371857,-8.596460342,-4.201738834,0.551692963,13.40331364,8.585970879,27.95705032, 
443,5460416,-84.95429993,71.14680481,-123.4088593,-8.628582954,-4.329994202,0.59867537,15.91679668,8.801726341,28.98297501, 
444,5477083,-84.99897003,71.62673187,-123.7819214,-8.68497467,-4.384173393,0.736419737,18.85551262,8.610503197,28.89298058, 
445,5493750,-84.99399567,72.09621429,-124.1346588,-8.680880547,-4.329731464,0.770957351,20.71811676,7.998472691,28.34538078, 
446,5510417,-84.93938446,72.55037689,-124.4492569,-8.687776566,-4.268964291,0.806336045,21.55183792,7.085721016,27.52196693, 
447,5527084,-84.81778717,72.99537659,-124.6993561,-8.745471954,-4.214687347,0.854830563,21.90367889,5.802876472,27.10211945, 
448,5543751,-84.59152222,73.43745422,-124.8397522,-8.879945755,-4.163121223,0.97135675,21.89614487,3.87323308,27.11515045, 
449,5560418,-84.19498444,73.8922348,-124.8243713,-8.926008224,-4.106676102,0.806092978,23.14439774,1.422049522,28.12860489, 
450,5577085,-83.72685242,74.39578247,-124.7506485,-9.431622505,-3.996605396,0.730347812,24.05680847,0.999323368,31.14949036, 
451,5593752,-83.22868347,74.95156097,-124.5801086,-10.51345348,-3.9576087,0.860659897,20.23559189,0.131099313,34.43157196, 
452,5610419,-82.62905121,75.55289459,-124.2194901,-11.23903942,-4.093519211,0.931148887,15.25722694,-1.982940078,37.49059677, 
453,5627086,-81.90844727,76.18920135,-123.6578827,-11.4773941,-4.138908863,0.833345056,10.74773026,-3.964287519,39.96200562, 
454,5643753,-81.20594025,76.82550049,-123.0540161,-11.4556551,-4.222325325,0.709475577,7.100803375,-3.699001312,40.04589081, 
455,5660420,-80.60798645,77.41056824,-122.588295,-11.54614162,-4.435407162,0.819450676,8.812770844,-1.541834593,36.71430969, 
456,5677087,-79.94898987,77.91053772,-122.2288284,-11.48064327,-4.754268169,1.169624925,18.63722992,-0.407954544,31.44133186, 
457,5693754,-78.99962616,78.29782104,-121.9374313,-11.1359396,-5.136022091,1.647341728,39.99467087,-0.217575178,24.63362694, 
458,5710421,-77.50458527,78.53664398,-121.5989227,-10.84347916,-5.282885075,2.069067955,69.92118073,-1.96839118,16.03371429, 
459,5727088,-75.24440765,78.56856537,-120.9871292,-10.53283119,-4.786783218,2.192027092,99.70349121,-7.488476276,4.801372528, 
460,5743755,-72.26480865,78.37486267,-119.951973,-10.37080956,-3.767110825,1.915232897,117.9599533,-15.98484707,-6.427847385, 
461,5760422,-69.03662109,77.93296814,-118.7242203,-10.27334023,-2.823179007,1.724111199,121.6061783,-23.83433914,-18.72242737, 
462,5777089,-65.89463806,77.23392487,-117.3859787,-10.29016209,-1.927831292,1.827258587,110.1075058,-32.77013016,-30.84228325, 
463,5793756,-63.14651871,76.27857208,-116.0089188,-10.30726051,-1.284329534,2.035084009,84.45265961,-42.47348404,-42.33198166, 
464,5810423,-61.12483215,75.08554077,-114.7892838,-10.27960205,-1.135636449,2.073485613,50.38264084,-50.16843033,-53.56733322, 
465,5827090,-59.81685638,73.69081116,-113.7882843,-10.22822666,-1.393920302,1.951551557,20.628088,-56.01968765,-63.61399078, 
466,5843757,-59.06811905,72.14585876,-113.0263519,-10.24329567,-1.679978848,1.781087399,1.21247828,-59.41298676,-71.7720871, 
467,5860424,-58.65811539,70.49167633,-112.4435043,-10.00550652,-2.011974812,1.552154303,-8.530897141,-61.65036011,-77.9488678, 
468,5877091,-58.46340942,68.78394318,-112.0597916,-9.45304966,-2.248027802,1.336999297,-9.88550663,-61.04578781,-82.04427338, 
469,5893758,-58.35530472,67.07473755,-111.8801498,-8.857851028,-2.47607851,1.236798167,-3.469681501,-57.96819305,-84.0453949, 
470,5910425,-58.1920929,65.41153717,-111.8724518,-8.428057671,-2.530721426,1.287496805,9.425559998,-53.45819473,-83.59831238, 
471,5927092,-57.91926575,63.8285408,-111.9938354,-8.093972206,-2.433722734,1.378416657,23.02194595,-48.45159912,-81.08039856, 
472,5943759,-57.55408478,62.36086273,-112.2127686,-7.87488699,-2.309858322,1.42331183,33.71751785,-42.84672165,-76.48605347, 
473,5960426,-57.12573242,61.03115463,-112.5013046,-7.736619473,-2.10652256,1.43976748,41.05315781,-37.02739716,-70.46967316, 
474,5977093,-56.66954041,59.8520813,-112.8246231,-7.641997814,-1.951273441,1.595223784,44.37467194,-31.51472473,-63.39257813, 
475,5993760,-56.25354385,58.82138443,-113.1602631,-7.579939365,-1.819191694,1.581060648,42.42460632,-26.51426315,-56.15723419, 
476,6010427,-55.92459869,57.94364548,-113.509613,-7.36288929,-1.694503307,1.416971564,37.75010681,-21.17938614,-48.81261063, 
477,6027094,-55.69802094,57.23850632,-113.8934479,-7.061394215,-1.754362583,1.345225096,33.21831894,-14.4939127,-40.94996643, 
478,6043761,-55.62473679,56.71024704,-114.3355408,-6.743112087,-1.907008171,1.723553181,26.83608818,-6.883951187,-33.38090134, 
479,6060428,-55.67165756,56.37421036,-114.8129425,-6.568509102,-2.211844683,2.269068241,21.29117584,0.707732797,-24.64420319, 
480,6077095,-55.76390839,56.21069717,-115.2930374,-6.625511169,-2.680083275,2.783131361,18.63872337,6.726665497,-16.22680092, 
481,6093762,-55.84104919,56.18370056,-115.7197189,-6.59832859,-3.04776001,2.938318729,16.84963608,9.916088104,-8.474352837, 
482,6110429,-55.86408997,56.27677536,-116.1036987,-6.381982803,-3.30351758,2.85847497,17.96652031,12.78027153,-1.709618568, 
483,6127096,-55.81771851,56.47580719,-116.4755173,-6.186947346,-3.424889088,2.800077438,21.54764938,15.97752666,3.797323227, 
484,6143763,-55.72426224,56.75852203,-116.8529129,-6.111301899,-3.334287167,3.058867216,24.698452,18.89718246,7.864151001, 
485,6160430,-55.64437103,57.10623169,-117.2316742,-6.102239609,-3.344546318,3.178342819,24.010849,21.06259727,11.0860405, 
486,6177097,-55.59367371,57.51823425,-117.605835,-6.056188583,-3.491539717,3.313935518,22.09688759,23.03385544,14.40005875, 
487,6193764,-55.5855751,57.98968124,-117.9831161,-6.062624931,-3.564231157,3.422068596,19.7746582,25.02870369,17.36107254, 
488,6210431,-55.61923981,58.51462173,-118.3702927,-6.088860989,-3.78890872,3.566188335,17.85969925,26.9679184,19.93604088, 
489,6227098,-55.69491196,59.08934021,-118.8129349,-6.26798296,-3.94532156,3.5690341,18.28573227,29.91514587,21.57502365, 
490,6243765,-55.78471756,59.70726776,-119.3277893,-6.528403282,-3.983718872,3.629974604,21.28898239,32.98276138,22.66147423, 
491,6260432,-55.85193253,60.37122345,-119.9233322,-6.795590878,-3.957207203,3.673453331,26.98906517,36.27089691,23.81147194, 
492,6277099,-55.80682373,61.07184219,-120.5530853,-7.094082832,-4.155282497,3.762345076,35.71361923,38.04288101,25.29042053, 
493,6293766,-55.57236099,61.79449081,-121.1799164,-7.382975101,-4.242515087,3.878483295,47.12779236,38.45632553,26.57146454, 
494,6310433,-55.14754868,62.53614044,-121.7885284,-7.864169598,-4.090185165,3.993552446,57.78556061,38.50146103,27.81797409, 
495,6327100,-54.59232712,63.28247452,-122.3575134,-8.709864616,-3.880979538,4.098686218,63.68717575,37.68273926,28.58309937, 
496,6343767,-53.98937225,63.99585342,-122.8775253,-9.562754631,-3.660937786,4.091276646,64.09555817,35.45451736,27.56923676, 
497,6360434,-53.43515396,64.6521759,-123.3558655,-10.26932144,-3.368963003,3.945971489,59.065979,32.56980896,25.26844215, 
498,6377101,-53.06958389,65.21446228,-123.8715897,-11.02352333,-3.271077156,3.912594318,49.8936348,29.94484138,20.060112, 
499,6393768,-52.93648911,65.65187073,-124.4586258,-11.44630051,-3.183638573,4.076528072,39.93958664,26.75504112,12.99711037, 
500,6410435,-53.03855133,65.92259979,-125.1398315,-11.38431263,-2.852401972,4.238119602,31.05805588,22.43881035,3.714193344, 
501,6427102,-53.58866501,66.02887726,-126.0378952,-11.21207523,-2.564794064,4.115857601,16.09473038,20.68314362,-7.181698322, 
502,6443769,-54.51966476,65.9690094,-127.1735077,-12.52700233,-2.517448425,4.142921925,6.25092411,19.61705017,-18.3827858, 
503,6460436,-55.5966568,65.71812439,-128.2160797,-12.84597111,-1.903741956,3.8610394,-7.697247505,11.65127754,-26.23184395, 
504,6477103,-56.89262772,65.34658051,-129.2486572,-12.0861187,-2.067924261,3.504972458,-21.54144096,8.230020523,-32.05835342, 
505,6493770,-58.20895004,64.91378021,-130.1763,-12.58262444,-2.290379763,3.695770741,-28.66931915,5.095618725,-33.76586533, 
506,6510437,-59.3686142,64.38274384,-130.8303375,-11.90036869,-2.29515481,3.6235075,-34.32115173,-2.871855021,-35.27870178, 
507,6527104,-60.2489624,63.77645493,-131.1746979,-10.47752285,-2.44262886,3.237205029,-34.46173859,-11.22462845,-35.32629395, 
508,6543771,-61.03398895,63.12530518,-131.3533173,-9.225297928,-2.780470133,2.681871891,-37.7506752,-15.72380638,-35.75733566, 
509,6560438,-61.84954071,62.42691803,-131.4870453,-8.978883743,-3.115012884,2.172344685,-42.04463959,-17.56152916,-37.91769409, 
510,6577105,-62.62711334,61.70412064,-131.5605316,-9.354258537,-3.254410267,1.863725901,-43.00166702,-19.14117622,-38.69811249, 
511,6593772,-63.25309753,60.99370575,-131.5233612,-9.591236115,-3.459355593,1.79372251,-39.7513504,-21.126894,-36.8391037, 
512,6610439,-63.7037468,60.31154251,-131.3637848,-10.02165604,-3.979846239,2.036364794,-35.60830688,-23.27627754,-33.90153503, 
513,6627106,-63.93891907,59.649086,-131.0568542,-10.55741501,-4.636325836,2.517959833,-30.26913834,-26.61900139,-30.98492813, 
514,6643773,-63.97250366,58.97902679,-130.5750275,-10.85703182,-5.002139091,2.570621729,-27.08281136,-31.732584,-29.02141953, 
515,6660440,-63.86146927,58.24303055,-129.9280396,-10.51401138,-5.34361887,2.457363367,-26.67675591,-38.4126091,-30.15175819, 
516,6677107,-63.65659714,57.38388443,-129.192749,-9.666539192,-5.457232952,2.22793293,-25.23438072,-44.72009277,-35.21740723, 
517,6693774,-63.46036148,56.37614822,-128.4606476,-8.737597466,-5.294272423,2.094438314,-25.19252968,-49.27869034,-42.81054306, 
518,6710441,-63.3575058,55.20794678,-127.7882233,-8.030256271,-5.120846272,2.005006552,-27.3562851,-52.53888321,-51.8731575, 
519,6727108,-63.32091522,53.92672729,-127.1761322,-7.389401913,-5.030647755,1.903529763,-27.87816048,-54.42105484,-58.47873306, 
520,6743775,-63.26595306,52.59334564,-126.6005096,-6.879634857,-5.081487656,1.914179802,-24.51458359,-55.32919693,-61.50236511, 
521,6760442,-63.16049576,51.26359558,-126.0618896,-6.461402416,-5.154493809,1.815090656,-19.23722839,-54.68515396,-61.54420471, 
522,6777109,-62.95289993,49.97492218,-125.5598907,-6.169378757,-5.220797062,1.659646511,-10.93181992,-53.02585983,-59.55426407, 
523,6793776,-62.60824585,48.76879501,-125.0838089,-5.981973171,-4.969768047,1.478699803,-1.088157773,-50.61242676,-55.12161636, 
524,6810443,-62.15979004,47.67451096,-124.623909,-5.893760681,-4.648525715,1.296364427,6.26477766,-47.7131958,-48.92163467, 
525,6827110,-61.6635704,46.71676636,-124.1852951,-5.798289299,-4.411306858,1.148715973,10.42683697,-43.83192062,-41.54504776, 
526,6843777,-61.19307327,45.91127014,-123.7644806,-5.754781723,-4.1339674,1.055671453,9.960555077,-39.44408798,-33.3739624, 
527,6860444,-60.79578781,45.2774353,-123.3556747,-5.690320492,-3.993087769,0.998771846,6.332152843,-34.47293472,-24.22247314, 
528,6877111,-60.48270416,44.8216362,-122.9630127,-5.668103218,-4.098105907,0.952349484,2.159863234,-28.94711685,-14.97128773, 
529,6893778,-60.22425079,44.5423851,-122.5978012,-5.603928089,-4.210277081,0.89585036,0.177918971,-22.86707306,-6.166199207, 
530,6910445,-59.9924469,44.43423462,-122.2675171,-5.565810204,-4.344825268,0.9148525,0.132507443,-16.53386688,2.090177774, 
531,6927112,-59.76200485,44.48526001,-121.9847336,-5.594920635,-4.384493828,0.870573223,2.087039232,-9.986351967,9.381771088, 
532,6943779,-59.51553726,44.69547272,-121.7602386,-5.692515373,-4.343520641,0.761811435,5.509361267,-2.955062151,16.36883736, 
533,6960446,-59.23302078,45.07708359,-121.6049194,-5.89770174,-4.295411587,0.791355193,10.58694649,4.925129414,23.68436432, 
534,6977113,-58.94506073,45.64576721,-121.527153,-6.316386223,-4.162260056,0.829257488,14.20387363,13.65452957,31.55751991, 
535,6993780,-58.64230347,46.42150116,-121.5006256,-6.743100643,-4.123412132,0.948578715,17.30257797,22.10642242,40.95053864, 
536,7010447,-58.29869843,47.4156456,-121.5105667,-7.317979813,-4.139042377,1.114614248,21.36868286,30.47196007,51.17151642, 
537,7027114,-57.88853836,48.62324142,-121.5178909,-7.996599197,-4.004662037,1.410549641,25.2885685,37.47381973,61.86170197, 
538,7043781,-57.39979172,50.03385925,-121.481102,-8.554685593,-3.766231298,1.529355049,28.03170204,43.00493622,72.7403183, 
539,7060448,-56.87144852,51.64694214,-121.3957825,-9.121930122,-3.47628212,1.59584403,28.14359856,48.72640228,83.48216248, 
540,7077115,-56.30086899,53.47158432,-121.2267761,-9.82836628,-3.279818773,1.812016487,26.62322044,54.05666733,95.17098236, 
541,7093782,-55.64788055,55.5244751,-120.922081,-10.71098995,-3.099636316,2.100248814,24.76623535,59.03305817,108.3746414, 
542,7110449,-54.85673141,57.79317474,-120.4135208,-12.02701569,-3.034842014,2.620802164,22.4669857,62.7050972,121.7108994, 
543,7127116,-53.87784958,60.20782471,-119.5526581,-13.26698494,-2.821846485,2.886480093,14.96845913,61.67728424,133.5098877, 
544,7143783,-52.81212234,62.69732666,-118.2376785,-13.84164906,-2.345985174,2.542745829,-4.833551407,57.81197739,142.5475311, 
545,7160450,-51.81016159,65.21259308,-116.466423,-13.99833298,-1.933683872,2.128275871,-34.81633759,54.21755981,148.1114349, 
546,7177117,-50.95349503,67.64028931,-114.2338181,-13.21449661,-1.804630518,1.954754591,-70.79937744,47.92416763,147.3521729, 
547,7193784,-50.36418152,69.92900085,-111.7806854,-11.43392849,-1.956396699,1.993468404,-101.2492294,44.73308945,140.0391235, 
548,7210451,-50.17447281,72.04814148,-109.4298172,-10.06186008,-2.533124208,2.592243671,-121.3484726,44.81971359,127.2124405, 
549,7227118,-50.29108047,73.93890381,-107.4279785,-9.088626862,-3.884004116,3.219179153,-121.2219086,44.4766922,109.7443161, 
550,7243785,-50.2596817,75.61087036,-105.8436661,-9.317047119,-5.217090607,3.596614599,-89.22106171,43.85315323,93.22361755, 
551,7260452,-49.03205872,77.06384277,-104.1437836,-9.365653992,-5.337545872,3.654754877,-24.85983086,37.0488472,82.19558716, 
552,7277119,-46.86790085,78.35491943,-102.2934875,-10.09445477,-4.816001892,3.80926609,21.93257713,33.30962372,73.5681076, 
553,7293786,-43.76697159,79.42169952,-99.95754242,-10.89779186,-3.92423892,3.351077557,49.05152893,24.78997231,64.76689148, 
554,7310453,-39.98902512,80.2301178,-96.96434784,-10.82843208,-2.715335608,2.981707811,50.40719986,13.93731308,56.29682159, 
555,7327120,-36.2015419,80.76328278,-93.53236389,-10.09555435,-1.53495872,2.744591951,24.64113235,3.212171555,46.8143425, 
556,7343787,-33.13815689,81.04399872,-90.12662506,-8.8540411,-0.906799555,2.69515729,-17.50330353,-5.487418652,36.49478531, 
557,7360454,-31.42419052,81.13942719,-87.40803528,-7.960728645,-1.336055994,2.694808245,-57.85858154,-9.595172882,24.76946068, 
558,7377121,-30.95174026,81.06492615,-85.52211761,-7.620672703,-1.911464334,2.438265324,-83.01290131,-13.80935669,13.03727341, 
559,7393788,-31.37161255,80.88143158,-84.32000732,-7.360543728,-2.169434547,2.133986712,-96.01747894,-16.1792984,4.399154186, 
560,7410455,-32.20706177,80.65084076,-83.52206421,-7.227028847,-2.579740047,1.862874269,-96.99036407,-16.70264435,-0.318498373, 
561,7427122,-32.99172211,80.41844177,-82.86412811,-7.275654793,-2.959242344,1.752741933,-85.63893127,-16.1301899,-1.565522194, 
562,7443789,-33.53408051,80.20553589,-82.22005463,-7.422648907,-3.269624233,1.774870157,-70.27101898,-15.13133144,-1.053655148, 
563,7460456,-33.84896469,80.02264404,-81.61200714,-7.461308002,-3.340730906,1.786238074,-54.4830513,-13.48718834,-0.32155177, 
564,7477123,-34.0136528,79.9021759,-81.09222412,-7.424785137,-3.222162008,1.823168635,-40.25375748,-9.916676521,1.06423974, 
565,7493790,-34.22974396,79.84601593,-80.80599213,-7.509200573,-3.101372957,1.941881895,-29.54741287,-5.362797737,1.23767364, 
566,7510457,-34.65503311,79.83144379,-80.86008453,-7.608150482,-2.891688585,2.072691441,-22.0199852,-1.276545644,-0.304516315, 
567,7527124,-35.43304443,79.84065247,-81.3671875,-7.373009205,-2.633754969,2.071392536,-16.43779373,2.656705618,-3.39077282, 
568,7543791,-36.68254471,79.86886597,-82.45314026,-7.103376389,-2.581106186,1.985524058,-10.56032181,7.252830029,-7.561802387, 
569,7560458,-38.49356079,79.90992737,-84.2505188,-7.136126518,-2.779598951,1.990210652,-2.235895157,12.63000774,-12.75807762, 
570,7577125,-40.65627289,79.95676422,-86.63555145,-7.4970541,-2.96427393,2.20960331,11.37647438,17.23000145,-16.72612762, 
571,7593792,-42.93278122,79.99586487,-89.42108917,-8.349351883,-3.063849926,2.680109978,28.21025276,20.27262688,-19.33416748, 
572,7610459,-45.0668869,79.98891449,-92.31575775,-9.538589478,-2.933964014,3.141501665,43.18159866,19.81514549,-21.18004036, 
573,7627126,-46.86254501,79.90486145,-94.98810577,-10.23460674,-2.571624279,3.081712723,50.30199814,15.77783489,-22.24384308, 
574,7643793,-48.5501976,79.73214722,-97.46842957,-10.38217926,-2.12555027,2.848875999,45.3560524,11.66151142,-24.51970673, 
575,7660460,-50.44187164,79.45829773,-99.88952637,-10.24817753,-1.78451848,2.780056477,29.49360085,8.463436127,-28.6763916, 
576,7677127,-52.72648621,79.09407806,-102.3691788,-10.32317448,-1.820686698,3.022842646,9.204490662,7.307271957,-33.46432495, 
577,7693794,-55.3358078,78.68025208,-104.8602982,-10.6900301,-2.147913933,3.11816597,-9.820080757,7.939733982,-36.14331818, 
578,7710461,-57.90977478,78.30110168,-107.1985397,-11.40253258,-2.798924923,3.088332176,-16.91454315,10.07245159,-33.51812744, 
579,7727128,-60.06195831,78.01391602,-109.1969681,-12.22089577,-3.502612591,3.43960166,-11.75540352,11.42656803,-26.55878639, 
580,7743795,-61.37253571,77.7763443,-110.5990906,-12.45389938,-4.111100197,4.096427441,3.617389917,7.642854691,-20.15239334, 
581,7760462,-61.83157349,77.48012543,-111.4363022,-11.3132391,-4.288702011,4.093977451,21.48025703,0.255513072,-19.82657433, 
582,7777129,-61.84300613,77.03522491,-112.1157608,-10.28580761,-4.281251907,3.691782713,38.992733,-5.411973953,-26.82055473, 
583,7793796,-61.51485825,76.35823059,-112.7901306,-10.00655746,-4.514704704,3.263646841,58.94600677,-11.80177307,-39.19416046, 
584,7810463,-60.83301163,75.4258728,-113.4777222,-10.5288229,-4.296947956,3.164681435,80.77259827,-18.88131905,-52.85205841, 
585,7827130,-59.63154221,74.2699585,-113.8747787,-11.44028282,-3.470230103,3.317656517,94.90557098,-29.74094963,-62.26953125, 
586,7843797,-58.07651901,72.93763733,-113.8514099,-12.1055584,-2.674044132,3.445850134,91.75539398,-42.38916016,-67.17661285, 
587,7860464,-56.51269531,71.44393921,-113.4679947,-12.65795994,-2.395191193,3.240500212,71.71082306,-55.04544067,-70.57713318, 
588,7877131,-55.17799377,69.77111816,-112.8369904,-12.64523029,-2.226999521,2.777620316,44.14634323,-67.45529938,-74.96814728, 
589,7893798,-54.35071564,67.91095734,-112.1983871,-11.90683174,-2.154220343,2.213298082,13.67978382,-76.40505219,-82.15342712, 
590,7910465,-54.0633812,65.86177063,-111.6874466,-11.09200478,-2.475798607,1.86798048,-11.1635952,-82.40969849,-91.66577148, 
591,7927132,-54.17301941,63.65319824,-111.3645935,-10.30929279,-2.724097252,1.693841219,-24.28896713,-85.13272095,-101.5008163, 
592,7943799,-54.49128342,61.34555817,-111.2066574,-9.839860916,-2.924464226,1.477784753,-27.66641045,-85.09169769,-108.9115219, 
593,7960466,-54.82651138,59.01382446,-111.1801987,-9.474691391,-3.220722914,1.277980685,-21.6305542,-82.40914154,-112.6468735, 
594,7977133,-54.97797394,56.72564697,-111.2243805,-9.22623539,-3.192198753,1.088573933,-6.956531525,-78.65730286,-112.1251068, 
595,7993800,-54.87464523,54.53958893,-111.2934494,-8.800927162,-3.091985226,0.931116641,9.541207314,-74.35606384,-107.6972656, 
596,8010467,-54.55983353,52.49866104,-111.3724136,-8.337472916,-2.725117683,0.860396922,22.65329742,-69.3599472,-100.6130142, 
597,8027134,-54.11434555,50.62769318,-111.446846,-7.903465748,-2.572252274,0.740773201,30.21133995,-64.14248657,-91.87620544, 
598,8043801,-53.64169693,48.93437958,-111.5168915,-7.472442627,-2.159050703,0.660496116,31.59055138,-58.66756058,-82.75034332, 
599,8060468,-53.26093292,47.42185974,-111.5816498,-7.01820612,-1.881393075,0.541261673,25.7983799,-52.9442482,-73.56630707, 
600,8077135,-53.02981567,46.11068726,-111.6365356,-6.572053432,-1.720419168,0.395283878,16.34936523,-46.38034058,-63.45710373, 
601,8093802,-52.97070694,45.01865768,-111.6801529,-6.263458729,-1.69230628,0.260637134,5.533259869,-38.97977448,-52.62661743, 
602,8110469,-53.07554626,44.17803955,-111.7167511,-6.131590366,-1.761638522,0.127604261,-4.600049973,-30.11188698,-40.46846008, 
603,8127136,-53.29858017,43.62760544,-111.7339401,-6.102278233,-1.840318084,0.013208711,-12.48902988,-20.22879982,-26.16095734, 
604,8143803,-53.56352997,43.41235733,-111.7270584,-6.204255104,-1.975137949,-0.052426048,-15.9663353,-8.975862503,-9.51288414, 
605,8160470,-53.80139923,43.55273438,-111.6900787,-6.455983162,-2.21858716,0.014421908,-15.55520439,2.640825748,8.379652023, 
606,8177137,-53.97806168,44.05249023,-111.6210403,-6.792357922,-2.387538433,0.206291094,-13.18579388,14.20198822,26.57985687, 
607,8193804,-54.09660721,44.9039917,-111.5242767,-7.104547977,-2.437645912,0.391431689,-10.86474895,25.5939045,44.33189011, 
608,8210471,-54.17924881,46.09958267,-111.4141235,-7.623456001,-2.542215824,0.542173028,-9.326134682,37.20834351,61.3530426, 
609,8227138,-54.19223022,47.62402725,-111.2909927,-8.310749054,-2.710473537,0.784165442,-5.787444115,48.36237335,77.58320618, 
610,8243805,-54.05197906,49.46830368,-111.1257782,-9.342838287,-2.865581274,1.057424784,1.401395321,58.46731567,93.91615295, 
611,8260472,-53.66040802,51.62122726,-110.8622589,-10.56526089,-3.033960342,1.451123953,11.73842716,67.00257111,110.6012573, 
612,8277139,-52.90430832,54.03482056,-110.417366,-11.98287868,-3.163867712,1.857463956,24.57744026,72.57073975,126.0366592, 
613,8293806,-51.74595261,56.61694336,-109.6996841,-13.21874809,-2.980753899,2.197178602,34.59937668,74.20410919,137.8569794, 
614,8310473,-50.3161087,59.29802322,-108.6613846,-14.12318802,-2.393934965,2.013361216,33.5211525,74.35839081,146.0671844, 
615,8327140,-48.75124359,61.98453522,-107.2566605,-14.89749146,-1.915331602,1.978745103,21.00319481,72.04376221,149.6072388, 
616,8343807,-47.20755005,64.4927597,-105.4418564,-13.86469746,-1.706549287,2.230300903,-3.994479179,63.16294098,144.7216644, 
617,8360474,-46.10461044,66.76739502,-103.5872726,-11.94057655,-1.562229156,2.735999823,-34.53892517,59.12195969,130.8299713, 
618,8377141,-45.53440094,68.77990723,-101.9208069,-10.64943981,-1.67229712,3.514411211,-57.68429565,55.8711853,113.0018158, 
619,8393808,-45.55334091,70.54077911,-100.6801758,-9.901800156,-2.188498735,4.000193596,-70.26909637,54.38687515,93.58178711, 
620,8410475,-45.78150558,72.02432251,-99.81739044,-10.13561344,-2.972735882,4.05880928,-62.06521225,49.20401382,75.33547211, 
621,8427142,-45.62965393,73.25421906,-98.95313263,-10.389534,-3.262665749,3.862846136,-39.74227142,39.35784912,63.69290924, 
622,8443809,-45.01785278,74.28144073,-97.85774994,-10.48886395,-2.787304878,3.392861843,-25.77377892,29.18361855,56.83500671, 
623,8460476,-43.75164795,75.08306122,-96.2363739,-10.09296608,-2.498666525,2.556796789,-17.25032997,15.32152462,52.11623764, 
624,8477143,-42.48880005,75.82148743,-94.33088684,-9.36107254,-1.640039444,2.460172415,-34.29593658,11.6402235,51.36340714, 
625,8493810,-41.34150314,76.49435425,-92.14378357,-8.893565178,-1.727656603,2.504507542,-57.98390961,8.008748055,50.4534111, 
626,8510477,-40.37005615,77.11432648,-89.79298401,-8.408098221,-2.129909992,2.642872095,-78.45610809,6.031562805,48.82332611, 
627,8527144,-39.46489716,77.69438934,-87.32714081,-8.063623428,-2.749609947,2.711310387,-89.51129913,4.961948395,47.22574997, 
628,8543811,-38.44636536,78.24755096,-84.74274445,-7.928587914,-3.220339537,2.619392157,-89.99520874,4.485047817,46.17460251, 
629,8560478,-37.24816513,78.78790283,-82.12866974,-7.819606781,-3.713592768,2.435189486,-81.28186035,5.453007698,44.75513077, 
630,8577145,-35.74206924,79.3223877,-79.50699615,-7.869302273,-4.216719627,2.243695498,-63.55216599,7.038274288,43.3271637, 
631,8593812,-33.91143036,79.84611511,-76.95606232,-7.839984894,-4.32988596,2.300475597,-40.1943512,9.022719383,40.95027161, 
632,8610479,-31.9342804,80.34406281,-74.59778595,-7.982750416,-4.122932434,2.592265368,-20.27291107,10.88739109,37.00362778, 
633,8627146,-30.12282181,80.78782654,-72.61408997,-8.116726875,-3.860340357,2.792451143,-8.258817673,11.80131721,30.81583977, 
634,8643813,-28.71121979,81.16300201,-71.16268921,-8.252807617,-3.703502417,2.887544632,-0.866844654,11.9573555,23.37220764, 
635,8660480,-27.94703865,81.4597168,-70.44023895,-8.397580147,-3.545098066,3.03885293,3.421335936,11.63426304,14.67020512, 
636,8677147,-27.9932003,81.63791656,-70.59870148,-8.532972336,-3.473987579,3.233553648,7.027833939,9.176497459,4.272123814, 
637,8693814,-29.02902222,81.65687561,-71.77874756,-8.375263214,-3.131960392,3.209402084,8.267681122,5.008040905,-7.963114262, 
638,8710481,-31.18325615,81.50548553,-74.05459595,-8.142011642,-2.770171404,3.051452398,6.170546055,1.272249222,-21.29366112, 
639,8727148,-34.30345154,81.18463135,-77.26428986,-7.901977539,-2.50259161,2.883007288,3.48506999,-1.384864926,-34.18497849, 
640,8743815,-38.01662064,80.69177246,-81.05193329,-7.834026814,-2.272812843,3.006692648,1.927536368,-3.617763042,-45.71970749, 
641,8760482,-41.84682083,80.03800201,-84.93874359,-8.010800362,-2.044628143,3.098620653,0.376843631,-5.872292519,-54.45560074, 
642,8777149,-45.36849213,79.26758575,-88.49242401,-8.455331802,-1.813557148,2.982672215,-1.308741927,-7.892824173,-58.93678284, 
643,8793816,-48.34841156,78.44247437,-91.46635437,-9.262784004,-1.719612956,2.818384409,-3.505891323,-9.52154541,-59.02641296, 
644,8810483,-50.70411301,77.58547974,-93.72877502,-9.781650543,-1.674399018,2.71110487,-8.35964489,-12.7641592,-56.72816467, 
645,8827150,-52.69971848,76.71513367,-95.47033691,-9.391256332,-1.51507771,2.489150763,-17.67698479,-14.95936775,-54.69763565, 
646,8843817,-54.69626999,75.86743164,-97.04698944,-8.939828873,-1.633532405,2.28018117,-27.72602081,-12.87683487,-53.57207108, 
647,8860484,-56.86793137,75.06768036,-98.73358154,-9.08333683,-2.035301685,2.136909246,-32.19031143,-6.819121838,-53.25899124, 
648,8877151,-59.08881378,74.35663605,-100.5882492,-10.34774017,-2.537116528,2.237407446,-25.7659626,1.419894695,-51.02855682, 
649,8893818,-61.02323151,73.79494476,-102.4574966,-12.50483894,-3.109230518,2.568593979,-8.081653595,9.001058578,-43.8608551, 
650,8910485,-62.06519699,73.37999725,-103.8411789,-14.56558037,-3.520456076,3.310153008,17.24098015,7.919768333,-32.36752701, 
651,8927152,-61.84047318,73.00282288,-104.2975769,-13.81561184,-3.453091621,3.644937992,39.80324554,-4.48793602,-22.99659348, 
652,8943819,-61.00059891,72.5447464,-104.2711029,-11.53901482,-2.96215868,3.191741705,48.96200943,-14.38877869,-23.21269417, 
653,8960486,-60.13219452,71.91481781,-104.2216568,-10.47499084,-2.722059011,2.383496284,49.34904099,-20.18151283,-31.77634811, 
654,8977153,-59.33319855,71.08747101,-104.2925262,-10.76352024,-2.229835987,2.005654097,52.03833008,-24.67627907,-42.85985947, 
655,8993820,-58.46230698,70.07450104,-104.2753143,-11.91107273,-1.817911029,1.971237421,51.33874893,-32.51503754,-51.17789078, 
656,9010487,-57.39604568,68.89823151,-103.9525299,-12.72613716,-1.664211392,2.096738338,45.90188217,-44.05534744,-55.53397751, 
657,9027154,-56.25945663,67.59222412,-103.2846375,-13.57904243,-1.365319729,2.145838737,31.04331207,-56.14550781,-56.81430817, 
658,9043821,-55.22789764,66.12115479,-102.2276917,-13.32387543,-1.094423413,1.859263539,3.650033951,-71.12983704,-58.29746246, 
659,9060488,-54.63562012,64.47856903,-101.0342178,-11.92169571,-0.877739072,1.395991325,-29.43449974,-81.97121429,-62.87433624, 
660,9077155,-54.65204239,62.66471863,-99.9389267,-10.65650463,-1.062877655,0.951922297,-59.73352814,-87.70243073,-71.26418304, 
661,9093822,-55.21728134,60.70374298,-99.02287292,-9.656673431,-1.261627436,0.607590318,-82.1785965,-89.82077789,-80.77643585, 
662,9110489,-56.19390106,58.65403748,-98.30000305,-9.096055031,-1.33743751,0.38073048,-95.8914032,-88.29003906,-88.74531555, 
663,9127156,-57.38027573,56.58889008,-97.6984024,-8.983324051,-1.539188623,0.246346697,-101.4985275,-84.96476746,-92.58220673, 
664,9143823,-58.5476532,54.5776329,-97.1335907,-8.994311333,-2.026140213,0.089756742,-97.80763245,-81.18312073,-91.66786194, 
665,9160490,-59.50378799,52.68779755,-96.53062439,-9.195464134,-2.189587593,0.067606248,-86.28416443,-77.69406891,-85.73944092, 
666,9177157,-60.17257309,50.96912766,-95.83028412,-9.409925461,-2.266340494,0.019712295,-72.92195892,-75.21942902,-75.70042419, 
667,9193824,-60.55028152,49.45354843,-94.99875641,-9.482924461,-2.289529562,-0.061123148,-60.73156357,-73.67822266,-62.87722015, 
668,9210491,-60.67084122,48.1774292,-94.03884125,-9.302124023,-2.097572803,-0.197362274,-50.27906036,-71.57990265,-47.77599716, 
669,9227158,-60.62824249,47.16201019,-92.98366547,-9.064478874,-1.889543653,-0.260180473,-43.91856384,-67.98493958,-31.9305191, 
670,9243825,-60.51568985,46.41017914,-91.85191345,-8.797071457,-1.660358667,-0.246342406,-42.37615585,-63.62176514,-16.2181263, 
671,9260492,-60.3953476,45.93301773,-90.65138245,-8.529601097,-1.494587898,-0.18849735,-44.35512543,-58.47116089,-0.138778642, 
672,9277159,-60.28925323,45.73495102,-89.38352966,-8.378048897,-1.500962496,-0.032612812,-47.78367233,-52.88921356,16.01821327, 
673,9293826,-60.16519165,45.80726624,-88.01856995,-8.249939919,-1.628229022,0.17620188,-50.79735184,-48.37537766,32.19816971, 
674,9310493,-59.99437332,46.12197876,-86.5500946,-7.954113483,-1.784671664,0.358504862,-52.62550735,-44.60064697,46.93244171, 
675,9327160,-59.72105789,46.64126587,-84.96472931,-7.63929224,-1.940403342,0.521512091,-51.97458267,-42.03032303,59.86663437, 
676,9343827,-59.3153801,47.33916855,-83.25502777,-7.295101643,-1.980974197,0.549083471,-50.16067123,-39.98013306,71.51332092, 
677,9360494,-58.75665665,48.21842194,-81.40821838,-7.306272507,-1.969379663,0.565752089,-48.00840759,-37.62455368,83.44470978, 
678,9377161,-58.04439545,49.3027153,-79.37004852,-7.626999855,-1.830854177,0.517351389,-48.67696762,-35.48352432,97.51296234, 
679,9393828,-57.22140121,50.63864899,-77.08247375,-8.352902412,-1.581776619,0.399534792,-55.15255356,-32.56059265,114.784462, 
680,9410495,-56.36408615,52.26622772,-74.48692322,-9.430727005,-1.530018926,0.291915655,-69.76612854,-28.62008095,134.6304016, 
681,9427162,-55.53388596,54.18303299,-71.53855896,-10.63041496,-1.648556471,0.256034523,-91.26318359,-24.25481606,154.3149872, 
682,9443829,-54.76222229,56.31496811,-68.22418213,-11.17548275,-2.075387478,0.331559688,-116.4337616,-20.82287025,169.4156952, 
683,9460496,-54.16257095,58.55162048,-64.69865417,-10.77230835,-2.594579935,0.228712887,-141.5928345,-15.54658127,175.007309, 
684,9477163,-53.7209816,60.83391953,-61.14082336,-10.36703587,-3.225128889,0.182854548,-157.0537567,-7.365108967,173.7107849, 
685,9493830,-53.33510971,63.12096786,-57.68230057,-10.23453522,-3.493270874,0.525963783,-159.2445221,2.300992489,167.8944244, 
686,9510497,-52.8503952,65.38417053,-54.33255386,-10.50373363,-3.789668083,1.075304031,-151.1231689,10.87563705,160.6065521, 
687,9527164,-51.88746643,67.61710358,-50.91878128,-10.65610027,-3.814251661,1.442534924,-129.2232513,16.2663765,155.5749969, 
688,9543831,-50.11268997,69.8170166,-47.1704483,-10.71543217,-4.248816967,1.44384253,-102.2207947,18.76317596,153.5569611, 
689,9560498,-47.24034119,71.93973541,-42.76524734,-10.30628204,-4.085434914,1.247653365,-76.5295105,18.19388199,152.4295044, 
690,9577165,-43.46389389,73.94686127,-37.60084915,-9.912718773,-3.829722166,1.112925887,-68.78968048,19.05219078,149.1587982, 
691,9593832,-38.83792877,75.78803253,-31.52210236,-9.721536636,-3.637284756,0.890309274,-73.65753174,19.57264709,143.9994354, 
692,9610499,-33.39349747,77.41426849,-24.39196014,-9.73528862,-3.379478693,0.806928694,-88.63209534,19.39614677,137.2148895, 
693,9627166,-27.22383499,78.78191376,-16.22785378,-9.939180374,-3.313016653,0.734803021,-108.2687149,18.832798,128.2639465, 
694,9643833,-20.50505447,79.87754822,-7.255825996,-10.21012115,-3.481721878,0.608160496,-125.0162201,18.75491905,117.4264832, 
695,9660500,-13.51870632,80.70931244,2.177392006,-10.47768593,-3.719180346,0.49078685,-137.834259,18.7753582,105.5953293, 
696,9677167,-6.61906147,81.32345581,11.64522076,-10.3918848,-4.082390785,0.471951932,-146.2490082,19.76613998,93.59938812, 
697,9693834,-0.143147081,81.78986359,20.70420074,-10.17581654,-4.519249439,0.50522238,-148.2288208,22.24788284,81.22354889, 
698,9710501,5.804373741,82.18817139,29.12626648,-9.921149254,-4.77447319,0.638684273,-142.6995087,26.37091637,69.14714813, 
699,9727168,11.49607372,82.57485199,37.05435562,-9.737976074,-4.997883797,1.001696944,-129.1678619,31.45653152,58.92790985, 
700,9743835,17.3150959,82.96686554,44.75528717,-9.647446632,-5.048289299,1.402254105,-108.4639969,36.2761116,50.61390686, 
701,9760502,23.52512932,83.35234833,52.52885437,-9.464468956,-4.811388016,1.646076202,-89.75553894,40.08442688,44.21665192, 
702,9777169,30.43359184,83.74013519,60.73200607,-9.268984795,-4.766705036,1.923406839,-73.86181641,44.86838531,39.03374863, 
703,9793836,38.29026794,84.11187744,69.59304047,-9.060267448,-4.75932312,2.361082792,-56.62484741,49.1829567,34.21379089, 
704,9810503,47.24736786,84.44208527,79.24448395,-8.99890995,-4.594783783,2.938920498,-38.16319275,52.78689194,29.3572197, 
705,9827170,57.23241425,84.69754791,89.66107178,-9.127000809,-4.295824051,3.380470991,-22.53176498,55.1795311,24.59343147, 
706,9843837,68.08958435,84.84277344,100.7452011,-9.327400208,-4.075892448,3.607698202,-10.33407497,56.92026901,20.61687088, 
707,9860504,79.28833771,84.8474884,112.0103531,-9.648393631,-4.017177105,3.855474234,-0.788413703,57.46323013,17.35515404, 
708,9877171,89.99212646,84.7258606,122.6836395,-10.05285549,-3.993272305,4.153085232,4.901868343,56.40048218,13.28943729, 
709,9893838,99.66410828,84.52017212,132.3370972,-10.44185543,-3.748389244,4.251969337,4.028255463,54.32021713,8.359447479, 
710,9910505,108.2999954,84.25932312,141.0018768,-11.01418304,-3.659815073,4.484289646,1.076934814,52.34468079,3.584557533, 
711,9927172,115.7596893,83.97901154,148.4754486,-11.57355499,-3.844727039,4.874026299,1.80181694,48.20653152,-0.902912617, 
712,9943839,122.1403503,83.75022125,154.7447205,-11.7624445,-4.164774895,5.344140053,9.058208466,41.19086838,-6.667316914, 
713,9960506,128.0146637,83.64350128,160.2749023,-11.93632507,-4.395104885,5.517357826,22.81510353,32.92731857,-14.86126709, 
714,9977173,133.7673645,83.72971344,165.381073,-12.19266987,-4.388055801,5.52554512,40.7436409,21.58263397,-25.08887291, 
715,9993840,139.7792511,84.10482025,170.4722748,-11.97161674,-4.101833344,5.333285809,56.99303055,5.344600677,-38.07513046, 
716,10010507,147.2325592,84.81299591,176.8356323,-11.12539482,-3.519496202,4.995182037,67.1344223,-12.57411766,-53.92821121, 
717,10027174,158.6784973,85.78722382,-172.8575134,-10.35808754,-3.07351017,4.445785999,70.29273224,-29.17988396,-70.59284973, 
718,10043841,179.8593903,86.77919006,-152.7989349,-10.42011356,-2.742127419,3.894454479,69.62609863,-43.42861557,-86.21417236, 
719,10060508,-143.0435944,87.18270111,-116.7556686,-11.15885162,-2.432520628,3.498850584,65.81426239,-57.49264145,-98.06188202, 
720,10077175,-106.2324982,86.34559631,-80.91545105,-12.38174438,-2.321214914,3.225076914,61.15562439,-71.36238098,-106.1951599, 
721,10093842,-84.75473785,84.59858704,-60.25403214,-13.32768536,-2.04319191,2.698991537,52.33101654,-87.27511597,-110.9693985, 
722,10110509,-72.98735809,82.37774658,-49.05810928,-13.84404469,-1.899484515,1.986941695,38.15185547,-100.4880753,-114.4061584, 
723,10127176,-65.94165039,79.85652161,-42.31755829,-14.00845432,-2.126930952,1.344769835,22.71531487,-111.698349,-118.4819107, 
724,10143843,-61.53081131,77.10297394,-38.01132584,-13.41793633,-1.810525179,0.786090851,11.05447769,-119.6215744,-124.1556396, 
725,10160510,-58.91967773,74.20860291,-35.22549438,-12.79453659,-1.73222971,0.562040925,-5.653924465,-122.4925842,-129.0523224, 
726,10177177,-57.31336212,71.2290802,-33.34973145,-12.43639278,-2.291882515,0.510975182,-11.45769501,-123.1860428,-133.0274353, 
727,10193844,-56.29640579,68.18501282,-32.07474518,-12.24081421,-2.318215132,0.394005567,-11.05570889,-122.6172791,-137.2001495, 
728,10210511,-55.66574478,65.11408234,-31.20879364,-12.14927483,-2.222679138,0.096374393,-10.17533016,-120.6327667,-140.082016, 
729,10227178,-55.23746872,62.06236267,-30.58143044,-11.56817818,-2.256161213,-0.224265784,-8.277580261,-118.1529999,-140.210434, 
730,10243845,-54.96445084,59.07434082,-30.1840477,-10.83285999,-2.173974514,-0.456202626,-4.632650852,-112.7668991,-139.2367554, 
731,10260512,-54.77888107,56.20583725,-29.93466759,-10.12241554,-2.214660168,-0.618167162,-1.685843468,-106.2049179,-135.076767, 
732,10277179,-54.59251022,53.49508667,-29.80235672,-9.392901421,-2.238021135,-0.702751458,4.544768333,-98.41750336,-129.0203705, 
733,10293846,-54.40295029,50.9820137,-29.75512123,-8.640713692,-2.032948017,-0.644824266,9.022891998,-89.691185,-120.7131195, 
734,10310513,-54.20517731,48.69021988,-29.77161026,-7.971952438,-1.976854324,-0.565247416,12.56280422,-80.45684814,-111.04776, 
735,10327180,-53.98455048,46.64948654,-29.82917404,-7.381548882,-1.937946558,-0.486245632,15.75302219,-70.704216,-99.57154083, 
736,10343847,-53.75019836,44.88353729,-29.90823364,-7.015169144,-1.883175492,-0.430817842,17.46334267,-60.60751343,-86.595047, 
737,10360514,-53.50445938,43.40322495,-29.9926033,-6.811284542,-1.88848877,-0.401855409,18.32159996,-50.56139374,-72.77444458, 
738,10377181,-53.25429153,42.20627594,-30.06171608,-6.500555038,-1.815245509,-0.362488389,17.89954758,-41.23934174,-58.59417725, 
739,10393848,-53.03935623,41.29379272,-30.1245079,-6.161201,-1.733366728,-0.357196242,15.51587486,-31.43827438,-44.67581177, 
740,10410515,-52.86853027,40.67192078,-30.18908119,-6.015168667,-1.768435717,-0.36638093,12.92653751,-21.01283836,-30.75982857, 
741,10427182,-52.74268723,40.35136414,-30.2536602,-5.946264267,-1.716760874,-0.280419767,10.23349953,-10.161726,-16.35606384, 
742,10443849,-52.67525864,40.35437012,-30.32129669,-6.17140007,-1.828319192,-0.090039447,6.874461651,1.683714986,-1.025622129, 
743,10460516,-52.64811707,40.6986618,-30.37427521,-6.52693367,-2.038876772,0.185484946,3.917993307,13.55172443,15.62530613, 
744,10477183,-52.62706375,41.38851929,-30.40421486,-6.9765172,-2.313128233,0.462264448,2.697827578,25.29162979,32.69986725, 
745,10493850,-52.58843994,42.41677475,-30.40207481,-7.60603857,-2.536876917,0.759328067,2.515866518,36.47979355,49.65764618, 
746,10510517,-52.50986481,43.77151108,-30.35266685,-8.286851883,-2.76920557,0.998123288,3.004183292,46.79316711,66.3843689, 
747,10527184,-52.34780502,45.44386673,-30.23225403,-8.945443153,-2.921873808,1.352624655,4.993476391,56.18120193,83.16381073, 
748,10543851,-52.07154083,47.42668152,-30.0189724,-9.672883987,-3.184318066,1.744773388,7.681684017,65.00408936,99.87242126, 
749,10560518,-51.61117935,49.6938324,-29.66446877,-10.64786625,-3.333324194,2.287749529,12.08359051,72.03952026,116.0684814, 
750,10577185,-50.89588547,52.18793488,-29.10614777,-11.69741821,-3.240863085,3.012094259,17.34343338,76.25341797,130.292511, 
751,10593852,-49.93476105,54.85323715,-28.22887993,-12.4966526,-2.84943819,3.149693012,15.80486012,76.83118439,143.5126038, 
752,10610519,-48.81119919,57.64149094,-26.98416901,-13.30916786,-2.645354748,2.923528433,5.809453011,76.47595978,154.2703552, 
753,10627186,-47.5886116,60.42334366,-25.28697205,-12.93993282,-2.529994726,2.903632402,-13.43741131,71.2129364,159.5886993, 
754,10643853,-46.47270966,63.09381104,-23.26159859,-11.21093082,-2.279335737,3.171618223,-39.54883957,66.14572144,156.6383362, 
755,10660520,-45.69493103,65.63648987,-21.18336296,-9.929726601,-2.300512791,3.598278999,-65.16939545,65.96350098,147.5016022, 
756,10677187,-45.13610077,68.01480103,-19.15339661,-9.733830452,-2.67753458,4.157475948,-77.8453598,65.04620361,135.4621582, 
757,10693854,-44.56469727,70.20232391,-17.15267563,-9.868350983,-3.496628046,4.512636662,-77.26996613,61.88739014,123.1046371, 
758,10710521,-43.39784622,72.17466736,-14.92631817,-10.2886219,-4.350297451,4.535704613,-55.84847641,54.27981949,113.3740311, 
759,10727188,-41.18113327,73.94447327,-12.11782646,-10.63877773,-4.114401817,4.351829529,-27.61946678,44.56049728,107.9930267, 
760,10743855,-37.91342545,75.47916412,-8.471805573,-10.82289124,-3.657451868,4.008827686,-14.4050312,33.32031631,103.339592, 
761,10760522,-33.82744598,76.71797943,-3.902829885,-10.18144512,-3.040083885,3.564351797,-20.40629196,20.68554878,97.16398621, 
762,10777189,-29.50590515,77.66116333,1.250383615,-9.04033947,-2.604465961,3.189832926,-41.66690445,11.23260021,88.31775665, 
763,10793856,-25.49186707,78.34339142,6.490172386,-8.278985023,-2.557881355,3.029731989,-66.14260101,5.214845657,77.15988159, 
764,10810523,-22.16766548,78.80667877,11.33492756,-7.845311642,-2.951574326,2.916654348,-84.95036316,1.261527181,64.22626495, 
765,10827190,-19.55691147,79.09976196,15.57747269,-7.779434204,-3.279979944,2.821515083,-92.67529297,-1.809167743,52.20782471, 
766,10843857,-17.54322433,79.27376556,19.21734619,-7.885872841,-3.671749592,2.63502574,-93.19741821,-3.996619463,42.57025909, 
767,10860524,-15.96379852,79.36627197,22.30186844,-8.236197472,-4.205461502,2.364397049,-86.62406158,-5.418014526,34.88949966, 
768,10877191,-14.62964249,79.40248108,24.91989708,-8.48534584,-4.482655525,2.158398867,-73.89039612,-6.381322384,28.97486115, 
769,10893858,-13.5099926,79.41435242,27.08317947,-8.518131256,-4.451920509,2.134509563,-59.97446442,-5.948438644,23.84983444, 
770,10910525,-12.70242786,79.40952301,28.71406174,-8.532309532,-4.350585461,2.339962959,-47.32452393,-5.195065022,18.02484512, 
771,10927192,-12.37802887,79.38607025,29.70846748,-8.306342125,-4.057123184,2.479055882,-38.79620743,-4.59314537,11.02873802, 
772,10943859,-12.70002651,79.35391998,29.96179581,-8.153122902,-3.884353638,2.541339397,-33.89660263,-3.321385384,2.975657225, 
773,10960526,-13.71094227,79.30278015,29.44015503,-7.85522747,-3.81539917,2.485330343,-29.55116463,-2.484446287,-5.650339603, 
774,10977193,-15.41384697,79.23487854,28.12058067,-7.618935108,-3.778184891,2.482499599,-24.06233406,-1.055150151,-14.56659126, 
775,10993860,-17.74947166,79.14418793,26.04049683,-7.522844791,-3.694552183,2.488706827,-17.24617577,0.646453619,-23.23013878, 
776,11010527,-20.59191322,79.01885986,23.29450417,-7.711264133,-3.639642477,2.656671047,-8.489238739,2.340829849,-31.1527195, 
777,11027194,-23.75806236,78.83951569,20.0414772,-8.043728828,-3.558514357,2.855587482,1.844392657,3.380316973,-37.94632339, 
778,11043861,-27.02859306,78.60756683,16.50574303,-8.431399345,-3.374415159,2.91959691,12.06156635,4.420398712,-42.5971489, 
779,11060528,-30.2064743,78.3261261,12.90548229,-8.99930191,-3.201885939,3.041352272,21.20239449,5.079376221,-45.12906265, 
780,11077195,-33.16333008,77.98232269,9.43447113,-9.414328575,-2.958928823,3.129239798,26.622509,4.125261784,-46.32881927, 
781,11093862,-35.90200806,77.58377838,6.190271378,-9.666204453,-2.660097361,3.093621016,26.11942673,2.884095907,-46.59243393, 
782,11110529,-38.45460892,77.13677979,3.233463764,-9.797002792,-2.441900969,2.979193449,20.12709999,1.326621532,-46.23440552, 
783,11127196,-40.97953415,76.67049408,0.485714614,-9.77534008,-2.237329721,2.773064137,9.251185417,1.593442321,-45.70558929, 
784,11143863,-43.49263763,76.24182892,-2.062733889,-10.32284641,-2.358441114,2.649029732,-1.97555244,4.27253294,-42.89229584, 
785,11160530,-45.78383636,75.88782501,-4.286577702,-11.11959934,-2.75208354,2.660390377,-7.815620899,6.705297947,-36.88482666, 
786,11177197,-47.73083115,75.63673401,-6.12722826,-11.42696857,-3.149708986,2.570158243,-9.62185955,8.707949638,-28.67363739, 
787,11193864,-49.26335907,75.50466919,-7.64040184,-11.32913685,-3.836863995,2.611788273,-3.891530275,10.93223667,-20.01295853, 
788,11210531,-50.27056885,75.43899536,-8.879734039,-10.7728548,-4.328203678,2.699960947,11.67769241,10.93510151,-14.1390686, 
789,11227198,-50.86711502,75.39330292,-10.05746651,-9.84120369,-4.585222244,2.447990894,32.71878815,11.25194168,-12.48314381, 
790,11243865,-51.06910706,75.36392212,-11.33507061,-9.83784771,-4.95049715,2.086601734,62.15120316,13.1743679,-12.60919571, 
791,11260532,-50.58201218,75.32076263,-12.5300293,-10.82808971,-5.190178871,2.095408678,98.68441772,11.69308472,-12.51067734, 
792,11277199,-49.27433014,75.22332764,-13.43591499,-11.74098206,-4.769586563,2.257915258,131.0908661,6.082018375,-12.39874649, 
793,11293866,-47.2778244,75.01939392,-13.94398308,-12.85961533,-4.254542351,2.312744141,149.3168335,-3.010249376,-13.36976719, 
794,11310533,-44.93471527,74.61301422,-14.0803442,-13.47628212,-3.680753469,2.09743166,148.5402527,-16.0535984,-18.08519554, 
795,11327200,-42.84272003,73.9150238,-14.14695263,-13.30071259,-2.951388597,1.906553626,129.4251099,-30.11556435,-28.85040474, 
796,11343867,-41.4961853,72.85869598,-14.45625591,-12.5219965,-2.485341549,1.685001135,98.64936066,-44.09204102,-45.52806091, 
797,11360534,-41.23485184,71.42550659,-15.29135609,-11.36262894,-1.939112663,1.46281147,63.44667435,-55.06734467,-67.40624237, 
798,11377201,-42.00214767,69.65319824,-16.65572166,-10.50775146,-1.809769034,1.306035995,31.24892807,-62.07526016,-90.06982422, 
799,11393868,-43.4287262,67.58738708,-18.34198189,-10.01260567,-2.052056313,1.270608544,8.739515305,-66.75676727,-110.2351456, 
800,11410535,-45.11688995,65.29512787,-20.09770584,-9.804395676,-2.185325146,1.203539491,-4.590801716,-69.81732178,-125.2156601, 
801,11427202,-46.80833817,62.85362625,-21.75566483,-9.562538147,-2.501518011,0.980338395,-11.86399078,-71.31864929,-134.6047974, 
802,11443869,-48.28033829,60.34952927,-23.24539375,-9.343667984,-2.746413708,0.763606906,-9.525316238,-70.84190369,-138.6137085, 
803,11460536,-49.40431976,57.85996246,-24.52254868,-9.178779602,-2.845219612,0.606115699,-1.498922706,-69.50146484,-137.4391785, 
804,11477203,-50.1489296,55.45699692,-25.58763123,-8.902405739,-2.662248373,0.444358945,8.913217545,-67.13243866,-131.8600311, 
805,11493870,-50.58287048,53.19701385,-26.46412659,-8.587508202,-2.411490917,0.413212687,16.90615654,-63.75084305,-123.1020584, 
806,11510537,-50.79924393,51.11919785,-27.16359138,-8.118271828,-2.142854214,0.4208709,20.40527344,-59.95253754,-111.9055939, 
807,11527204,-50.89947891,49.25833511,-27.70162201,-7.634355545,-1.989094377,0.377471775,19.0533123,-55.3783989,-98.79386902, 
808,11543871,-50.95627213,47.63699341,-28.09613228,-7.124323845,-1.843116641,0.280277699,14.59764576,-50.06058121,-84.60560608, 
809,11560538,-51.05679703,46.26810455,-28.3876915,-6.5972085,-1.710073113,0.199314445,7.074406624,-43.34698105,-70.56157684, 
810,11577205,-51.25160599,45.15527725,-28.60945511,-6.031324387,-1.713162661,0.015201677,-1.821821928,-35.60723877,-57.07097244, 
811,11593872,-51.56952667,44.31811142,-28.81389046,-5.554077148,-1.769934416,-0.057637874,-10.07441521,-25.4972744,-43.96004868, 
812,11610539,-51.99061584,43.78660965,-29.02665901,-5.494399071,-1.924360037,0.084765233,-16.00026321,-13.51066017,-30.01890373, 
813,11627206,-52.42854309,43.58525467,-29.22119522,-5.806659698,-2.088852882,0.416249692,-17.80550575,-1.734904885,-14.02871513, 
814,11643873,-52.79642105,43.72449875,-29.36643028,-6.181709766,-2.349700689,0.661378503,-15.63218403,9.068929672,3.477184057, 
815,11660540,-53.04775238,44.20606232,-29.44934845,-6.522132397,-2.685288429,0.794748485,-11.18302345,19.25390053,21.5350666, 
816,11677207,-53.17631912,45.01325607,-29.46697235,-6.840471745,-2.935610533,0.933915436,-6.509982109,28.64056778,38.90886307, 
817,11693874,-53.21070099,46.10398102,-29.4432106,-7.259153366,-3.240794659,1.189497113,-2.603851318,37.36499786,53.59626389, 
818,11710541,-53.12443161,47.44086456,-29.37993622,-7.737405777,-3.50741744,1.610290885,2.90126729,44.94945908,66.34209442, 
819,11727208,-52.86833954,48.99900055,-29.24336052,-8.45027256,-3.717093706,2.227828503,9.760623932,50.84308243,78.50881958, 
820,11743875,-52.38518906,50.75357056,-28.98089218,-9.639456749,-4.054400444,3.057401419,17.45998764,54.76217651,90.36654663, 
821,11760542,-51.61238098,52.64415359,-28.48980522,-10.91841507,-4.366396427,3.549881935,23.76696014,54.36751938,101.1592865, 
822,11777209,-50.58485413,54.63227463,-27.69360924,-11.99550915,-4.182395935,3.315761805,23.7032299,51.77558899,111.1279678, 
823,11793876,-49.46308899,56.63824081,-26.57445335,-12.72883701,-4.065391064,3.089315891,12.40813637,47.17565918,117.0718307, 
824,11810543,-48.59313202,58.55684662,-25.21480179,-12.45672321,-3.755058765,3.037284374,-16.13790894,41.35309219,116.0475235, 
825,11827210,-48.35767365,60.31119919,-23.80797386,-10.89952374,-3.273779154,3.365708351,-57.99683762,36.51174927,107.7119904, 
826,11843877,-48.89352798,61.85668182,-22.60027695,-9.301096916,-4.23266077,3.839358091,-95.01099396,33.86478424,93.18218994, 
827,11860544,-49.72192764,63.19846344,-21.76021385,-8.141836166,-5.213922024,4.415582657,-93.8625946,33.73078537,76.6492157, 
828,11877211,-50.39903641,64.39564514,-21.28382683,-8.091444969,-6.181537628,4.901939392,-65.72587585,35.31543732,63.63498688, 
829,11893878,-50.14808655,65.47239685,-20.82863426,-8.802799225,-7.067955971,4.575743198,-9.150808334,31.28424072,57.56886292, 
830,11910545,-48.76151657,66.42817688,-20.16945839,-9.202608109,-6.311185837,4.248837471,47.5881424,23.9328289,54.57303619, 
831,11927212,-47.02968597,67.31710815,-19.40627098,-9.711243629,-4.430119038,4.182437897,62.29607391,21.32821083,52.17564392, 
832,11943879,-45.48966217,68.05418396,-18.51396561,-9.78079319,-3.558754683,4.210033417,43.36371613,14.81315899,46.56544113, 
833,11960546,-44.68013382,68.67305756,-17.63977051,-9.32624054,-2.995994329,4.173548698,0.298594683,11.45364761,40.51321793, 
834,11977213,-44.60904694,69.16540527,-16.89241791,-8.581970215,-3.775364637,3.977546215,-37.09510803,8.626407623,32.79782486, 
835,11993880,-44.93563843,69.53369904,-16.33900833,-7.702856541,-4.808195114,3.632936716,-50.19846344,6.392463207,24.4523201, 
836,12010547,-45.30635071,69.81067657,-16.02356529,-7.132703304,-5.542217255,3.35194087,-39.52773285,6.033085823,17.01786995, 
837,12027214,-45.50072098,70.04924774,-15.98461723,-6.834952354,-5.836400032,3.166898251,-13.40887451,8.452047348,11.38415623, 
838,12043881,-45.41513062,70.28974152,-16.22183418,-6.826153755,-5.858054161,3.268293142,18.96519279,12.54576683,7.558899403, 
839,12060548,-45.14132309,70.58477783,-16.76404381,-7.045100689,-5.660403252,3.435916901,47.510746,19.19071198,5.60495615, 
840,12077215,-44.68328094,70.94675446,-17.52744675,-7.410485268,-5.533631802,3.640249491,71.14910126,25.04781723,5.372615337, 
841,12093882,-44.11979675,71.35774231,-18.47451401,-7.667587757,-5.370210648,3.601657391,87.9910202,29.49118233,4.885182381, 
842,12110549,-43.47689819,71.78916931,-19.5834713,-7.834318161,-5.346860409,3.573018074,102.09478,32.29013443,3.50809598, 
843,12127216,-42.7582016,72.19384766,-20.80941963,-8.075649261,-5.25516367,3.754169941,113.4573135,32.33723068,0.789819002, 
844,12143883,-42.02669907,72.54558563,-22.14451027,-8.440215111,-5.154593945,3.808536053,120.6079865,31.03779411,-2.877033472, 
845,12160550,-41.31571579,72.82529449,-23.58176422,-8.70026207,-5.048578262,3.743504524,125.3550644,28.72309303,-7.17786026, 
846,12177217,-40.67110062,73.02371216,-25.12740517,-8.778197289,-4.888388634,3.660888433,127.684021,25.99534416,-11.89332771, 
847,12193884,-40.18850708,73.15908813,-26.83286285,-8.918316841,-4.684157848,3.5987432,127.207695,24.65382004,-16.52338028, 
848,12210551,-39.81817245,73.24210358,-28.67849922,-9.023358345,-4.667474747,3.541411877,128.5737762,23.58296394,-20.44271088, 
849,12227218,-39.4715271,73.28697205,-30.6497612,-8.91601944,-4.748546124,3.397386551,134.397583,23.02036476,-23.62318039, 
850,12243885,-39.10102844,73.30789185,-32.73908997,-8.918873787,-4.722566128,3.275366783,142.634903,23.03042412,-26.19656754, 
851,12260552,-38.66659927,73.29951477,-34.91376114,-8.969804764,-4.644453526,3.118860006,151.3713837,22.40982246,-28.5957489, 
852,12277219,-38.18595886,73.26620483,-37.14773178,-8.924503326,-4.395405293,2.916979313,157.5379944,21.69088745,-30.54237366, 
853,12293886,-37.70999908,73.21588898,-39.44814301,-8.888551712,-4.252022743,2.799440145,161.0433807,21.41274071,-32.33150864, 
854,12310553,-37.24174118,73.15717316,-41.79726028,-8.867301941,-4.157617092,2.718204021,163.3387451,21.35027313,-33.59315491, 
855,12327220,-36.81457138,73.08470154,-44.22874832,-8.657308578,-4.179316521,2.57132864,165.5584869,21.40187836,-35.53128815, 
856,12343887,-36.48641205,72.99464417,-46.8086853,-8.627672195,-4.314233303,2.322537661,168.0749054,22.0020237,-38.55528259, 
857,12360554,-36.25842667,72.87641907,-49.56690216,-8.874203682,-4.391682148,2.069651604,172.2102051,22.49550629,-42.40694046, 
858,12377221,-36.04159546,72.72216034,-52.43083954,-9.500081062,-4.325627804,1.743512273,177.4854126,21.92561531,-45.59804153, 
859,12393888,-35.73225784,72.52319336,-55.28541183,-10.33337116,-4.190818787,1.394754291,182.3510742,19.75256729,-47.55558014, 
860,12410555,-35.22596359,72.26712036,-58.00102997,-11.20958996,-4.205379009,0.966347933,186.02388,15.53814793,-48.17401886, 
861,12427222,-34.44290924,71.93685913,-60.43112946,-11.71697235,-3.951769352,0.478717417,186.0831757,8.781482697,-47.23710632, 
862,12443889,-33.52522278,71.49884796,-62.56533813,-11.72728348,-3.78835535,-0.274540216,177.0144501,0.113400832,-47.14965057, 
863,12460556,-32.67854691,70.95307159,-64.53372192,-11.73483849,-3.749885082,-1.398469687,163.0005951,-7.233158588,-48.88973618, 
864,12477223,-31.97014809,70.33392334,-66.40796661,-12.37621784,-3.608285904,-2.477184057,149.0061798,-12.03962135,-50.53276825, 
865,12493890,-31.31716919,69.65685272,-68.12211609,-12.74234772,-3.486112595,-2.993778229,136.252243,-16.73729706,-50.45008087, 
866,12510557,-30.76248169,68.95301819,-69.6886673,-11.95623589,-3.309112787,-2.996338606,121.6675568,-19.70610428,-49.42666245, 
867,12527224,-30.45086479,68.26636505,-71.25945282,-10.74910831,-3.652984619,-2.968823671,106.9348297,-18.64684868,-49.75642014, 
868,12543891,-30.37446213,67.61052704,-72.93379974,-9.689236641,-3.932812691,-3.091354609,98.19976044,-15.55966949,-51.65584946, 
869,12560558,-30.50139809,67.00325012,-74.73628235,-8.76581955,-3.739801884,-3.100701332,92.69718933,-11.03658485,-53.61886215, 
870,12577225,-30.82061005,66.45878601,-76.67864227,-7.881042957,-3.950990438,-3.253971815,88.46882629,-5.41628933,-55.44341278, 
871,12593892,-31.32647514,65.97428131,-78.78347778,-7.33099699,-3.925619602,-3.307749033,85.80299377,0.561285019,-57.80129623, 
872,12610559,-32.03631592,65.54665375,-81.07615662,-6.807887554,-3.775748014,-3.168033361,83.45370483,6.970399857,-60.69681931, 
873,12627226,-32.91728973,65.20462036,-83.55779266,-6.432993412,-3.80393672,-2.908963442,83.13124084,15.11430931,-62.50727081, 
874,12643893,-33.85146713,64.99388123,-86.1587677,-6.49706316,-3.833643913,-2.667226791,86.1536026,24.68851089,-60.95817566, 
875,12660560,-34.67073059,64.9665451,-88.73987579,-6.794839382,-3.772398472,-2.249999285,91.84908295,34.5813179,-54.18231201, 
876,12677227,-35.25675201,65.17999268,-91.18495178,-7.162412167,-3.918324232,-1.885830998,98.56152344,44.970047,-42.44551086, 
877,12693894,-35.54621887,65.65712738,-93.43727112,-7.854619503,-4.340475559,-1.637815952,106.2192993,54.92285156,-28.33979034, 
878,12710561,-35.52305222,66.37667847,-95.44918823,-8.603144646,-4.521755219,-1.286105752,112.3903885,62.65854263,-13.91910458, 
879,12727228,-35.31114578,67.29173279,-97.29737091,-9.21753788,-4.804557323,-0.922444105,115.380806,69.01441956,-2.799665451, 
880,12743895,-35.0691452,68.31809235,-99.1027832,-10.03190136,-5.183269501,-0.545601189,115.54216,72.88660431,3.004951239, 
881,12760562,-34.92538071,69.36568451,-100.9506531,-10.73755455,-5.389165878,-0.193356812,112.750061,73.40488434,4.249572277, 
882,12777229,-35.03001022,70.34981537,-102.9557343,-11.22164536,-5.43473053,-0.078496262,107.4012985,71.0823822,0.91353035, 
883,12793896,-35.55981445,71.20139313,-105.2804871,-11.37420845,-5.620479584,-0.096414909,100.6534805,67.17952728,-6.929124832, 
884,12810563,-36.61487579,71.86775208,-108.0684052,-11.36211491,-5.817864895,-0.039391354,96.09366608,62.44749069,-18.20043755, 
885,12827230,-38.22599411,72.3102951,-111.4071579,-11.16919231,-5.938286304,0.112693295,94.68647766,57.44787598,-31.69692421, 
886,12843897,-40.2967186,72.51176453,-115.263298,-10.99206924,-5.925290108,0.419094503,97.04698181,52.53234863,-45.34766769, 
887,12860564,-42.63816071,72.46028137,-119.486618,-10.80190659,-5.763706207,0.67508316,101.9055557,47.11675644,-58.01824188, 
888,12877231,-45.05593109,72.15463257,-123.880806,-10.55027199,-5.45390892,0.733537674,106.856514,41.23231125,-69.28217316, 
889,12893898,-47.40654755,71.61329651,-128.266922,-10.32204914,-5.054791451,0.633287609,109.8214874,35.59434128,-78.82540894, 
890,12910565,-49.59430313,70.87111664,-132.4982605,-10.16794205,-4.612423897,0.562610447,109.8677063,30.62774658,-86.18752289, 
891,12927232,-51.5309639,69.97428131,-136.4373627,-10.04354191,-4.232391357,0.594899237,107.210701,25.98386955,-90.59506989, 
892,12943899,-53.19361496,68.97512054,-140.0128632,-9.905599594,-3.939792395,0.74019289,101.8783722,21.97309875,-92.13148499, 
893,12960566,-54.57529068,67.92457581,-143.1904144,-9.78170681,-3.819148779,0.975653946,95.1483078,18.45132065,-90.91676331, 
894,12977233,-55.68942642,66.86856079,-145.9697266,-9.684288025,-3.69951272,1.080636501,87.808815,15.40196609,-87.35740662, 
895,12993900,-56.55445862,65.85150909,-148.3995667,-9.403066635,-3.785839796,1.099658608,82.35345459,13.56579304,-81.98230743, 
896,13010567,-57.1731987,64.88826752,-150.5682526,-9.223623276,-3.912642002,1.230674744,81.85020447,12.87216377,-76.77510071, 
897,13027234,-57.51735687,63.97451019,-152.5042725,-9.235424042,-3.948928833,1.33802247,84.81338501,11.68770504,-71.95363617, 
898,13043901,-57.57174683,63.10289001,-154.212677,-9.230166435,-3.856513739,1.39131844,89.18119049,9.549030304,-67.38918304, 
899,13060568,-57.3717308,62.27202225,-155.7041321,-9.255041122,-3.66607666,1.381449699,92.17627716,6.892426014,-62.86230087, 
900,13077235,-56.96508789,61.47779083,-156.9788971,-9.220702171,-3.432627201,1.41886282,92.50891876,3.544242382,-58.35291672, 
901,13093902,-56.42221069,60.72055817,-158.0532532,-9.086096764,-3.196036577,1.370088816,89.65773773,0.182087705,-53.85189056, 
902,13110569,-55.79667664,59.99982452,-158.9520721,-8.922841072,-3.004365206,1.368844867,85.04834747,-2.878523827,-49.5557785, 
903,13127236,-55.12828445,59.32439423,-159.6982269,-8.684806824,-2.888213873,1.289584756,79.38316345,-5.25090456,-45.00354767, 
904,13143903,-54.47827148,58.72195053,-160.3419495,-8.587729454,-2.71679306,1.121944308,72.74407196,-5.495113373,-39.80955887, 
905,13160570,-53.91965866,58.25230789,-160.9107361,-8.871041298,-2.542804241,0.843628526,63.23707581,-2.927154541,-32.11777496, 
906,13177237,-53.48180008,57.98408508,-161.4084778,-9.578006744,-2.46276927,0.779280961,52.25531387,2.264495611,-21.15099525, 
907,13193904,-53.13731766,57.93204117,-161.7913818,-10.18705082,-2.483299971,1.101124048,40.75908661,6.969835281,-8.646920204, 
908,13210571,-52.88526154,58.04137802,-162.0725861,-9.568244934,-2.488267183,1.732394576,30.03685379,10.13381767,0.979996741, 
909,13227238,-52.79621124,58.2491188,-162.3656464,-8.011788368,-2.623885632,2.215901375,20.88012505,13.95518875,5.434527874, 
910,13243905,-52.86404419,58.51231384,-162.8439484,-6.943532944,-3.057131052,2.400589228,20.96184349,20.55156517,4.586851597, 
911,13260572,-52.96436691,58.83495712,-163.5961761,-6.844924927,-3.296849251,2.36432004,33.11964798,29.41435051,2.382355928, 
912,13277239,-52.86894989,59.26827621,-164.5467529,-7.632243633,-3.367684603,2.314790964,55.2171402,38.09867096,4.140762329, 
913,13293906,-52.38751221,59.88251495,-165.5196075,-8.772460938,-3.11392808,2.543012619,79.78509521,44.88745499,12.42524815, 
914,13310573,-51.52045059,60.69861603,-166.3635254,-9.809921265,-2.781926155,2.918473721,96.55722809,48.97312546,24.16838646, 
915,13327240,-50.37625885,61.68353653,-166.9754181,-10.17101765,-2.363263845,3.122484922,101.3609543,50.01129532,35.80164719, 
916,13343907,-49.18588257,62.78725052,-167.381485,-9.992129326,-2.077400923,3.351568699,93.51114655,50.4761734,44.2773056, 
917,13360574,-48.13762665,63.92449951,-167.6620789,-9.468914986,-2.025609255,3.497419357,78.46705627,49.79602051,47.26620483, 
918,13377241,-47.34659195,65.02781677,-167.9669189,-8.733787537,-2.091715097,3.673048258,64.4786911,49.41580963,44.70019913, 
919,13393908,-46.82184219,66.0471344,-168.4176025,-8.299909592,-2.269243956,3.749036551,56.6061821,48.92342758,38.15595245, 
920,13410575,-46.4847908,66.95087433,-169.0689087,-8.129089355,-2.477180481,3.553663254,56.56066513,47.64278793,29.71603203, 
921,13427242,-46.2435379,67.73255157,-169.9208221,-8.193824768,-2.571663141,3.297079086,62.13952637,45.72048187,21.33114624, 
922,13443909,-46.05612183,68.40708923,-170.9399261,-8.386116982,-2.313306332,3.007292509,68.45592499,43.62220764,14.33245373, 
923,13460576,-45.91564941,69.01012421,-172.0506744,-8.559251785,-1.97842586,2.801080227,71.00952911,41.67209625,10.16682339, 
924,13477243,-45.86548615,69.57872009,-173.2038727,-8.59828949,-1.727229357,2.909018517,68.21107483,40.44695663,8.418787956, 
925,13493910,-45.91965866,70.14037323,-174.3585052,-8.689020157,-1.590389848,3.139968634,62.26704407,39.72865677,8.534816742, 
926,13510577,-46.10435104,70.71179962,-175.4794922,-8.636396408,-1.491181731,3.321910858,52.76078415,39.1802597,9.943991661, 
927,13527244,-46.34787369,71.29854584,-176.5359497,-8.587316513,-1.724601507,3.351989985,45.79628372,38.42419052,12.06482792, 
928,13543911,-46.55900574,71.90642548,-177.5188599,-8.497950554,-1.955289364,3.281024218,43.75992203,37.79987717,14.51811409, 
929,13560578,-46.67566681,72.52926636,-178.4195404,-8.390188217,-1.945837021,3.143967152,44.92274094,36.85675049,16.72160721, 
930,13577245,-46.68665314,73.16246033,-179.2420807,-8.240757942,-1.953758836,2.985380411,46.96585083,35.86134338,18.54622841, 
931,13593912,-46.63627243,73.79649353,179.9783936,-8.181470871,-1.868840575,2.851413012,48.32414627,34.99589157,19.42227364, 
932,13610579,-46.58612442,74.42241669,179.21315,-8.176363945,-1.759172559,2.764490366,47.63480377,34.1629982,19.53648949, 
933,13627246,-46.59479904,75.04299927,178.4485321,-8.122112274,-1.640952468,2.72141242,44.20081329,33.60134125,19.61965752, 
934,13643913,-46.70663452,75.67115784,177.6690826,-8.093187332,-1.622517824,2.667433023,39.00705338,33.71824265,20.16017914, 
935,13660580,-46.93922043,76.32110596,176.8551178,-8.203845978,-1.66986227,2.608609915,33.89809418,34.56029129,21.21273232, 
936,13677247,-47.27898788,77.00413513,175.9955292,-8.43143177,-1.854201555,2.60055232,30.26274109,35.87472153,22.78458405, 
937,13693914,-47.6825676,77.72512054,175.0892639,-8.577296257,-2.082128048,2.568950176,29.30950928,37.27495956,24.69742393, 
938,13710581,-48.17373276,78.49069977,174.0590057,-8.685061455,-2.322107553,2.487386703,31.48369217,39.51514435,26.41360092, 
939,13727248,-48.77458191,79.3060379,172.8360596,-8.8623209,-2.556221247,2.482486725,36.41653824,42.2966156,28.10816574, 
940,13743915,-49.51708221,80.16954803,171.3437653,-9.081575394,-2.816046,2.560409307,44.02983856,45.2616272,29.61658096, 
941,13760582,-50.4265976,81.0736618,169.525589,-9.358045578,-3.016721725,2.726534128,53.52294922,47.80925751,30.96269608, 
942,13777249,-51.57061768,82.00046539,167.334671,-9.714015961,-3.12165308,2.884439945,61.84222031,49.34733582,31.89852333, 
943,13793916,-53.04585648,82.92240906,164.7158813,-10.14387798,-3.147270203,2.94881773,67.70935822,49.46573639,32.03319168, 
944,13810583,-54.93973923,83.7943573,161.6628113,-10.4006424,-3.038769484,3.010001421,68.7751236,47.24206161,30.72878265, 
