PacketCounter,SampleTimeFine,Euler_X,Euler_Y,Euler_Z,Acc_X,Acc_Y,Acc_Z,Gyr_X,Gyr_Y,Gyr_Z,Velo_X,Velo_Y,Velo_Z,ANG_X,ANG_Y,ANG_Z
0,1426197161,81.31493,-6.664551,19.117466,-3.2844033,0.8129231,0.22178209,-20.511257,-54.417503,-20.377752,0.0,0.0,0.0,0.0,0.0,0.0
1,1426213828,81.27433,-6.3179626,22.913147,-3.2660518,0.3650192,0.6955935,-28.717207,-44.9917,-18.26407,-0.054434,0.006084,0.011593,-0.47862,-0.749862,-0.304401
2,1426230495,81.24502,-5.977997,27.053768,-3.2410355,-0.1072315,1.1971118,-37.502678,-34.97376,-16.024988,-0.108451,0.004297,0.031545,-1.103665,-1.332758,-0.571484
3,1426247162,81.22968,-5.653496,31.50803,-3.2104373,-0.5977428,1.7197278,-46.75271,-24.486694,-13.68646,-0.161958,-0.005665,0.060207,-1.882877,-1.74087,-0.799592
4,1426263829,81.18133,-5.1762695,37.039196,-3.1550312,-1.2348161,2.3998992,-58.81547,-10.945819,-10.689733,-0.214542,-0.026245,0.100205,-2.863135,-1.9233,-0.977754
5,1426280496,81.11169,-4.585823,43.498234,-3.0781827,-1.9905906,3.208284,-73.1993,5.0978746,-7.1550117,-0.265845,-0.059422,0.153676,-4.083123,-1.838335,-1.097004
6,1426297163,77.358574,-4.322563,46.813587,-2.894618,-2.5034122,3.670103,-81.01904,21.025,-2.2515416,-0.314089,-0.101146,0.214844,-5.43344,-1.487918,-1.13453
7,1426313830,69.538666,-4.4075394,46.69402,-2.5921335,-2.7559042,3.7577565,-81.733635,36.971653,4.193301,-0.357291,-0.147078,0.277473,-6.795667,-0.871724,-1.064642
8,1426330497,59.37104,-4.657982,44.97401,-2.2119236,-2.902216,3.6776252,-79.24367,53.87385,11.727769,-0.394156,-0.195448,0.338767,-8.116395,0.026174,-0.869179
9,1426347164,45.786407,-5.192528,40.526394,-1.7274837,-2.8454933,3.3005745,-71.12501,71.14484,20.631506,-0.422947,-0.242873,0.393777,-9.301812,1.211921,-0.525321
10,1426363831,30.866898,-5.710594,35.921795,-1.1815157,-2.8312812,2.93938,-63.174797,91.06642,30.598425,-0.442639,-0.290061,0.442767,-10.354725,2.729695,-0.015347
11,1426380498,14.681969,-6.198578,31.283558,-0.5743036,-2.8720908,2.6092546,-55.6773,113.80783,41.637627,-0.452211,-0.337929,0.486255,-11.28268,4.626492,0.678613
12,1426397165,-4.790924,-6.9104996,24.32817,0.14082909,-2.7611222,2.040594,-43.60573,137.79048,54.179844,-0.449864,-0.383948,0.520265,-12.009442,6.923,1.58161
13,1426413832,-27.185009,-7.78582,15.560757,0.95775795,-2.5487027,1.2961915,-28.120752,163.56198,68.20153,-0.433901,-0.426426,0.541868,-12.478121,9.649033,2.718302
14,1426430499,-43.588005,-7.7684174,3.0592918,1.3907232,-2.335237,0.743785,-17.667389,179.85803,76.729805,-0.410722,-0.465347,0.554264,-12.772577,12.646667,3.997132
15,1426447166,-53.43798,-6.7857437,-13.721363,1.3993263,-2.102283,0.38205206,-12.378733,185.39612,79.15483,-0.3874,-0.500385,0.560632,-12.978889,15.736602,5.316379
16,1426463833,-60.753384,-5.29554,-33.60451,1.2101278,-1.8335937,0.07569313,-8.978252,185.87556,78.77112,-0.367231,-0.530945,0.561894,-13.128527,18.834528,6.629231
17,1426480500,-63.108482,-3.0042267,-57.29628,0.6867533,-1.5474807,-0.083847284,-9.628805,178.01443,73.61131,-0.355785,-0.556736,0.560497,-13.289007,21.801435,7.856086
18,1426497167,-66.26372,-0.5889435,-84.37057,0.124370575,-1.1286151,-0.38450885,-8.048399,167.94289,67.84775,-0.353712,-0.575546,0.554089,-13.423147,24.600483,8.986882
19,1426513834,-70.530815,1.922905,-114.88098,-0.46266937,-0.57016045,-0.8418205,-3.9102497,155.96109,61.68464,-0.361423,-0.585049,0.540059,-13.488318,27.199835,10.014959
20,1426530501,-70.91087,5.131729,-149.76842,-1.3435555,0.058827996,-1.236182,-2.181369,136.02255,51.27748,-0.383816,-0.584069,0.519456,-13.524674,29.466878,10.869584
21,1426547168,-68.57271,8.907112,-189.07318,-2.4612198,0.78667605,-1.6304748,-1.5225573,109.24603,37.42785,-0.424836,-0.570958,0.492281,-13.55005,31.287645,11.493381
22,1426563835,-68.54186,11.305065,-216.99242,-3.09091,1.1538762,-1.8263967,-1.5309505,88.28156,26.94425,-0.476351,-0.551727,0.461841,-13.575566,32.759004,11.942452
23,1426580502,-70.61321,12.218407,-232.18909,-3.2003908,1.1102139,-1.7784643,-2.7806761,73.38564,19.914751,-0.529691,-0.533223,0.4322,-13.621911,33.982098,12.274365
24,1426597169,-73.12682,12.486225,-242.23753,-3.0984597,0.8943409,-1.623126,-4.569476,59.12841,13.569361,-0.581332,-0.518317,0.405148,-13.698069,34.967572,12.500521
25,1426613836,-77.25945,11.582024,-242.7203,-2.5924292,0.3744856,-1.295708,-6.9778094,48.700024,9.621445,-0.624539,-0.512076,0.383553,-13.814366,35.779239,12.660878
26,1426630503,-78.719284,10.799438,-243.14478,-2.1776667,-0.19843638,-0.8542621,-11.545664,32.95575,3.0157557,-0.660833,-0.515383,0.369315,-14.006794,36.328501,12.711141
27,1426647170,-77.26027,10.201981,-244.03499,-1.8804731,-0.8090633,-0.30409145,-18.306702,11.261201,-6.5644474,-0.692174,-0.528867,0.364247,-14.311906,36.516188,12.601734
28,1426663837,-75.95869,8.6824875,-236.72423,-1.286952,-1.7007868,0.4450152,-26.64155,-9.186577,-15.175301,-0.713623,-0.557213,0.371664,-14.755932,36.363078,12.348812
29,1426680504,-73.84012,6.502163,-223.08524,-0.49970627,-2.8255186,1.3859965,-36.94168,-30.429094,-23.931879,-0.721951,-0.604305,0.394764,-15.371627,35.855926,11.949947
30,1426697171,-72.33415,4.8902283,-212.55734,-0.03953457,-3.4571834,1.9894032,-42.970394,-46.52697,-30.927134,-0.72261,-0.661925,0.427921,-16.0878,35.080477,11.434495
31,1426713838,-71.88449,3.8143234,-204.77133,0.09642029,-3.5612402,2.221793,-44.136677,-56.041912,-35.50812,-0.721003,-0.721279,0.464951,-16.823411,34.146445,10.842693
32,1426730505,-71.097916,2.8540878,-196.33134,0.08780575,-3.4535341,2.334255,-43.721245,-63.18567,-39.34299,-0.71954,-0.778838,0.503855,-17.552098,33.093351,10.186976
33,1426747172,-70.44059,2.3049316,-189.41336,-0.19618702,-2.9408274,2.184601,-39.991848,-65.99795,-41.746964,-0.72281,-0.827852,0.540265,-18.218629,31.993385,9.491193
34,1426763839,-69.8065,1.1473999,-176.0751,-0.3434744,-2.511694,2.1083813,-36.458694,-66.132416,-42.833553,-0.728535,-0.869714,0.575405,-18.826274,30.891178,8.7773
35,1426780506,-69.07989,-0.67446136,-155.76974,-0.33568287,-2.193294,2.127991,-33.38896,-63.757496,-42.662167,-0.73413,-0.906269,0.610872,-19.382757,29.828553,8.066264
36,1426797173,-68.7291,-2.4124756,-134.14467,-0.48879242,-1.5748425,1.9534836,-27.517166,-56.18786,-40.51121,-0.742277,-0.932516,0.64343,-19.841376,28.892089,7.391077
37,1426813840,-68.72801,-4.2941513,-109.33969,-0.71518135,-0.7578177,1.6554471,-19.56532,-43.617245,-36.340668,-0.754197,-0.945146,0.671021,-20.167465,28.165135,6.785399
38,1426830507,-67.91431,-5.796524,-84.1736,-0.8453064,-0.27688217,1.5312,-14.091896,-36.343067,-33.921402,-0.768285,-0.949761,0.696541,-20.40233,27.559417,6.220042
39,1426847174,-66.279594,-6.788048,-59.435867,-0.8996067,-0.13087332,1.5712366,-11.073443,-34.789635,-33.41888,-0.783278,-0.951942,0.722728,-20.586887,26.97959,5.663061
40,1426863841,-64.38149,-7.6779556,-32.378895,-0.89834785,-0.13298917,1.6805454,-8.793968,-34.019222,-32.934757,-0.79825,-0.954158,0.750737,-20.733453,26.412603,5.114148
41,1426880508,-61.945087,-8.296989,-3.8758945,-0.803648,-0.41810519,1.9306407,-8.376403,-36.66534,-33.424767,-0.811644,-0.961126,0.782914,-20.87306,25.801514,4.557069
42,1426897175,-59.753204,-8.7640915,26.47512,-0.7961712,-0.56757885,2.0734024,-6.3079805,-35.863647,-32.43408,-0.824914,-0.970586,0.817471,-20.978193,25.203787,4.016501
43,1426913842,-57.885788,-9.103836,58.952526,-0.8795366,-0.56274706,2.096968,-2.3847513,-31.042877,-29.729767,-0.839573,-0.979965,0.85242,-21.017939,24.686406,3.521005
44,1426930509,-55.740253,-9.100517,92.6111,-0.9327717,-0.7266168,2.1837277,0.71642303,-27.800026,-27.313314,-0.855119,-0.992075,0.888815,-21.005999,24.223072,3.065783
45,1426947176,-53.507298,-8.771553,127.58498,-0.99446774,-0.9704678,2.2793238,3.7708297,-24.579462,-24.61269,-0.871693,-1.008249,0.926804,-20.943152,23.813414,2.655572
46,1426963843,-50.998764,-8.80571,152.18274,-1.0443478,-1.0732039,2.3223927,6.404371,-22.172483,-22.46036,-0.889099,-1.026136,0.965511,-20.836412,23.443873,2.281233
47,1426980510,-48.138557,-9.224396,165.02492,-1.0685425,-1.0512882,2.3262737,8.278606,-21.318302,-21.16693,-0.906908,-1.043657,1.004282,-20.698435,23.088568,1.928451
48,1426997177,-45.16237,-9.699821,171.64838,-1.1042147,-0.948772,2.2810636,10.114597,-20.552532,-19.92862,-0.925312,-1.05947,1.0423,-20.529858,22.746026,1.596307
49,1427013844,-42.007008,-10.404648,168.56024,-1.143363,-0.71342826,2.173623,11.72418,-20.296623,-19.04723,-0.944368,-1.07136,1.078527,-20.334455,22.407749,1.278853
50,1427030511,-38.661034,-10.874626,162.2802,-1.1658192,-0.55777234,2.0846932,12.659819,-21.419914,-18.49312,-0.963798,-1.080656,1.113272,-20.123458,22.05075,0.970634
51,1427047178,-35.149906,-11.069412,152.97812,-1.1747427,-0.48701608,2.0129244,12.954987,-23.875153,-18.22401,-0.983377,-1.088773,1.146821,-19.907542,21.652831,0.6669
52,1427063845,-31.425785,-11.360794,134.14401,-1.1730566,-0.35154474,1.9067003,12.642332,-27.66905,-18.543037,-1.002928,-1.094632,1.178599,-19.696836,21.19168,0.357849
53,1427080512,-27.492155,-11.641609,106.8743,-1.1568356,-0.19618905,1.7820008,11.61001,-33.03879,-19.462849,-1.022209,-1.097902,1.208299,-19.503336,20.641033,0.033468
54,1427097179,-23.565243,-11.885979,90.34604,-1.1551895,-0.09051466,1.6898429,11.183033,-36.000175,-19.454588,-1.041462,-1.099411,1.236463,-19.316952,20.04103,-0.290775
55,1427113846,-19.657032,-12.13266,85.338684,-1.1698437,-0.025488377,1.6300392,11.4447,-36.278088,-18.451254,-1.060959,-1.099836,1.26363,-19.126207,19.436395,-0.598296
56,1427130513,-15.668465,-12.316246,83.25673,-1.1837101,0.00032520294,1.5894642,11.659027,-35.99728,-17.216524,-1.080688,-1.099831,1.290121,-18.93189,18.83644,-0.885238
57,1427147180,-11.657036,-12.439911,89.09404,-1.2040052,-0.029366612,1.5817173,12.164595,-34.11195,-15.362164,-1.100755,-1.10032,1.316483,-18.729147,18.267908,-1.141274
58,1427163847,-7.4961624,-12.602882,89.67386,-1.2154627,-0.034539104,1.5619583,12.184418,-32.990234,-13.874638,-1.121013,-1.100896,1.342516,-18.526073,17.718071,-1.372518
59,1427180514,-3.1783714,-12.800621,84.11087,-1.2159109,-0.015428424,1.5296347,11.628838,-32.86327,-12.845371,-1.141278,-1.101153,1.36801,-18.332259,17.17035,-1.586608
60,1427197181,1.1833,-12.988396,83.19646,-1.2186337,-0.026123881,1.5193319,11.159288,-31.678745,-11.465357,-1.161589,-1.101588,1.393332,-18.146271,16.642371,-1.777697
61,1427213848,5.6143684,-13.187012,84.067,-1.2198086,-0.050611734,1.5223322,10.590164,-29.973946,-9.9625435,-1.181919,-1.102432,1.418704,-17.969768,16.142805,-1.943739
62,1427230515,10.494499,-13.250069,81.560776,-1.2472076,-0.046195865,1.464517,10.60762,-30.188747,-9.254957,-1.202706,-1.103202,1.443113,-17.792974,15.639659,-2.097988
63,1427247182,15.845924,-13.161598,76.502014,-1.3051443,-0.014544249,1.3429693,11.35799,-32.315178,-9.344183,-1.224458,-1.103444,1.465496,-17.603674,15.101073,-2.253724
64,1427263849,21.505829,-13.00663,69.38811,-1.3777294,0.03500688,1.187145,12.385065,-35.580482,-9.964528,-1.24742,-1.102861,1.485282,-17.397256,14.508065,-2.419799
65,1427280516,27.577896,-12.744637,59.159603,-1.4734068,0.11326814,0.9772036,13.909435,-40.61025,-11.357754,-1.271977,-1.100973,1.501569,-17.165432,13.831228,-2.609095
66,1427297183,33.81272,-12.44709,51.524197,-1.5788326,0.17981005,0.7660738,15.679649,-45.52159,-12.814784,-1.298291,-1.097976,1.514337,-16.904105,13.072535,-2.822675
67,1427313850,40.199097,-12.121391,46.642704,-1.6931868,0.23393893,0.556023,17.67429,-50.260166,-14.325996,-1.326511,-1.094077,1.523604,-16.609534,12.234866,-3.061442
68,1427330517,46.953087,-11.696892,40.863186,-1.8309069,0.30525506,0.30328202,20.225687,-56.30933,-16.46146,-1.357026,-1.088989,1.528659,-16.272439,11.296377,-3.3358
69,1427347184,54.025284,-11.188744,35.455097,-1.9896536,0.38555682,0.018585443,23.29538,-63.290947,-19.08642,-1.390187,-1.082563,1.528969,-15.884183,10.241528,-3.653907
70,1427363851,60.233925,-10.523903,30.122784,-1.9167099,0.37072814,-0.1464827,25.086199,-69.912544,-20.767904,-1.422132,-1.076384,1.526528,-15.46608,9.076319,-4.000039
71,1427380518,65.4893,-9.683998,24.542027,-1.588747,0.25365293,-0.18238068,25.483522,-76.239334,-21.441153,-1.448611,-1.072156,1.523488,-15.041355,7.805663,-4.357392
72,1427397185,70.31571,-8.711914,19.815605,-1.1230879,0.0776701,-0.15344214,25.326185,-82.64246,-21.700548,-1.467329,-1.070861,1.520931,-14.619252,6.428289,-4.719068
73,1427413852,74.381935,-7.581749,15.847515,-0.44745255,-0.18642426,-0.0177989,24.128857,-88.81705,-21.16185,-1.474787,-1.073968,1.520634,-14.217104,4.948005,-5.071765
74,1427430519,78.4273,-6.316559,11.932476,0.28892803,-0.47056156,0.12537098,23.032694,-95.93223,-20.822414,-1.469972,-1.081811,1.522724,-13.833226,3.349135,-5.418805
75,1427447186,82.48205,-4.9151306,8.237804,1.0800533,-0.7725517,0.27211595,22.108566,-104.04162,-20.729635,-1.451971,-1.094687,1.527259,-13.46475,1.615108,-5.764299
76,1427463853,85.87986,-3.3397903,5.077923,2.0659752,-1.1527518,0.509279,20.366123,-112.31555,-20.050627,-1.417538,-1.1139,1.535747,-13.125315,-0.256818,-6.098476
77,1427480520,88.761696,-1.5912552,2.3782043,3.219118,-1.5983595,0.817629,18.04188,-121.0134,-18.989002,-1.363886,-1.140539,1.549374,-12.824617,-2.273708,-6.414959
78,1427497187,91.473976,0.28645325,-0.05051422,3.851184,-1.7721841,0.9565089,16.527557,-127.37156,-19.894892,-1.2997,-1.170075,1.565316,-12.549158,-4.396567,-6.746541
79,1427513854,93.947075,2.2990265,-2.1742973,3.9146404,-1.6490601,0.9143778,15.826536,-131.02304,-22.894684,-1.234456,-1.197559,1.580556,-12.285382,-6.580284,-7.128119
80,1427530521,96.09196,4.4717407,-3.9143906,3.7183008,-1.3800597,0.7932466,15.432186,-133.44882,-27.014,-1.172484,-1.22056,1.593777,-12.028179,-8.804431,-7.578352
81,1427547188,97.96343,6.798065,-5.2998753,3.072338,-0.87113,0.5285877,15.695881,-133.82812,-32.89376,-1.121278,-1.235079,1.602587,-11.766581,-11.0349,-8.126581
82,1427563855,99.16001,9.320091,-6.013588,2.414524,-0.33394027,0.2841612,15.549046,-133.5402,-38.95483,-1.081036,-1.240645,1.607323,-11.50743,-13.26057,-8.775828
83,1427580522,99.64333,12.045799,-6.015787,1.7661629,0.22210944,0.068128586,14.940008,-132.65784,-45.132465,-1.0516,-1.236943,1.608458,-11.25843,-15.471534,-9.528036
84,1427597189,99.63822,14.952648,-5.470482,0.74069405,0.98667896,-0.25745678,14.698339,-129.73984,-52.78232,-1.039255,-1.220498,1.604167,-11.013458,-17.633865,-10.407741
85,1427613856,99.03574,18.054382,-4.284189,-0.5753517,1.9188322,-0.6591344,14.596123,-125.028824,-61.59316,-1.048844,-1.188517,1.593181,-10.770189,-19.717679,-11.434294
86,1427630523,99.16593,20.317455,-3.3941135,-1.6001873,2.3596716,-0.8689728,15.243307,-114.889565,-64.21114,-1.075514,-1.149189,1.578698,-10.516134,-21.632505,-12.50448
87,1427647190,100.164894,21.637367,-2.8876266,-2.332121,2.2708411,-0.8786619,16.803204,-98.68499,-60.0794,-1.114383,-1.111342,1.564054,-10.236081,-23.277255,-13.505803
88,1427663857,101.31126,22.511196,-2.235695,-2.9947157,1.9385093,-0.7931249,18.8377,-78.20208,-52.458553,-1.164295,-1.079034,1.550835,-9.922119,-24.580623,-14.380112
89,1427680524,102.97672,22.64098,-1.6925011,-3.4427142,1.1833972,-0.5416658,21.555595,-52.252033,-39.287834,-1.221674,-1.059311,1.541807,-9.562859,-25.45149,-15.034909
90,1427697191,104.420906,22.619999,-0.72231674,-4.122201,0.43944836,-0.31635618,24.826435,-22.448982,-25.174189,-1.290377,-1.051987,1.536534,-9.149085,-25.82564,-15.454479
91,1427713858,105.583336,22.474121,0.7295418,-5.058931,-0.27234674,-0.12571883,28.640388,11.246583,-10.306242,-1.374693,-1.056526,1.534439,-8.671745,-25.638197,-15.62625
92,1427730525,107.158134,21.636604,2.1808205,-5.909857,-1.326205,0.18744683,33.2655,50.812614,9.465118,-1.473191,-1.078629,1.537563,-8.11732,-24.79132,-15.468498
93,1427747192,108.99143,20.216717,3.7517586,-6.772905,-2.6350973,0.5837909,38.696716,96.076775,33.26085,-1.586073,-1.122547,1.547293,-7.472375,-23.19004,-14.914151
94,1427763859,108.94088,18.451645,3.8676033,-7.1372466,-3.4060564,0.69288933,39.508873,130.52638,50.30292,-1.705027,-1.179315,1.558841,-6.813894,-21.0146,-14.075769
95,1427780526,106.89028,16.270218,2.3019714,-6.911031,-3.6119142,0.49791098,35.215473,152.9206,60.136715,-1.820211,-1.239514,1.56714,-6.226969,-18.465923,-13.07349
96,1427797193,103.75184,13.611401,-0.12947845,-6.40132,-3.5726995,0.1476078,28.382301,171.06607,67.34496,-1.9269,-1.299059,1.5696,-5.753931,-15.614822,-11.951074
97,1427813860,98.94463,10.499935,-3.9084625,-5.4484334,-3.0792413,-0.45810866,17.472721,180.41501,69.07386,-2.017707,-1.35038,1.561965,-5.462719,-12.607905,-10.799843
98,1427830527,93.88416,6.622017,-8.251205,-4.258892,-2.6929913,-1.063215,5.699162,191.22202,72.75525,-2.088689,-1.395263,1.544245,-5.367733,-9.420871,-9.587256
99,1427847194,88.63557,1.9390411,-13.133194,-2.844862,-2.4410377,-1.6574559,-6.786178,204.08334,78.79207,-2.136103,-1.435947,1.516621,-5.480836,-6.019482,-8.274055
100,1427863861,81.9813,-3.3959732,-19.397778,-0.953701,-1.8623296,-2.4568734,-22.967442,209.88516,81.01548,-2.151998,-1.466986,1.475673,-5.863627,-2.521396,-6.923797
101,1427880528,74.203835,-9.476273,-26.91991,1.3830242,-1.0728568,-3.4105844,-42.233826,210.69907,80.97542,-2.128948,-1.484867,1.41883,-6.567524,0.990255,-5.574207
102,1427897195,63.760635,-13.3908615,-36.698864,2.7733393,-0.5503581,-4.030298,-54.23537,212.23248,82.4301,-2.082726,-1.49404,1.351658,-7.471447,4.527463,-4.200372
103,1427913862,50.315178,-14.852089,-49.001812,3.1263304,-0.2819736,-4.2969117,-58.38911,213.72322,84.93706,-2.03062,-1.49874,1.280043,-8.444599,8.089517,-2.784754
104,1427930529,34.75177,-15.312599,-63.332947,3.089816,-0.11698115,-4.409059,-59.22681,213.69734,87.71605,-1.979123,-1.50069,1.206559,-9.431713,11.651139,-1.32282
105,1427947196,16.549492,-13.9449005,-80.06839,2.286398,-0.17198598,-4.236868,-53.948742,213.26604,91.5608,-1.941016,-1.503556,1.135945,-10.330859,15.205573,0.203193
106,1427963863,-3.7622375,-12.417908,-98.92888,1.5998201,-0.04595256,-4.122813,-49.386314,206.5701,92.63745,-1.914352,-1.504322,1.067231,-11.153964,18.648408,1.747151
107,1427980530,-26.1932,-10.826035,-119.97328,1.0834885,0.27879894,-4.0829597,-45.89133,193.19136,90.76466,-1.896294,-1.499675,0.999182,-11.91882,21.868264,3.259895
108,1427997197,-51.523582,-7.596031,-143.74129,-0.03198147,0.50544286,-3.8334837,-37.606052,176.78589,88.447105,-1.896827,-1.491251,0.935291,-12.545588,24.814695,4.734013
109,1428013864,-79.71461,-3.0502396,-170.26091,-1.5645905,0.72073066,-3.4445052,-25.917212,155.89774,84.79933,-1.922904,-1.479239,0.877883,-12.977542,27.412991,6.147335
110,1428030531,-99.135704,-0.20867157,-188.61069,-2.4365768,0.8131579,-3.1500988,-18.563404,136.57814,79.29348,-1.963514,-1.465686,0.825381,-13.286932,29.689293,7.468893
111,1428047198,-108.78709,0.871315,-197.83669,-2.6467447,0.73820746,-2.93541,-15.50379,119.62674,72.06503,-2.007626,-1.453383,0.776457,-13.545328,31.683072,8.669977
112,1428063865,-114.17207,1.4369507,-203.16231,-2.5893726,0.6085354,-2.7341294,-13.945694,100.990364,62.669014,-2.050782,-1.443241,0.730888,-13.777756,33.366245,9.714461
113,1428080532,-112.01999,0.7212372,-201.51634,-1.9934244,0.38303566,-2.5998979,-15.814653,82.33971,50.947975,-2.084006,-1.436857,0.687556,-14.041334,34.738573,10.563594
114,1428097199,-109.31395,0.9224472,-199.43521,-1.6889973,0.049348593,-2.3191552,-15.023014,60.831894,37.750633,-2.112156,-1.436035,0.648903,-14.291718,35.752438,11.192771
115,1428113866,-106.40634,2.1769104,-197.26256,-1.7175913,-0.387663,-1.8812132,-11.256477,36.02606,22.955858,-2.140783,-1.442496,0.617549,-14.479326,36.352872,11.575369
116,1428130533,-96.89012,2.7470932,-188.9969,-1.4373283,-0.96159065,-1.4349635,-9.156076,10.736129,5.9502764,-2.164738,-1.458523,0.593633,-14.631927,36.531807,11.67454
117,1428147200,-82.11676,3.1137314,-175.91022,-1.0263729,-1.6784793,-0.9321492,-7.39982,-15.720932,-13.167309,-2.181844,-1.486498,0.578097,-14.755257,36.269791,11.455085
118,1428163867,-74.050186,3.3067093,-169.7806,-0.78195,-2.1078916,-0.48318863,-6.3401656,-35.82815,-27.355656,-2.194876,-1.52163,0.570044,-14.860926,35.672655,10.999157
119,1428180534,-72.91018,3.1217804,-170.87679,-0.6579771,-2.2181756,-0.113232374,-6.5478625,-48.43166,-36.011414,-2.205842,-1.5586,0.568157,-14.970057,34.865461,10.398967
120,1428197201,-73.811905,2.8746262,-174.36555,-0.636302,-2.221219,0.2654419,-6.943801,-57.510967,-42.421772,-2.216447,-1.59562,0.572581,-15.085787,33.906945,9.691937
121,1428213868,-79.79877,2.511757,-183.26776,-0.78040886,-2.0002186,0.6187395,-7.7805595,-60.738747,-44.5997,-2.229454,-1.628957,0.582893,-15.215463,32.894633,8.948609
122,1428230535,-82.1082,1.5781784,-189.06029,-0.75306225,-1.8159791,0.9751277,-10.039652,-61.801235,-46.87186,-2.242005,-1.659223,0.599145,-15.382791,31.864612,8.167411
123,1428247202,-80.21278,0.07577515,-191.24422,-0.5485449,-1.6867571,1.3415616,-13.689472,-60.814644,-49.44542,-2.251147,-1.687336,0.621504,-15.610949,30.851035,7.343321
124,1428263869,-81.03328,-1.8376389,-196.61902,-0.38570213,-1.3813156,1.6734807,-18.514372,-53.745632,-48.381386,-2.257575,-1.710358,0.649395,-15.919522,29.955274,6.536965
125,1428280536,-82.661285,-4.274925,-203.34627,-0.19204807,-0.9541097,1.9766889,-24.761297,-41.173115,-44.5157,-2.260776,-1.72626,0.68234,-16.33221,29.269055,5.795037
126,1428297203,-82.47657,-6.0206833,-205.47641,-0.08162308,-0.7222864,2.2121146,-27.53854,-34.810417,-42.784897,-2.262136,-1.738298,0.719209,-16.791186,28.688881,5.081955
127,1428313870,-81.03964,-6.9697876,-203.2345,-0.08600235,-0.685471,2.366856,-26.42144,-35.066437,-43.077576,-2.263569,-1.749723,0.758657,-17.231543,28.10444,4.363995
128,1428330537,-78.27249,-7.796509,-198.16664,-0.09888935,-0.72845984,2.460836,-23.94175,-36.58181,-43.525173,-2.265217,-1.761864,0.799671,-17.630572,27.494743,3.638575
129,1428347204,-73.66339,-8.174286,-188.80553,-0.15603161,-0.93072057,2.4780443,-18.755947,-42.35306,-45.29614,-2.267818,-1.777376,0.840972,-17.943171,26.788859,2.883639
130,1428363871,-70.46875,-8.7834015,-180.3118,-0.24886036,-1.0479409,2.4286342,-13.668787,-44.27033,-44.3835,-2.271966,-1.794842,0.881449,-18.170984,26.05102,2.143914
131,1428380538,-68.735794,-9.692055,-172.8242,-0.36849594,-1.0679375,2.309519,-8.893928,-41.722115,-40.51152,-2.278108,-1.812641,0.919941,-18.319216,25.355651,1.468722
132,1428397205,-66.4528,-10.285011,-162.51678,-0.5506716,-1.1792612,2.0980873,-1.8647404,-41.23939,-36.602085,-2.287286,-1.832295,0.954909,-18.350295,24.668328,0.858687
133,1428413872,-64.330284,-10.713768,-150.45613,-0.79324055,-1.3294399,1.7923648,6.8355136,-41.006744,-31.727537,-2.300507,-1.854452,0.984782,-18.23637,23.984882,0.329895
134,1428430539,-61.58002,-11.2547,-133.4519,-0.9552107,-1.3796834,1.5869625,12.832279,-39.38585,-27.907621,-2.316427,-1.877447,1.011231,-18.022499,23.328451,-0.135232
135,1428447206,-57.963524,-11.8530655,-110.716385,-1.0304632,-1.3381519,1.4942961,16.05334,-36.978016,-25.628746,-2.333601,-1.89975,1.036136,-17.754943,22.712151,-0.562378
136,1428463873,-54.385662,-12.478851,-84.445496,-1.0858135,-1.2340865,1.4174024,18.198803,-33.28191,-23.247942,-2.351698,-1.920318,1.059759,-17.45163,22.157453,-0.949844
137,1428480540,-50.614956,-13.182289,-53.56944,-1.0849686,-1.0337741,1.4079252,18.14755,-28.045422,-21.397852,-2.369781,-1.937548,1.083224,-17.149171,21.690029,-1.306475
138,1428497207,-46.59954,-13.653938,-18.849174,-1.1174726,-0.86566824,1.3416649,19.103407,-23.783894,-19.570986,-2.388406,-1.951976,1.105585,-16.830781,21.293631,-1.632658
139,1428513874,-42.445114,-13.879646,19.66687,-1.1903219,-0.73234737,1.2086418,21.230694,-20.499367,-17.637062,-2.408245,-1.964182,1.125729,-16.476936,20.951975,-1.926609
140,1428530541,-37.994484,-14.04689,63.393024,-1.2285213,-0.5409647,1.1144943,21.978918,-16.770712,-16.414797,-2.42872,-1.973198,1.144304,-16.110621,20.672463,-2.200189
141,1428547208,-33.26655,-14.082359,112.28282,-1.251812,-0.31794488,1.0319126,22.027124,-13.147372,-15.800785,-2.449584,-1.978497,1.161503,-15.743502,20.45334,-2.463535
142,1428563875,-30.046879,-14.153786,146.33136,-1.2896585,-0.17935956,0.96958864,22.311428,-9.572852,-13.716459,-2.471078,-1.981486,1.177663,-15.371645,20.293792,-2.692143
143,1428580542,-28.490776,-14.28862,163.84785,-1.3356152,-0.12628078,0.94203866,22.607008,-5.9558287,-10.112738,-2.493338,-1.983591,1.193364,-14.994862,20.194528,-2.860689
144,1428597209,-27.782887,-14.348503,174.31921,-1.3891983,-0.122029066,0.9270303,22.92314,-2.7499921,-5.9338646,-2.516491,-1.985625,1.208815,-14.61281,20.148695,-2.959587
145,1428613876,-28.43,-14.378555,172.13933,-1.4558611,-0.19724178,0.9317379,23.426605,0.040627718,-0.6607559,-2.540755,-1.988912,1.224344,-14.222367,20.149372,-2.9706
146,1428630543,-29.419031,-14.319954,169.31886,-1.5000696,-0.25944352,0.9776628,22.902967,2.7357929,4.293283,-2.565756,-1.993236,1.240638,-13.840651,20.194969,-2.899045
147,1428647210,-30.712984,-14.154762,166.48225,-1.5208406,-0.3063407,1.0655365,21.314598,5.2429514,8.816004,-2.591103,-1.998342,1.258397,-13.485408,20.282352,-2.752112
148,1428663877,-33.277733,-13.947655,152.64018,-1.5397348,-0.4111374,1.1930803,19.378563,7.361418,14.036411,-2.616765,-2.005194,1.278282,-13.162432,20.405042,-2.518172
149,1428680544,-36.9305,-13.680641,130.13152,-1.5486851,-0.55550855,1.366843,16.813953,9.107333,19.633808,-2.642576,-2.014452,1.301063,-12.882199,20.556831,-2.190942
150,1428697211,-38.532402,-13.55587,117.64549,-1.5082979,-0.70893335,1.4985144,16.753042,9.305215,21.93589,-2.667714,-2.026268,1.326038,-12.602982,20.711918,-1.825344
151,1428713878,-37.92556,-13.60125,115.38339,-1.4159288,-0.8782645,1.582134,19.5576,7.7826777,20.693546,-2.691313,-2.040906,1.352407,-12.277022,20.841629,-1.480452
152,1428730545,-36.497402,-13.7074585,115.85033,-1.2836342,-1.0667241,1.6662606,23.536968,5.0620756,17.39512,-2.712707,-2.058685,1.380178,-11.884739,20.925997,-1.190533
153,1428747212,-33.411083,-13.935089,123.74391,-1.0997171,-1.269141,1.7280025,29.589867,0.7696023,11.006037,-2.731036,-2.079837,1.408978,-11.391575,20.938824,-1.007099
154,1428763879,-30.772167,-14.176483,125.105515,-0.8915787,-1.5245923,1.8205645,36.07658,-4.5618563,3.8924584,-2.745896,-2.105247,1.439321,-10.790299,20.862793,-0.942225
155,1428780546,-28.702343,-14.425674,119.0827,-0.6586294,-1.835371,1.9497248,42.88291,-10.951931,-3.8857446,-2.756873,-2.135837,1.471816,-10.075584,20.680261,-1.006987
156,1428797213,-25.428656,-14.791946,116.54109,-0.37592602,-2.179049,2.0702198,51.630165,-19.034758,-14.45166,-2.763138,-2.172154,1.50632,-9.215081,20.363015,-1.247848
157,1428813880,-21.390629,-15.255714,114.410324,-0.047719,-2.565358,2.1945693,62.001133,-28.754396,-27.373007,-2.763933,-2.21491,1.542896,-8.181729,19.883775,-1.704065
158,1428830547,-17.10011,-15.422783,112.98044,0.120388985,-2.8558707,2.189128,73.84096,-33.58599,-35.337994,-2.761927,-2.262508,1.579381,-6.951046,19.324008,-2.293032
159,1428847214,-12.36834,-15.271828,113.54129,0.11183643,-3.0356984,2.0348384,87.40269,-33.004955,-37.940727,-2.760063,-2.313103,1.613295,-5.494335,18.773925,-2.925377
160,1428863881,-7.2309914,-14.978996,113.82301,0.02149105,-3.1779165,1.803166,102.60331,-30.089943,-38.392784,-2.759705,-2.366068,1.643348,-3.78428,18.272426,-3.565257
161,1428880548,-1.747982,-14.438667,114.26779,-0.20824623,-3.2431417,1.453655,119.520515,-23.024319,-34.720684,-2.763176,-2.42012,1.667576,-1.792271,17.888687,-4.143935
162,1428897215,4.856552,-13.910851,117.416794,-0.4505148,-3.3069878,1.0527893,138.72427,-15.804065,-31.787333,-2.770685,-2.475236,1.685122,0.5198,17.625286,-4.673724
163,1428913882,12.626976,-13.410507,123.2059,-0.69923973,-3.374606,0.6035254,160.30585,-8.644563,-29.85068,-2.782339,-2.531479,1.695181,3.191564,17.48121,-5.171235
164,1428930549,21.162575,-12.716499,130.87381,-1.0691519,-3.3732293,0.035135984,184.12314,2.0588958,-24.76281,-2.800158,-2.587699,1.695767,6.260283,17.515525,-5.583948
165,1428947216,30.66246,-11.882698,141.03938,-1.5356302,-3.3177216,-0.6411691,210.37709,15.516263,-17.518291,-2.825752,-2.642994,1.685081,9.766568,17.774129,-5.87592
166,1428963883,36.107437,-11.428078,141.79594,-1.8096561,-3.267219,-1.0169749,222.49603,24.593908,-11.086517,-2.855913,-2.697448,1.668131,13.474835,18.184027,-6.060695
167,1428980550,36.983955,-11.375343,132.05423,-1.8793688,-3.216095,-1.0635686,218.85306,29.10903,-5.187766,-2.887236,-2.75105,1.650405,17.122386,18.669177,-6.147158
168,1428997217,35.817055,-11.51519,117.96602,-1.8667564,-3.1444016,-0.9684417,207.42017,31.960989,0.96609044,-2.918349,-2.803457,1.634264,20.579389,19.20186,-6.131056
169,1429013884,31.173836,-11.987221,96.229126,-1.6953411,-3.0641613,-0.61934566,183.447,31.304953,6.7363453,-2.946605,-2.854526,1.623942,23.636839,19.723609,-6.018784
170,1429030551,25.876411,-12.433754,73.58385,-1.5647612,-2.920262,-0.2735281,156.50954,32.27562,14.985652,-2.972684,-2.903197,1.619383,26.245331,20.261536,-5.769023
171,1429047218,20.083275,-12.839859,50.517536,-1.4856462,-2.7080288,0.055235147,127.04729,35.15488,25.878511,-2.997445,-2.948331,1.620304,28.362786,20.847451,-5.337714
172,1429063885,11.10025,-13.506729,20.77501,-1.2924032,-2.463077,0.5942044,85.98381,35.812332,37.511627,-3.018985,-2.989382,1.630207,29.79585,21.444323,-4.71252
173,1429080552,-0.5332413,-14.3628845,-14.269318,-1.026576,-2.1714869,1.2918601,35.10529,35.34022,50.55718,-3.036095,-3.025573,1.651738,30.380938,22.033327,-3.8699
174,1429097219,-9.208271,-14.840775,-41.91455,-0.92335415,-1.8511331,1.6949792,4.016891,35.20462,58.201004,-3.051484,-3.056425,1.679988,30.447886,22.620071,-2.899883
175,1429113886,-14.788918,-14.925079,-61.803123,-0.9846382,-1.5057002,1.790694,-5.7432275,35.03279,59.598316,-3.067895,-3.08152,1.709833,30.352166,23.203951,-1.906578
176,1429130553,-19.630413,-14.839035,-79.09158,-1.1266079,-1.115091,1.7614361,-7.168222,34.857563,58.463966,-3.086672,-3.100105,1.73919,30.232696,23.78491,-0.932179
177,1429147220,-22.29824,-14.43428,-90.47793,-1.4096584,-0.68371564,1.4890392,7.6751504,34.93156,52.816452,-3.110166,-3.1115,1.764007,30.360615,24.367103,-0.051905
178,1429163887,-26.815275,-14.122841,-104.981674,-1.6538868,-0.20712149,1.298247,19.031324,33.323185,46.155655,-3.137731,-3.114952,1.785644,30.677804,24.922489,0.717356
179,1429180554,-33.43239,-13.924438,-123.07913,-1.851779,0.31810677,1.2057152,25.814537,29.969736,38.71572,-3.168594,-3.10965,1.805739,31.108046,25.421985,1.362618
180,1429197221,-38.938988,-13.505821,-137.44707,-2.144865,0.8869928,0.94814074,44.766716,25.99706,26.965359,-3.204342,-3.094867,1.821541,31.854158,25.855269,1.812041
181,1429213888,-44.211067,-12.952797,-149.98354,-2.495697,1.5020193,0.593652,71.81073,20.954632,11.566019,-3.245937,-3.069833,1.831435,33.051003,26.204513,2.004808
182,1429230555,-48.106438,-12.6166,-162.44548,-2.646428,1.7979435,0.47018588,84.228615,16.538273,1.2928756,-3.290044,-3.039867,1.839271,34.454813,26.480151,2.026356
183,1429247222,-50.11735,-12.489655,-174.06229,-2.5885477,1.737347,0.57720137,82.00676,12.978764,-3.5541687,-3.333186,-3.010911,1.848891,35.821592,26.696464,1.96712
184,1429263889,-51.372513,-12.46254,-185.23761,-2.4183483,1.4937154,0.8052397,73.262794,9.116184,-6.7745376,-3.373492,-2.986016,1.862312,37.042639,26.8484,1.854211
185,1429280556,-51.418167,-12.622223,-196.15407,-2.0667782,0.9611412,1.2379229,52.259224,5.4181156,-6.094339,-3.407938,-2.969997,1.882944,37.913626,26.938702,1.752639
186,1429297223,-50.091915,-12.676514,-203.83481,-1.7201729,0.34981835,1.6163856,36.631172,1.1465037,-7.6061387,-3.436608,-2.964167,1.909884,38.524146,26.95781,1.62587
187,1429313890,-47.411766,-12.613861,-208.15552,-1.3849707,-0.33203757,1.9309208,27.199844,-3.8229601,-11.693014,-3.459691,-2.969701,1.942066,38.977477,26.894094,1.430986
188,1429330557,-42.999855,-12.653236,-210.62839,-0.907279,-1.2860537,2.382394,10.318235,-8.731925,-13.392148,-3.474812,-2.991135,1.981773,39.149448,26.748562,1.207784
189,1429347224,-36.7611,-12.732552,-210.51083,-0.3240652,-2.474161,2.9171185,-10.263132,-13.75892,-14.016992,-3.480213,-3.032371,2.030392,38.978396,26.519247,0.974167
190,1429363891,-31.9423,-12.774918,-206.25111,0.023221016,-3.1903453,3.217451,-23.121323,-17.80809,-15.57427,-3.479826,-3.085543,2.084016,38.593041,26.222445,0.714596
191,1429380558,-28.718172,-12.797905,-197.6848,0.12125683,-3.3964486,3.2760203,-28.734928,-20.661282,-17.644022,-3.477805,-3.14215,2.138616,38.114126,25.87809,0.420529
192,1429397225,-25.41305,-12.795319,-184.87962,0.1078949,-3.4058337,3.206471,-29.929539,-22.950994,-20.160616,-3.476007,-3.198914,2.192057,37.6153,25.495573,0.084519
193,1429413892,-22.861225,-12.752098,-167.27899,-0.10783386,-3.0290387,2.9246526,-23.889606,-24.318483,-23.50155,-3.477804,-3.249398,2.240801,37.21714,25.090265,-0.307174
194,1429430559,-19.00462,-12.770325,-145.98918,-0.2854185,-2.7343721,2.6677377,-20.762714,-25.22597,-25.23474,-3.482561,-3.294971,2.285263,36.871095,24.669832,-0.727753
195,1429447226,-13.644844,-12.850998,-120.8181,-0.4138937,-2.5481973,2.4437096,-20.802834,-25.68396,-25.287394,-3.489459,-3.337441,2.325991,36.524381,24.241766,-1.14921
196,1429463893,-8.492413,-12.931656,-90.59283,-0.6925278,-2.0724807,2.0603504,-16.543,-25.115421,-25.139004,-3.501001,-3.371982,2.36033,36.248664,23.823176,-1.568193
197,1429480560,-3.070858,-13.034409,-55.36805,-1.0722427,-1.4040436,1.5651398,-10.078746,-23.580208,-24.234934,-3.518872,-3.395383,2.386416,36.080685,23.430173,-1.972109
198,1429497227,1.73143,-13.046623,-25.587896,-1.2948723,-1.0141631,1.2593486,-6.514422,-22.75353,-23.667686,-3.540453,-3.412286,2.407405,35.972111,23.050947,-2.36657
199,1429513894,5.6236877,-12.951866,-2.0204735,-1.3612871,-0.8960397,1.1474714,-5.486017,-22.68044,-23.645384,-3.563141,-3.42722,2.42653,35.880677,22.67294,-2.76066
200,1429530561,9.3613205,-12.819374,20.354073,-1.3621321,-0.8888287,1.117331,-5.9960246,-22.567139,-23.21915,-3.585843,-3.442034,2.445152,35.780743,22.296821,-3.147646
201,1429547228,12.628738,-12.616257,38.679806,-1.232501,-1.1088543,1.246706,-9.263529,-22.830662,-22.69121,-3.606385,-3.460515,2.46593,35.626351,21.91631,-3.525833
202,1429563895,15.546051,-12.391083,59.542713,-1.1762857,-1.1765282,1.3074284,-10.28723,-22.29589,-21.766085,-3.62599,-3.480124,2.48772,35.454897,21.544712,-3.888601
203,1429580562,18.144318,-12.148766,83.36577,-1.2029428,-1.0736547,1.2890873,-8.950838,-20.858948,-20.328924,-3.646039,-3.498018,2.509205,35.305716,21.197063,-4.227416
204,1429597229,20.059364,-11.835815,104.375824,-1.1560602,-1.0864257,1.3720961,-8.773824,-19.44152,-18.768068,-3.665307,-3.516125,2.532073,35.159486,20.873038,-4.540217
205,1429613896,21.290604,-11.461624,123.93738,-1.0791836,-1.1327087,1.5086102,-8.7041645,-17.76852,-16.988935,-3.683293,-3.535003,2.557217,35.014417,20.576896,-4.823366
206,1429630563,23.074402,-11.164452,138.96301,-1.0458841,-1.1275082,1.5531542,-8.482135,-16.523178,-15.463118,-3.700724,-3.553795,2.583103,34.873048,20.30151,-5.081085
207,1429647230,25.436844,-10.949097,148.31183,-1.0450916,-1.0947397,1.5136359,-8.46369,-15.872901,-14.288949,-3.718142,-3.572041,2.60833,34.731987,20.036962,-5.319234
208,1429663897,27.75412,-10.755096,154.25117,-1.0718784,-1.01727,1.4268864,-8.043184,-15.294699,-13.171237,-3.736007,-3.588995,2.632111,34.597934,19.78205,-5.538755
209,1429680564,30.32396,-10.618202,155.55974,-1.1420822,-0.8793362,1.2581663,-7.239985,-15.009371,-12.263723,-3.755042,-3.603651,2.65308,34.477268,19.531894,-5.74315
210,1429697231,32.299232,-10.443687,152.4157,-1.172514,-0.8029887,1.1395977,-7.154252,-14.828162,-11.346444,-3.774584,-3.617034,2.672073,34.35803,19.284758,-5.932257
211,1429713898,33.588615,-10.225456,144.72482,-1.1617498,-0.7880906,1.0756704,-7.7566204,-14.7184515,-10.406095,-3.793946,-3.630169,2.690001,34.228753,19.03945,-6.105692
212,1429730565,34.84481,-10.040947,131.11664,-1.16397,-0.76168644,0.97167134,-8.536432,-14.978058,-9.697701,-3.813345,-3.642864,2.706196,34.086479,18.789816,-6.26732
213,1429747232,35.85881,-9.869713,111.39017,-1.1613121,-0.7497276,0.85590553,-9.734119,-15.576193,-9.185243,-3.8327,-3.655359,2.720461,33.924244,18.530213,-6.420407
214,1429763899,36.830826,-9.706154,99.92175,-1.1636744,-0.7308403,0.77818894,-10.205168,-15.347702,-8.467472,-3.852095,-3.66754,2.733431,33.754158,18.274418,-6.561532
215,1429780566,37.84133,-9.559517,97.687546,-1.1770353,-0.69713813,0.73340976,-9.8241825,-14.237203,-7.5535293,-3.871712,-3.679159,2.745654,33.590422,18.037131,-6.687424
216,1429797233,38.63295,-9.418808,97.528824,-1.1837444,-0.6779302,0.718097,-9.323059,-12.789914,-6.623213,-3.891441,-3.690458,2.757622,33.435038,17.823966,-6.797811
217,1429813900,39.271675,-9.285652,103.29219,-1.1873531,-0.666929,0.7442647,-8.3953705,-10.701853,-5.58594,-3.91123,-3.701573,2.770026,33.295115,17.645602,-6.89091
218,1429830567,39.76774,-9.183189,105.993256,-1.1962643,-0.6570271,0.75867844,-7.57108,-8.734004,-4.756787,-3.931168,-3.712523,2.782671,33.16893,17.500035,-6.97019
219,1429847234,40.091248,-9.112091,104.93625,-1.2086916,-0.6517722,0.7615006,-6.9296722,-6.941842,-4.1674175,-3.951313,-3.723386,2.795363,33.053435,17.384338,-7.039647
220,1429863901,40.291595,-9.063553,107.88342,-1.2233877,-0.649959,0.7898692,-5.9534025,-4.6892996,-3.594243,-3.971703,-3.734219,2.808527,32.954212,17.306183,-7.099551
221,1429880568,40.362717,-9.043617,112.89163,-1.2417297,-0.6512023,0.83330727,-4.768996,-2.1421957,-3.116593,-3.992398,-3.745072,2.822415,32.874729,17.27048,-7.151494
222,1429897235,40.43786,-9.011169,114.9892,-1.2535639,-0.64863855,0.86105084,-4.008808,-0.36910808,-2.5622025,-4.013291,-3.755883,2.836766,32.807916,17.264328,-7.194197
223,1429913902,40.53974,-8.963013,114.70326,-1.2581949,-0.6411667,0.8743913,-3.6685104,0.6014154,-1.8972725,-4.034261,-3.766569,2.851339,32.746774,17.274352,-7.225818
224,1429930569,40.60058,-8.924126,113.10202,-1.2614288,-0.6320489,0.8810079,-3.539183,1.1587121,-1.2672921,-4.055285,-3.777103,2.866022,32.687788,17.293664,-7.24694
225,1429947236,40.663452,-8.883965,109.11096,-1.2606802,-0.61904836,0.873309,-3.7802057,1.0189612,-0.6232487,-4.076296,-3.78742,2.880577,32.624785,17.310647,-7.257327
226,1429963903,40.651596,-8.865578,107.57503,-1.2607336,-0.60765946,0.88013685,-3.9162493,0.955204,-0.025001049,-4.097308,-3.797548,2.895246,32.559514,17.326567,-7.257744
227,1429980570,40.56372,-8.872192,108.70419,-1.2622061,-0.59803706,0.90234613,-3.9304364,0.9931257,0.5099535,-4.118345,-3.807515,2.910285,32.494007,17.343119,-7.249245
228,1429997237,40.479584,-8.883957,109.25734,-1.2605953,-0.58531517,0.9191197,-4.1965117,0.4971385,1.0513642,-4.139355,-3.81727,2.925604,32.424065,17.351405,-7.231722
229,1430013904,40.387093,-8.906616,110.331345,-1.2570171,-0.5705207,0.93655014,-4.6172094,-0.3795663,1.5818815,-4.160305,-3.826779,2.941213,32.347112,17.345079,-7.205357
230,1430030571,40.323364,-8.931267,110.82474,-1.2545977,-0.56511295,0.9506091,-4.7834034,-0.831609,2.0217867,-4.181215,-3.836198,2.957056,32.267389,17.331219,-7.171661
231,1430047238,40.307655,-8.954796,110.3495,-1.2530584,-0.5694981,0.95855176,-4.7016535,-0.86597157,2.3717554,-4.202099,-3.84569,2.973032,32.189028,17.316786,-7.132132
232,1430063905,40.31978,-8.985863,110.25523,-1.2516899,-0.5788369,0.9664439,-4.501612,-0.76886785,2.6557903,-4.22296,-3.855337,2.989139,32.114001,17.303972,-7.087869
233,1430080572,40.378487,-9.021317,110.200714,-1.2511902,-0.59612733,0.9724941,-4.081035,-0.34059525,2.85357,-4.243813,-3.865272,3.005347,32.045984,17.298295,-7.04031
234,1430097239,40.490723,-9.0625,110.06886,-1.2487383,-0.6132846,0.97342205,-3.7792034,-0.22877645,3.021491,-4.264625,-3.875493,3.021571,31.982997,17.294482,-6.989952
235,1430113906,40.663124,-9.110046,110.01398,-1.2442331,-0.6298465,0.9694452,-3.609426,-0.46684694,3.1605382,-4.285362,-3.88599,3.037728,31.92284,17.286701,-6.937276
236,1430130573,40.91462,-9.160469,109.81889,-1.2396336,-0.6524062,0.9603925,-3.3159811,-0.5659077,3.2246776,-4.306023,-3.896863,3.053735,31.867574,17.277269,-6.883531
237,1430147240,41.25374,-9.213951,109.50072,-1.2343235,-0.679247,0.9453672,-2.9706826,-0.6673293,3.2246294,-4.326595,-3.908184,3.069491,31.818063,17.266147,-6.829787
238,1430163907,41.482933,-9.267799,109.318405,-1.2315245,-0.69696134,0.9401214,-2.761993,-0.7883663,3.2547193,-4.34712,-3.9198,3.08516,31.77203,17.253008,-6.775542
239,1430180574,41.592354,-9.320892,109.254456,-1.2317619,-0.7050198,0.945727,-2.6790917,-0.87570953,3.317892,-4.367649,-3.93155,3.100922,31.727378,17.238413,-6.720244
240,1430197241,41.687965,-9.374397,109.20567,-1.2330837,-0.70857096,0.95381534,-2.6823509,-1.0200816,3.3760047,-4.3882,-3.94336,3.116819,31.682672,17.221412,-6.663977
241,1430213908,41.720024,-9.427055,109.224976,-1.2364626,-0.70399994,0.96851754,-2.817732,-1.2117639,3.4537835,-4.408808,-3.955093,3.132961,31.63571,17.201216,-6.606414
242,1430230575,41.818268,-9.479408,109.176895,-1.2405472,-0.700727,0.9804467,-2.9091349,-1.3174905,3.4829845,-4.429484,-3.966772,3.149302,31.587224,17.179258,-6.548364
243,1430247242,41.996964,-9.531052,109.04787,-1.2452288,-0.6990811,0.98869264,-2.9530244,-1.3410177,3.460113,-4.450238,-3.978423,3.16578,31.538007,17.156908,-6.490695
244,1430263909,42.15175,-9.580223,108.94377,-1.2520742,-0.6911617,1.0013777,-3.0765257,-1.3363302,3.4404535,-4.471106,-3.989942,3.18247,31.486732,17.134636,-6.433354
245,1430280576,42.31417,-9.62664,108.832184,-1.26085,-0.67882144,1.016374,-3.2433853,-1.2732679,3.4096828,-4.49212,-4.001256,3.19941,31.432676,17.113415,-6.376526
246,1430297243,42.51082,-9.677834,108.68187,-1.2655172,-0.67550236,1.0237027,-3.3643932,-1.2850561,3.3849607,-4.513212,-4.012514,3.216472,31.376603,17.091997,-6.32011
247,1430313910,42.733765,-9.733864,108.50018,-1.2657576,-0.68144196,1.0233616,-3.4452167,-1.383535,3.3752441,-4.534308,-4.023871,3.233528,31.319183,17.068938,-6.263856
248,1430330577,42.994545,-9.790558,108.2771,-1.2643223,-0.69142187,1.0185584,-3.5034046,-1.4803294,3.3632913,-4.55538,-4.035395,3.250504,31.260793,17.044266,-6.207801
249,1430347244,43.298744,-9.849617,108.00554,-1.2596092,-0.7088993,1.0067227,-3.5172837,-1.6091089,3.3565927,-4.576373,-4.04721,3.267283,31.202172,17.017448,-6.151858
250,1430363911,43.61007,-9.9056015,107.72519,-1.2555714,-0.72384226,0.9954927,-3.5735447,-1.7049458,3.3602843,-4.597299,-4.059274,3.283875,31.142613,16.989032,-6.095853
251,1430380578,43.93087,-9.957748,107.43359,-1.2524643,-0.73573565,0.9850888,-3.6739373,-1.7560949,3.3747392,-4.618173,-4.071536,3.300293,31.081381,16.959764,-6.039607
252,1430397245,44.28456,-10.009987,107.10411,-1.246932,-0.752522,0.96946025,-3.7567534,-1.8210957,3.4053516,-4.638955,-4.084078,3.316451,31.018768,16.929412,-5.982851
253,1430413912,44.665,-10.060852,106.74339,-1.2398081,-0.77206784,0.95013654,-3.8399801,-1.8825965,3.4546757,-4.659618,-4.096946,3.332287,30.954768,16.898035,-5.925273
254,1430430579,45.012825,-10.111397,106.42192,-1.2352762,-0.78581816,0.93900514,-3.896679,-1.9215997,3.445355,-4.680206,-4.110043,3.347937,30.889823,16.866008,-5.86785
255,1430447246,45.325066,-10.161972,106.14314,-1.2333117,-0.7938818,0.93647337,-3.9170938,-1.9421476,3.372416,-4.700761,-4.123274,3.363545,30.824538,16.833639,-5.811643
256,1430463913,45.62613,-10.210793,105.87752,-1.2324905,-0.7988436,0.93792,-3.925984,-1.9393604,3.275754,-4.721303,-4.136588,3.379177,30.759105,16.801316,-5.757047
257,1430480580,45.899925,-10.258095,105.644104,-1.2338629,-0.79853195,0.94650924,-3.9135985,-1.9089097,3.1350393,-4.741867,-4.149897,3.394952,30.693878,16.769501,-5.704796
258,1430497247,46.189148,-10.30381,105.392654,-1.2341375,-0.79994375,0.9536799,-3.8782535,-1.8712453,2.998384,-4.762436,-4.163229,3.410847,30.62924,16.738314,-5.654823
259,1430513914,46.495735,-10.347549,105.1207,-1.2331753,-0.8032914,0.959077,-3.8207154,-1.8248198,2.8701167,-4.782989,-4.176617,3.426832,30.565561,16.7079,-5.606988
260,1430530581,46.784218,-10.389481,104.8699,-1.2335091,-0.8032116,0.96973705,-3.7323077,-1.7552099,2.7092435,-4.803547,-4.190004,3.442994,30.503356,16.678647,-5.561834
261,1430547248,47.0633,-10.429382,104.629944,-1.2344437,-0.8011378,0.98392403,-3.6116533,-1.6655904,2.5265853,-4.824121,-4.203356,3.459393,30.443162,16.650887,-5.519724
262,1430563915,47.38173,-10.466995,104.34953,-1.2352295,-0.80140007,0.9912342,-3.5277965,-1.6384457,2.3649056,-4.844708,-4.216713,3.475914,30.384365,16.62358,-5.480309
263,1430580582,47.739616,-10.502197,104.02904,-1.2360954,-0.8037658,0.99156594,-3.4846592,-1.6799564,2.223468,-4.86531,-4.230109,3.49244,30.326287,16.595581,-5.443251
264,1430597249,48.11947,-10.534828,103.686066,-1.2369347,-0.8071319,0.9887241,-3.4473243,-1.7528744,2.089676,-4.885926,-4.243561,3.508919,30.268832,16.566366,-5.408423
265,1430613916,48.53363,-10.564728,103.30777,-1.2376204,-0.8125339,0.98004115,-3.4337542,-1.8801931,1.9743149,-4.906553,-4.257103,3.525253,30.211603,16.535029,-5.375518
266,1430630583,48.9442,-10.591774,102.93518,-1.2392607,-0.81598383,0.9734726,-3.400465,-2.0089624,1.8430501,-4.927207,-4.270703,3.541478,30.154929,16.501546,-5.3448
267,1430647250,49.34938,-10.615799,102.57007,-1.2418833,-0.8173412,0.96937954,-3.3436038,-2.1366735,1.6949283,-4.947905,-4.284325,3.557634,30.099202,16.465935,-5.316551
268,1430663917,49.778557,-10.636642,102.18126,-1.2448559,-0.8194523,0.9615183,-3.2998042,-2.310216,1.5563903,-4.968653,-4.297983,3.573659,30.044205,16.427431,-5.290611
269,1430680584,50.223633,-10.6540985,101.77742,-1.2484331,-0.82145804,0.9515629,-3.2592587,-2.5191782,1.4204708,-4.98946,-4.311674,3.589518,29.989884,16.385445,-5.266936
270,1430697251,50.65464,-10.672279,101.388504,-1.2504473,-0.82175744,0.9448731,-3.2194674,-2.6312025,1.3064164,-5.010301,-4.32537,3.605266,29.936226,16.341592,-5.245162
271,1430713918,51.07203,-10.691391,101.013916,-1.250638,-0.82048845,0.9412198,-3.1846879,-2.6397755,1.2196143,-5.031145,-4.339045,3.620953,29.883148,16.297596,-5.224835
272,1430730585,51.48443,-10.709351,100.64554,-1.2502346,-0.81779325,0.9391967,-3.149328,-2.601005,1.1466624,-5.051982,-4.352675,3.636606,29.830659,16.254246,-5.205724
273,1430747252,51.88418,-10.727219,100.290985,-1.2486134,-0.81327605,0.9401096,-3.1140878,-2.4793148,1.0943365,-5.072792,-4.36623,3.652274,29.778758,16.212924,-5.187485
274,1430763919,52.296265,-10.742432,99.92505,-1.2468824,-0.80858845,0.93920946,-3.089159,-2.3642533,1.0591838,-5.093573,-4.379706,3.667927,29.727272,16.17352,-5.169832
275,1430780586,52.72132,-10.7547455,99.547134,-1.2451315,-0.8037211,0.93634677,-3.0746162,-2.2601998,1.0411987,-5.114325,-4.393101,3.683533,29.676028,16.13585,-5.152479
276,1430797253,53.140305,-10.766335,99.17648,-1.2422676,-0.7974965,0.93499017,-3.0665023,-2.091398,1.0488458,-5.135029,-4.406393,3.699116,29.62492,16.100993,-5.134998
277,1430813920,53.55825,-10.776611,98.808044,-1.238514,-0.7902337,0.9341382,-3.067347,-1.8760505,1.0823351,-5.155671,-4.419564,3.714685,29.573798,16.069725,-5.116959
278,1430830587,53.98755,-10.788872,98.4265,-1.2365284,-0.785509,0.93247056,-3.0640097,-1.7449205,1.1108762,-5.17628,-4.432656,3.730226,29.522731,16.040643,-5.098444
279,1430847254,54.42701,-10.803703,98.032776,-1.236414,-0.78354144,0.9302474,-3.055473,-1.700783,1.1337959,-5.196887,-4.445715,3.74573,29.471806,16.012297,-5.079547
280,1430863921,54.8741,-10.819168,97.6308,-1.2370396,-0.7828559,0.927403,-3.0502193,-1.693455,1.1669128,-5.217504,-4.458763,3.761187,29.420969,15.984073,-5.060098
281,1430880588,55.33155,-10.836296,97.216995,-1.2391033,-0.7844443,0.9236622,-3.0449693,-1.7569008,1.2028369,-5.238156,-4.471837,3.776581,29.37022,15.954791,-5.040051
282,1430897255,55.786903,-10.853729,96.805695,-1.2407684,-0.78589463,0.9207133,-3.0467935,-1.7948589,1.2629919,-5.258835,-4.484935,3.791926,29.31944,15.924877,-5.019001
283,1430913922,56.23964,-10.871399,96.39749,-1.2419319,-0.78712046,0.91856635,-3.0568843,-1.8028312,1.349778,-5.279534,-4.498054,3.807235,29.268492,15.89483,-4.996505
284,1430930589,56.698196,-10.890976,95.982285,-1.2441092,-0.79021364,0.9161581,-3.0691977,-1.8580078,1.4468513,-5.300269,-4.511224,3.822504,29.217339,15.863863,-4.972391
285,1430947256,57.159805,-10.912239,95.56325,-1.2469101,-0.79470855,0.91384625,-3.0856256,-1.9403069,1.5595729,-5.321051,-4.524469,3.837735,29.165912,15.831525,-4.946398
286,1430963923,57.622704,-10.931244,95.146484,-1.2483969,-0.7976378,0.9128761,-3.075424,-1.9831748,1.621428,-5.341858,-4.537763,3.85295,29.114655,15.798472,-4.919374
287,1430980590,58.08747,-10.947899,94.73155,-1.2485666,-0.7990138,0.91328216,-3.0348654,-1.9897709,1.6241498,-5.362667,-4.55108,3.868171,29.064074,15.765309,-4.892305
288,1430997257,58.552826,-10.964081,94.31799,-1.2480812,-0.79997015,0.9147426,-2.9798505,-1.9783036,1.6030937,-5.383468,-4.564413,3.883417,29.01441,15.732337,-4.865587
289,1431013924,59.01837,-10.97879,93.9073,-1.2464466,-0.79977643,0.91761005,-2.9013464,-1.9328413,1.5387576,-5.404242,-4.577743,3.898711,28.966054,15.700123,-4.839941
290,1431030591,59.48712,-10.994919,93.4935,-1.2451763,-0.8007624,0.9208875,-2.815989,-1.9125419,1.4662068,-5.424995,-4.591089,3.914059,28.919121,15.668247,-4.815504
291,1431047258,59.9588,-11.012695,93.07674,-1.2443314,-0.80307007,0.924585,-2.724632,-1.9196653,1.3874735,-5.445734,-4.604474,3.929469,28.87371,15.636253,-4.792379
292,1431063925,60.431473,-11.029945,92.66142,-1.2427292,-0.8049388,0.92953134,-2.6107361,-1.9115435,1.2673519,-5.466446,-4.61789,3.944961,28.830198,15.604394,-4.771256
293,1431080592,60.905624,-11.0473175,92.246506,-1.2406864,-0.80688894,0.9355539,-2.4773405,-1.9009485,1.1123242,-5.487124,-4.631338,3.960554,28.788909,15.572712,-4.752717
294,1431097259,61.38642,-11.061218,91.82349,-1.2391548,-0.8080654,0.937394,-2.3907156,-1.8800206,1.0159538,-5.507777,-4.644806,3.976177,28.749064,15.541378,-4.735784
295,1431113926,61.874092,-11.07106,91.392136,-1.238081,-0.80818933,0.93464434,-2.3548124,-1.8433604,0.9817779,-5.528412,-4.658276,3.991754,28.709817,15.510655,-4.719421
296,1431130593,62.366478,-11.079041,90.95581,-1.2372265,-0.80803275,0.9296851,-2.3399575,-1.8036352,0.9688925,-5.549032,-4.671743,4.007249,28.670818,15.480594,-4.703273
297,1431147260,62.864975,-11.084061,90.51228,-1.2368174,-0.8072998,0.9210448,-2.364095,-1.7574503,1.0016694,-5.569646,-4.685198,4.0226,28.631416,15.451303,-4.686579
298,1431163927,63.365776,-11.087738,90.06795,-1.2359886,-0.8060544,0.9120163,-2.3841026,-1.6983223,1.015641,-5.590246,-4.698632,4.0378,28.591681,15.422998,-4.669652
299,1431180594,63.868668,-11.09021,89.62308,-1.2347078,-0.8043385,0.9027492,-2.3976276,-1.6269555,1.0067507,-5.610824,-4.712038,4.052846,28.551721,15.395882,-4.652873
300,1431197261,64.376785,-11.089661,89.17259,-1.2335978,-0.80184114,0.89028406,-2.4418552,-1.5432799,1.0278366,-5.631384,-4.725402,4.067684,28.511023,15.370161,-4.635742
301,1431213928,64.88932,-11.086395,88.717865,-1.2324724,-0.7985585,0.8752589,-2.5079904,-1.4457133,1.0650465,-5.651925,-4.738711,4.082272,28.469223,15.346066,-4.617991
302,1431230595,65.37192,-11.092247,88.29086,-1.2318678,-0.7956998,0.86767554,-2.5833118,-1.3360989,1.1269445,-5.672456,-4.751973,4.096733,28.426168,15.323798,-4.599209
303,1431247262,65.82147,-11.108116,87.89427,-1.2319069,-0.793302,0.8681035,-2.6718254,-1.2137372,1.2211585,-5.692988,-4.765195,4.111201,28.381638,15.303569,-4.578856
304,1431263929,66.25351,-11.128555,87.51401,-1.2322073,-0.7907597,0.87220657,-2.7742302,-1.0760845,1.3345534,-5.713525,-4.778374,4.125738,28.335401,15.285634,-4.556613
305,1431280596,66.65815,-11.156868,87.15915,-1.2329464,-0.78837097,0.88270044,-2.8889081,-0.922925,1.4718943,-5.734074,-4.791514,4.14045,28.287253,15.270252,-4.532081
306,1431297263,67.0559,-11.185699,86.81004,-1.2339745,-0.78533286,0.8929752,-3.0336013,-0.7528516,1.6420319,-5.75464,-4.804603,4.155333,28.236693,15.257704,-4.504714
307,1431313930,67.44747,-11.214699,86.466034,-1.2352772,-0.7815646,0.9027078,-3.2095938,-0.56485057,1.8452578,-5.775228,-4.817629,4.170378,28.1832,15.24829,-4.47396
308,1431330597,67.81364,-11.25045,86.14523,-1.2370863,-0.7777031,0.9175819,-3.4075928,-0.35884476,2.0824504,-5.795846,-4.830591,4.185671,28.126407,15.242309,-4.439252
309,1431347264,68.15812,-11.291496,85.84396,-1.2393837,-0.7735562,0.9362681,-3.6322803,-0.1338427,2.3565707,-5.816502,-4.843484,4.201275,28.065869,15.240078,-4.399976
310,1431363931,68.55878,-11.327538,85.483444,-1.2409592,-0.7725666,0.94874763,-3.8096924,-0.017362356,2.5565298,-5.837185,-4.85636,4.217087,28.002374,15.239789,-4.357367
311,1431380598,69.02039,-11.35849,85.0585,-1.2417421,-0.7751542,0.9548117,-3.9323363,-0.02189517,2.6728418,-5.857881,-4.869279,4.233001,27.936835,15.239424,-4.31282
312,1431397265,69.50827,-11.388405,84.60428,-1.2423086,-0.77956504,0.95836437,-4.0390563,-0.08650994,2.7609832,-5.878586,-4.882272,4.248974,27.869517,15.237982,-4.266804
313,1431413932,70.04356,-11.414719,84.09915,-1.2423363,-0.7868157,0.9568151,-4.109029,-0.24781132,2.790204,-5.899292,-4.895386,4.264921,27.801033,15.233852,-4.220301
314,1431430599,70.57556,-11.445267,83.594025,-1.2425976,-0.795069,0.9575255,-4.1836185,-0.4316734,2.8260825,-5.920002,-4.908637,4.28088,27.731306,15.226657,-4.1732
315,1431447266,71.1016,-11.480507,83.09137,-1.2431488,-0.8042428,0.9608623,-4.2657666,-0.6348127,2.8729682,-5.940721,-4.922041,4.296894,27.66021,15.216077,-4.125317
316,1431463933,71.66558,-11.51442,82.5468,-1.2433271,-0.8161867,0.96093965,-4.316451,-0.9273908,2.8711677,-5.961443,-4.935644,4.31291,27.588269,15.20062,-4.077464
317,1431480600,72.25721,-11.548691,81.97044,-1.2432976,-0.83057547,0.95930815,-4.3439875,-1.2956309,2.834012,-5.982165,-4.949487,4.328898,27.515869,15.179026,-4.03023
318,1431497267,72.83636,-11.576401,81.41231,-1.2431927,-0.84061414,0.959255,-4.3629665,-1.568465,2.8039443,-6.002885,-4.963497,4.344886,27.443153,15.152885,-3.983498
319,1431513934,73.40522,-11.59613,80.870926,-1.2429371,-0.8459335,0.9603677,-4.3688135,-1.7399731,2.7763782,-6.023601,-4.977596,4.360892,27.370339,15.123885,-3.937225
320,1431530601,73.976524,-11.61232,80.3288,-1.2425737,-0.8495822,0.96211994,-4.3592606,-1.8836424,2.7391086,-6.044311,-4.991756,4.376927,27.297685,15.092491,-3.891573
321,1431547268,74.54107,-11.62278,79.797775,-1.2421103,-0.84974116,0.9652164,-4.3359437,-1.9550023,2.7007918,-6.065013,-5.005918,4.393014,27.225419,15.059908,-3.84656
322,1431563935,75.134346,-11.629982,79.236404,-1.2412987,-0.8508952,0.9661933,-4.279387,-2.0737958,2.6203275,-6.085701,-5.0201,4.409117,27.154096,15.025345,-3.802888
323,1431580602,75.758415,-11.634087,78.64223,-1.2401228,-0.8533076,0.96492946,-4.187672,-2.2473433,2.4947844,-6.10637,-5.034322,4.425199,27.084301,14.987889,-3.761308
324,1431597269,76.38845,-11.631783,78.045425,-1.2387018,-0.8531666,0.96369624,-4.070594,-2.3781855,2.3506727,-6.127015,-5.048541,4.441261,27.016458,14.948253,-3.72213
325,1431613936,77.03257,-11.623436,77.436615,-1.23697,-0.8514051,0.9617182,-3.9226735,-2.4920366,2.177909,-6.147631,-5.062731,4.45729,26.95108,14.906719,-3.685832
326,1431630603,77.66363,-11.61911,76.83989,-1.2358294,-0.8524027,0.95855737,-3.7987843,-2.5606017,2.0640335,-6.168228,-5.076938,4.473266,26.887767,14.864042,-3.651431
327,1431647270,78.2766,-11.619118,76.26071,-1.2353697,-0.85608435,0.95435846,-3.7041116,-2.568611,2.0196137,-6.188817,-5.091206,4.489172,26.826032,14.821232,-3.617771
328,1431663937,78.89036,-11.618721,75.68089,-1.2351084,-0.8609808,0.9487382,-3.6077785,-2.5462906,1.9954115,-6.209402,-5.105556,4.504984,26.765902,14.778794,-3.584514
329,1431680604,79.49679,-11.620453,75.10803,-1.2352972,-0.8681706,0.9415815,-3.5247169,-2.4812825,2.0164971,-6.22999,-5.120026,4.520677,26.707157,14.737439,-3.550906
330,1431697271,80.10589,-11.617371,74.535355,-1.2354269,-0.8741048,0.93367577,-3.423904,-2.3643887,2.0375748,-6.25058,-5.134594,4.536238,26.650092,14.698033,-3.516946
331,1431713938,80.71908,-11.608925,73.96164,-1.2354574,-0.87861717,0.9249351,-3.3022337,-2.1953974,2.0549433,-6.271171,-5.149238,4.551654,26.595055,14.661443,-3.482697
332,1431730605,81.32412,-11.600601,73.397156,-1.2358608,-0.88437563,0.91483295,-3.1878633,-1.9659077,2.11342,-6.291769,-5.163978,4.566901,26.541924,14.628678,-3.447473
333,1431747272,81.923,-11.590828,72.8407,-1.2365351,-0.89061344,0.90348256,-3.0738983,-1.6717837,2.203944,-6.312378,-5.178822,4.581959,26.490692,14.600815,-3.410741
334,1431763939,82.49934,-11.582527,72.30983,-1.2373314,-0.89434665,0.8979671,-2.969799,-1.5000198,2.2220764,-6.333,-5.193728,4.596925,26.441195,14.575815,-3.373706
335,1431780606,83.04919,-11.576576,71.8085,-1.238307,-0.8955722,0.89892876,-2.880369,-1.4651366,2.1643107,-6.353638,-5.208654,4.611907,26.393189,14.551396,-3.337634
336,1431797273,83.58109,-11.570511,71.32837,-1.2394705,-0.895154,0.903095,-2.7966971,-1.4737978,2.0747328,-6.374296,-5.223573,4.626959,26.346577,14.526833,-3.303055
337,1431813940,84.0891,-11.565308,70.87569,-1.2408075,-0.892306,0.9124887,-2.7229438,-1.5769835,1.9261442,-6.394976,-5.238445,4.642167,26.301195,14.50055,-3.270953
338,1431830607,84.57917,-11.560585,70.44357,-1.2425299,-0.88942176,0.9228265,-2.660653,-1.6618683,1.7911078,-6.415685,-5.253269,4.657547,26.256851,14.472852,-3.241101
339,1431847274,85.05073,-11.5561905,70.0327,-1.2446537,-0.88654166,0.93393254,-2.6100767,-1.7203804,1.6737952,-6.436429,-5.268045,4.673113,26.21335,14.444179,-3.213204
340,1431863941,85.49479,-11.553284,69.65303,-1.2470798,-0.8817718,0.94977534,-2.574883,-1.8529868,1.5148157,-6.457214,-5.282741,4.688943,26.170435,14.413296,-3.187957
341,1431880608,85.91151,-11.551849,69.30432,-1.2498674,-0.87557626,0.9695538,-2.5562184,-2.036096,1.3295547,-6.478045,-5.297334,4.705102,26.127831,14.379361,-3.165798
342,1431897275,86.3686,-11.538025,68.907135,-1.2514744,-0.8721694,0.97931945,-2.5723104,-2.2149084,1.1876856,-6.498903,-5.31187,4.721424,26.084959,14.342446,-3.146003
343,1431913942,86.87061,-11.510696,68.45599,-1.2517471,-0.8717197,0.9782858,-2.6267314,-2.3981612,1.0886737,-6.519765,-5.326399,4.737729,26.04118,14.302477,-3.127858
344,1431930609,87.38467,-11.476448,67.98929,-1.2514648,-0.872528,0.97258246,-2.7128294,-2.5971682,1.0099368,-6.540623,-5.340941,4.753939,25.995966,14.259191,-3.111026
345,1431947276,87.92896,-11.431419,67.48552,-1.2501926,-0.8757202,0.9584396,-2.837127,-2.8016076,0.969113,-6.56146,-5.355536,4.769913,25.948681,14.212498,-3.094874
346,1431963943,88.46056,-11.38398,66.99484,-1.2488003,-0.87830865,0.94506955,-2.9915257,-3.070089,0.9105468,-6.582273,-5.370174,4.785664,25.898822,14.16133,-3.079698
347,1431980610,88.97639,-11.334564,66.52069,-1.247345,-0.8801586,0.932955,-3.177209,-3.4063373,0.8322049,-6.603062,-5.384843,4.801213,25.845869,14.104558,-3.065828
348,1431997277,89.51354,-11.275612,66.0195,-1.2449989,-0.8837428,0.9142051,-3.405132,-3.7744105,0.7769401,-6.623812,-5.399572,4.81645,25.789117,14.041651,-3.052879
349,1432013944,90.06283,-11.20874,65.50185,-1.2419338,-0.88845223,0.8906956,-3.6751235,-4.188712,0.73319054,-6.644511,-5.41438,4.831295,25.727865,13.971839,-3.040659
350,1432030611,90.56303,-11.149452,65.03749,-1.2400885,-0.89075357,0.8733499,-3.8393192,-4.41836,0.6762327,-6.665179,-5.429226,4.845851,25.663876,13.8982,-3.029388
351,1432047278,91.012825,-11.098183,64.62755,-1.2395306,-0.8906239,0.8621694,-3.885532,-4.4378853,0.6088643,-6.685838,-5.44407,4.86022,25.599117,13.824235,-3.01924
352,1432063945,91.43505,-11.048569,64.246,-1.2394447,-0.88934183,0.85316944,-3.884438,-4.3672733,0.53509593,-6.706495,-5.458892,4.874439,25.534376,13.751447,-3.010322
353,1432080612,91.813774,-11.004639,63.9109,-1.2403355,-0.886006,0.84909356,-3.7948427,-4.140195,0.4494633,-6.727167,-5.473659,4.888591,25.471129,13.682444,-3.002831
354,1432097279,92.193855,-10.955315,63.57059,-1.2408447,-0.8833357,0.841465,-3.7068172,-3.8824496,0.3779109,-6.747848,-5.488381,4.902615,25.409349,13.617737,-2.996532
355,1432113946,92.57708,-10.900017,63.22279,-1.2408953,-0.8814547,0.82985735,-3.6254196,-3.6016686,0.32124746,-6.76853,-5.503072,4.916446,25.348925,13.557709,-2.991178
356,1432130613,92.927284,-10.847649,62.90877,-1.241601,-0.87823933,0.82080126,-3.469228,-3.1755152,0.26220238,-6.789223,-5.517709,4.930126,25.291105,13.504784,-2.986808
357,1432147280,93.253624,-10.795876,62.6178,-1.242672,-0.87426376,0.81247246,-3.2561371,-2.6280148,0.20649153,-6.809934,-5.53228,4.943667,25.236836,13.460984,-2.983366
358,1432163947,93.57423,-10.748375,62.337902,-1.2436466,-0.8700363,0.80630803,-3.105703,-2.2542825,0.16655356,-6.830661,-5.546781,4.957105,25.185074,13.423413,-2.98059
359,1432180614,93.88616,-10.706642,62.073193,-1.2446203,-0.8653464,0.80322874,-3.0178132,-2.064404,0.14211756,-6.851405,-5.561203,4.970492,25.134777,13.389006,-2.978221
360,1432197281,94.18661,-10.667435,61.822422,-1.2456255,-0.8603355,0.80132043,-2.9465024,-1.9320841,0.13161242,-6.872165,-5.575542,4.983847,25.085669,13.356805,-2.976027
361,1432213948,94.47915,-10.6321945,61.583965,-1.2465782,-0.85506725,0.8012308,-2.9213612,-1.9340297,0.13847703,-6.892941,-5.589793,4.997201,25.03698,13.324571,-2.973719
362,1432230615,94.74323,-10.601219,61.376034,-1.2480345,-0.84868115,0.80383027,-2.850344,-1.8644919,0.15134984,-6.913742,-5.603938,5.010598,24.989474,13.293496,-2.971197
363,1432247282,94.97785,-10.574501,61.19939,-1.2500172,-0.84115475,0.80908275,-2.7279437,-1.7110497,0.17056924,-6.934576,-5.617957,5.024083,24.944008,13.264979,-2.968354
364,1432263949,95.1957,-10.553398,61.044277,-1.2521906,-0.8329433,0.8172234,-2.6244454,-1.6414793,0.205095,-6.955446,-5.631839,5.037703,24.900267,13.237621,-2.964936
365,1432280616,95.3919,-10.5382,60.91515,-1.2546873,-0.8238424,0.82852995,-2.5194652,-1.6117334,0.25301063,-6.976357,-5.64557,5.051512,24.858276,13.210759,-2.960719
366,1432297283,95.61576,-10.517563,60.752155,-1.2563133,-0.81698686,0.8351183,-2.4571157,-1.5642405,0.31046617,-6.997296,-5.659186,5.065431,24.817324,13.184688,-2.955545
367,1432313950,95.873146,-10.49086,60.549,-1.2569304,-0.81270957,0.83640003,-2.4497902,-1.514482,0.37850356,-7.018245,-5.672731,5.079371,24.776494,13.159447,-2.949237
368,1432330617,96.13697,-10.463913,60.33753,-1.2572002,-0.8093718,0.8364028,-2.4624662,-1.4603827,0.4580586,-7.039198,-5.686221,5.093311,24.735453,13.135107,-2.941603
369,1432347284,96.421455,-10.433807,60.100803,-1.2567825,-0.8078654,0.83300555,-2.5100536,-1.3923701,0.54865277,-7.060144,-5.699685,5.107194,24.693619,13.111901,-2.932459
370,1432363951,96.70086,-10.407776,59.871494,-1.2562904,-0.8064816,0.8309338,-2.5845726,-1.3873055,0.65569293,-7.081082,-5.713126,5.121043,24.650543,13.088779,-2.921531
371,1432380618,96.973305,-10.3864975,59.651943,-1.2557735,-0.80510837,0.8305682,-2.6844428,-1.4477708,0.7797735,-7.102012,-5.726544,5.134886,24.605802,13.064649,-2.908535
372,1432397285,97.26423,-10.36396,59.4109,-1.2546215,-0.8053934,0.82773566,-2.8277926,-1.5295283,0.91814756,-7.122922,-5.739967,5.148682,24.558672,13.039157,-2.893233
373,1432413952,97.56866,-10.341827,59.15489,-1.2529564,-0.80700386,0.82345307,-3.0140321,-1.6506343,1.0723674,-7.143805,-5.753417,5.162406,24.508438,13.011646,-2.87536
374,1432430619,97.85763,-10.322052,58.915653,-1.2519712,-0.80748945,0.82156885,-3.1240942,-1.7011962,1.1942955,-7.164671,-5.766875,5.176099,24.45637,12.983293,-2.855455
375,1432447286,98.13238,-10.304108,58.691517,-1.2516909,-0.8068656,0.82190466,-3.1504037,-1.6679008,1.2791185,-7.185533,-5.780323,5.189797,24.403863,12.955495,-2.834136
376,1432463953,98.40388,-10.288292,58.471127,-1.2516155,-0.80610836,0.82330585,-3.1501904,-1.6169695,1.350831,-7.206393,-5.793758,5.203519,24.35136,12.928546,-2.811622
377,1432480620,98.66569,-10.274956,58.26157,-1.2520504,-0.8046237,0.82667947,-3.0915709,-1.5176055,1.3957148,-7.227261,-5.807168,5.217297,24.299834,12.903253,-2.78836
378,1432497287,98.941765,-10.261597,58.035694,-1.2521381,-0.8042998,0.82873845,-3.0493,-1.4238081,1.4412498,-7.24813,-5.820573,5.231109,24.249012,12.879523,-2.764339
379,1432513954,99.23403,-10.24823,57.791462,-1.2518272,-0.80526704,0.8293297,-3.0286064,-1.3415489,1.4889553,-7.268994,-5.833994,5.244931,24.198535,12.857164,-2.739523
380,1432530621,99.52561,-10.236382,57.547756,-1.2517958,-0.8061055,0.8308276,-2.9648178,-1.217286,1.5128164,-7.289857,-5.847429,5.258778,24.149121,12.836876,-2.714309
381,1432547288,99.82221,-10.22551,57.298046,-1.2518587,-0.80724627,0.8325081,-2.873779,-1.0626571,1.5181055,-7.310721,-5.860883,5.272653,24.101225,12.819165,-2.689007
382,1432563955,100.11448,-10.21463,57.0528,-1.2517319,-0.80890816,0.83396256,-2.8328853,-0.9726312,1.5433544,-7.331583,-5.874365,5.286552,24.05401,12.802954,-2.663284
383,1432580622,100.40006,-10.203743,56.81457,-1.2514715,-0.81096727,0.8353951,-2.8412247,-0.9488646,1.5883029,-7.352441,-5.887881,5.300475,24.006656,12.78714,-2.636812
384,1432597289,100.687904,-10.192955,56.573315,-1.2510777,-0.8136372,0.8364763,-2.8725848,-0.9538355,1.6375837,-7.373292,-5.901442,5.314416,23.95878,12.771243,-2.609519
385,1432613956,100.97526,-10.181961,56.332127,-1.2504959,-0.8169506,0.8371409,-2.9462042,-1.011823,1.7005262,-7.394134,-5.915058,5.328368,23.909677,12.754379,-2.581177
386,1432630623,101.2642,-10.171776,56.088787,-1.2500591,-0.82045513,0.83820915,-3.000601,-1.0545851,1.7472503,-7.414968,-5.928732,5.342338,23.859667,12.736803,-2.552056
387,1432647290,101.55576,-10.1623535,55.84213,-1.2497692,-0.82417697,0.83964515,-3.033018,-1.0784867,1.7756753,-7.435797,-5.942468,5.356332,23.809117,12.718828,-2.522461
388,1432663957,101.84666,-10.152916,55.595753,-1.2494211,-0.8283715,0.8409828,-3.0902758,-1.1381474,1.8081977,-7.456621,-5.956274,5.370348,23.757612,12.699859,-2.492324
389,1432680624,102.137566,-10.143608,55.348835,-1.2490845,-0.83295447,0.8423811,-3.1592457,-1.2190747,1.837977,-7.477439,-5.970157,5.384388,23.704958,12.679541,-2.461691
390,1432697291,102.4186,-10.133392,55.113056,-1.2487507,-0.8360487,0.8438418,-3.1934464,-1.2721682,1.8441238,-7.498252,-5.984091,5.398452,23.651734,12.658338,-2.430956
391,1432713958,102.6883,-10.122025,54.890102,-1.2484016,-0.8374859,0.84532356,-3.193623,-1.2992747,1.8267778,-7.519059,-5.998049,5.412541,23.598507,12.636683,-2.40051
392,1432730625,102.951775,-10.110054,54.673923,-1.2480946,-0.8380881,0.84693396,-3.172592,-1.3138105,1.7906597,-7.539861,-6.012017,5.426657,23.54563,12.614786,-2.370666
393,1432747292,103.20597,-10.097122,54.46813,-1.2478256,-0.8373132,0.8486686,-3.118445,-1.3037591,1.7301557,-7.560658,-6.025972,5.440801,23.493656,12.593057,-2.34183
394,1432763959,103.456154,-10.083595,54.266483,-1.2475462,-0.8363223,0.8503765,-3.0700784,-1.3116995,1.6623378,-7.58145,-6.039911,5.454974,23.442488,12.571195,-2.314124
395,1432780626,103.702415,-10.069435,54.068775,-1.2472677,-0.83514905,0.8520678,-3.0283363,-1.3390124,1.5870934,-7.602238,-6.05383,5.469175,23.392016,12.548878,-2.287672
396,1432797293,103.93932,-10.0541,53.88146,-1.2470074,-0.83271617,0.8538152,-2.9634004,-1.3543246,1.4907321,-7.623021,-6.067709,5.483405,23.342626,12.526306,-2.262826
397,1432813960,104.16769,-10.037575,53.703487,-1.2467632,-0.8292329,0.8555889,-2.8830538,-1.3665948,1.3763149,-7.6438,-6.08153,5.497665,23.294575,12.503529,-2.239887
398,1432830627,104.40304,-10.021721,53.51675,-1.2467299,-0.8273752,0.8566152,-2.8463829,-1.3875315,1.3109636,-7.664579,-6.09532,5.511942,23.247135,12.480403,-2.218038
399,1432847294,104.64594,-10.006584,53.320553,-1.2469311,-0.8272368,0.8568182,-2.8555765,-1.4147056,1.2994845,-7.685361,-6.109107,5.526222,23.199542,12.456825,-2.19638
400,1432863961,104.88935,-9.991226,53.12309,-1.2472725,-0.82766074,0.85653865,-2.8878636,-1.4487116,1.3120515,-7.706149,-6.122901,5.540498,23.151411,12.43268,-2.174512
401,1432880628,105.13726,-9.9760895,52.91968,-1.2478123,-0.8293423,0.85554945,-2.9590945,-1.4919244,1.3673201,-7.726946,-6.136723,5.554757,23.102093,12.407815,-2.151723
402,1432897295,105.37893,-9.959885,52.722866,-1.2484493,-0.8304025,0.85431767,-3.0267582,-1.5291792,1.4223185,-7.747753,-6.150563,5.568996,23.051647,12.382329,-2.128018
403,1432913962,105.61356,-9.942444,52.533558,-1.2491808,-0.830724,0.8528539,-3.0892274,-1.5603244,1.4751112,-7.768573,-6.164408,5.58321,23.00016,12.356324,-2.103433
404,1432930629,105.84986,-9.924797,52.34158,-1.2501135,-0.83183295,0.85071516,-3.1816547,-1.5947857,1.5637634,-7.789408,-6.178272,5.597389,22.947132,12.329744,-2.07737
405,1432947296,106.085396,-9.906601,52.149685,-1.2512293,-0.833324,0.8479829,-3.2955256,-1.6292986,1.6798837,-7.810262,-6.192161,5.611522,22.892207,12.302589,-2.049372
406,1432963963,106.31756,-9.88707,51.960606,-1.2518663,-0.83481556,0.84581757,-3.3678253,-1.6679504,1.7391279,-7.831126,-6.206075,5.625619,22.836077,12.27479,-2.020387
407,1432980630,106.5471,-9.866219,51.773403,-1.2519779,-0.8364603,0.84426165,-3.3970058,-1.7119396,1.738625,-7.851992,-6.220016,5.63969,22.77946,12.246258,-1.99141
408,1432997297,106.77363,-9.844185,51.58868,-1.2518663,-0.83816665,0.84280455,-3.4074428,-1.7569287,1.7132139,-7.872856,-6.233985,5.653737,22.722669,12.216976,-1.962856
409,1433013964,106.99665,-9.820709,51.40684,-1.2513533,-0.83988655,0.8417474,-3.3826797,-1.8041523,1.6407789,-7.893712,-6.247983,5.667766,22.666291,12.186907,-1.93551
410,1433030631,107.21986,-9.796448,51.223835,-1.2508497,-0.8422324,0.84027874,-3.368948,-1.8537041,1.5808928,-7.914559,-6.26202,5.681771,22.610142,12.156012,-1.909162
411,1433047298,107.443275,-9.771355,51.03957,-1.2503796,-0.8452214,0.8383454,-3.3683915,-1.9051354,1.536723,-7.935399,-6.276107,5.695743,22.554002,12.12426,-1.88355
412,1433063965,107.66474,-9.744926,50.856365,-1.2495747,-0.84852767,0.836606,-3.343774,-1.9594243,1.459565,-7.956225,-6.290249,5.709686,22.498272,12.091603,-1.859224
413,1433080632,107.88511,-9.717224,50.67326,-1.248517,-0.85229737,0.83488405,-3.3047068,-2.0164986,1.3619187,-7.977034,-6.304454,5.723601,22.443194,12.057995,-1.836525
414,1433097299,108.094154,-9.6920395,50.503513,-1.2479553,-0.85448384,0.8335525,-3.2806334,-2.0383818,1.2971866,-7.997833,-6.318695,5.737494,22.388517,12.024022,-1.814905
415,1433113966,108.29073,-9.669624,50.348606,-1.2479095,-0.8548692,0.8327315,-3.2697113,-2.0213776,1.2644672,-8.018631,-6.332943,5.751373,22.334022,11.990332,-1.793831
416,1433130633,108.4802,-9.64827,50.201603,-1.2480783,-0.8545336,0.83212817,-3.2643101,-1.9832073,1.2468057,-8.039432,-6.347185,5.765242,22.279617,11.957279,-1.773051
417,1433147300,108.65966,-9.629028,50.066303,-1.2486563,-0.85289633,0.83187723,-3.2713017,-1.9129227,1.2575096,-8.060243,-6.3614,5.779107,22.225095,11.925397,-1.752093
418,1433163967,108.83431,-9.60955,49.935642,-1.2491083,-0.8510678,0.8319335,-3.2636175,-1.8323543,1.2528529,-8.081061,-6.375584,5.792973,22.170701,11.894858,-1.731212
419,1433180634,109.004555,-9.589729,49.809223,-1.2494087,-0.849124,0.8322927,-3.2401648,-1.7423102,1.2311234,-8.101884,-6.389736,5.806845,22.116698,11.865819,-1.710693
420,1433197301,109.16506,-9.571671,49.693913,-1.2499876,-0.8459947,0.83311105,-3.2200131,-1.6219008,1.2253823,-8.122717,-6.403836,5.82073,22.063031,11.838787,-1.69027
421,1433213968,109.316795,-9.5548935,49.58842,-1.2507381,-0.84189814,0.8343955,-3.1972196,-1.4750618,1.2263926,-8.143563,-6.417868,5.834637,22.009744,11.814203,-1.66983
422,1433230635,109.47399,-9.537903,49.476627,-1.2511396,-0.83914596,0.8354492,-3.1732116,-1.3761889,1.2233982,-8.164415,-6.431854,5.848561,21.956857,11.791267,-1.64944
423,1433247302,109.637184,-9.520851,49.358036,-1.2511988,-0.83780354,0.8362478,-3.15005,-1.3293573,1.2192264,-8.185268,-6.445817,5.862498,21.904356,11.769111,-1.62912
424,1433263969,109.80021,-9.504211,49.239544,-1.2510824,-0.8369034,0.8371465,-3.1227639,-1.3014992,1.2126954,-8.206119,-6.459765,5.87645,21.85231,11.747419,-1.608908
425,1433280636,109.96674,-9.48764,49.116985,-1.2506609,-0.8370423,0.837973,-3.0921447,-1.3126018,1.2018516,-8.226963,-6.473716,5.890416,21.800774,11.725542,-1.588877
426,1433297303,110.12702,-9.472679,49.001682,-1.2503452,-0.83658457,0.8391948,-3.0621128,-1.3133992,1.2017047,-8.247802,-6.487659,5.904403,21.749739,11.703652,-1.568849
427,1433313970,110.28051,-9.459419,48.89433,-1.2501526,-0.83543366,0.8408605,-3.0322232,-1.3011241,1.2124838,-8.268638,-6.501583,5.918417,21.699202,11.681967,-1.548641
428,1433330637,110.43513,-9.446922,48.78581,-1.2497616,-0.8349108,0.84259975,-3.0012317,-1.3177097,1.2253083,-8.289467,-6.515498,5.93246,21.649181,11.660005,-1.528219
429,1433347304,110.588875,-9.435562,48.67853,-1.2492647,-0.8346651,0.8445258,-2.969894,-1.3529828,1.2435186,-8.310288,-6.529409,5.946535,21.599683,11.637455,-1.507494
430,1433363971,110.745415,-9.423073,48.56757,-1.2489147,-0.8344331,0.84601843,-2.9617553,-1.3735344,1.2695405,-8.331103,-6.543316,5.960635,21.55032,11.614563,-1.486335
431,1433380638,110.90615,-9.409172,48.451283,-1.2487049,-0.8343537,0.84697616,-2.9793005,-1.3817685,1.3030465,-8.351915,-6.557222,5.974751,21.500665,11.591534,-1.464618
432,1433397305,111.06805,-9.395256,48.33359,-1.2485647,-0.834318,0.84777546,-3.0121272,-1.3870715,1.345507,-8.372724,-6.571127,5.988881,21.450463,11.568416,-1.442193
433,1433413972,111.23246,-9.380653,48.21271,-1.248558,-0.83430374,0.84822774,-3.0672262,-1.3819337,1.3977213,-8.393533,-6.585032,6.003018,21.399343,11.545384,-1.418898
434,1433430639,111.39942,-9.366516,48.089108,-1.2484541,-0.83480656,0.8486123,-3.130664,-1.3970737,1.4561951,-8.414341,-6.598945,6.017162,21.347165,11.522099,-1.394628
435,1433447306,111.56892,-9.352959,47.962795,-1.2482424,-0.8358406,0.84895146,-3.2021883,-1.4341158,1.5214224,-8.435145,-6.612876,6.031311,21.293795,11.498197,-1.369271
436,1433463973,111.742455,-9.33889,47.831783,-1.2480917,-0.8371597,0.8489343,-3.2952857,-1.4719071,1.5960927,-8.455947,-6.626829,6.04546,21.238874,11.473665,-1.342669
437,1433480640,111.92019,-9.324524,47.69591,-1.2479553,-0.8388849,0.8486117,-3.4076104,-1.5174754,1.6798203,-8.476746,-6.64081,6.059604,21.18208,11.448374,-1.314672
438,1433497307,112.091835,-9.31044,47.564854,-1.2477741,-0.8405709,0.84841204,-3.4866657,-1.5483174,1.7328236,-8.497542,-6.65482,6.073744,21.123969,11.422569,-1.285792
439,1433513974,112.25681,-9.296516,47.43894,-1.2475653,-0.8421726,0.8483225,-3.5294852,-1.5602617,1.7515657,-8.518335,-6.668856,6.087883,21.065144,11.396565,-1.256599
440,1433530641,112.42046,-9.282639,47.313236,-1.2473164,-0.8440039,0.8481604,-3.5597768,-1.5691719,1.7546706,-8.539124,-6.682923,6.102019,21.005814,11.370412,-1.227354
441,1433547308,112.580086,-9.26889,47.190144,-1.2470188,-0.84595186,0.84802246,-3.5634441,-1.5683076,1.7308524,-8.559908,-6.697022,6.116153,20.946423,11.344274,-1.198506
442,1433563975,112.74241,-9.254684,47.063206,-1.2467499,-0.84823155,0.84756577,-3.5751164,-1.5657649,1.704178,-8.580687,-6.711159,6.130279,20.886838,11.318178,-1.170103
443,1433580642,112.90804,-9.23996,46.93173,-1.2465096,-0.85088706,0.8467586,-3.5968373,-1.5627942,1.6757534,-8.601462,-6.72534,6.144392,20.826891,11.292131,-1.142174
444,1433597309,113.07148,-9.225113,46.800884,-1.2462492,-0.85372454,0.8458427,-3.5991228,-1.5493741,1.6234162,-8.622233,-6.739569,6.158489,20.766906,11.266308,-1.115117
445,1433613976,113.23429,-9.20993,46.669056,-1.2459869,-0.8568044,0.84473276,-3.5891767,-1.527149,1.5517529,-8.642999,-6.753849,6.172568,20.707086,11.240856,-1.089254
446,1433630643,113.39179,-9.196114,46.54556,-1.2456541,-0.85906154,0.84399474,-3.571552,-1.4984584,1.5057857,-8.66376,-6.768167,6.186635,20.64756,11.215882,-1.064158
447,1433647310,113.542915,-9.183792,46.43185,-1.2452402,-0.8603687,0.8437046,-3.5426424,-1.4617252,1.4865936,-8.684514,-6.782506,6.200697,20.588516,11.19152,-1.039381
448,1433663977,113.69091,-9.172096,46.322407,-1.2447882,-0.86127317,0.8435291,-3.5047758,-1.4165576,1.4754581,-8.70526,-6.796861,6.214756,20.530103,11.167911,-1.01479
449,1433680644,113.83427,-9.1614685,46.22005,-1.2442808,-0.8614624,0.8436321,-3.4577453,-1.3627484,1.4839184,-8.725998,-6.811219,6.228817,20.472474,11.145199,-0.990058
450,1433697311,113.9744,-9.1510315,46.120518,-1.2437401,-0.86151826,0.8437333,-3.3908732,-1.2961792,1.4794673,-8.746727,-6.825578,6.242879,20.415959,11.123596,-0.9654
451,1433713978,114.11147,-9.140694,46.023487,-1.2431688,-0.8614703,0.84380746,-3.303431,-1.2161255,1.4601343,-8.767446,-6.839936,6.256942,20.360902,11.103327,-0.941064
452,1433730645,114.243324,-9.131317,45.933628,-1.2425385,-0.860743,0.84414005,-3.1998248,-1.123926,1.451843,-8.788155,-6.854282,6.271011,20.307572,11.084595,-0.916867
453,1433747312,114.370094,-9.122719,45.850185,-1.2418518,-0.8594432,0.8446748,-3.0770857,-1.0181397,1.447543,-8.808853,-6.868606,6.285089,20.256287,11.067626,-0.892741
454,1433763979,114.49749,-9.113716,45.766354,-1.2419271,-0.85840726,0.8457438,-2.993114,-0.9700775,1.4313824,-8.829552,-6.882913,6.299185,20.206402,11.051458,-0.868885
455,1433780646,114.62554,-9.104324,45.682247,-1.2428417,-0.85762197,0.84742796,-2.953379,-0.98660064,1.4048953,-8.850266,-6.897207,6.313309,20.157179,11.035015,-0.84547
456,1433797313,114.75161,-9.094978,45.60082,-1.2442169,-0.8567426,0.8495436,-2.9279149,-1.0327872,1.370724,-8.871003,-6.911486,6.327468,20.10838,11.017802,-0.822625
457,1433813980,114.87705,-9.085381,45.52048,-1.2462893,-0.8559658,0.8522085,-2.9328754,-1.1289093,1.3252407,-8.891774,-6.925752,6.341671,20.059499,10.998987,-0.800538
458,1433830647,114.997826,-9.076492,45.44663,-1.2485771,-0.8546319,0.8553134,-2.935141,-1.2335824,1.2841492,-8.912584,-6.939996,6.355926,20.01058,10.978427,-0.779136
459,1433847314,115.113625,-9.068306,45.37975,-1.2510662,-0.8526881,0.85886693,-2.9323545,-1.3446202,1.2478088,-8.933435,-6.954207,6.37024,19.961707,10.956017,-0.758339
460,1433863981,115.22747,-9.060158,45.31599,-1.2542076,-0.8506157,0.8630434,-2.9552271,-1.5008571,1.2054019,-8.954338,-6.968384,6.384624,19.912453,10.931003,-0.738249
461,1433880648,115.33837,-9.052261,45.256687,-1.2579136,-0.8482581,0.86784065,-2.9970214,-1.6943585,1.1602615,-8.975303,-6.982522,6.399088,19.862503,10.902764,-0.718911
462,1433897315,115.448906,-9.042503,45.19595,-1.2597532,-0.84671485,0.87026584,-3.0038793,-1.7967372,1.1283424,-8.996299,-6.996634,6.413592,19.812438,10.872818,-0.700105
463,1433913982,115.55961,-9.030609,45.132885,-1.2595539,-0.84614253,0.87005913,-2.9749277,-1.8010545,1.1101673,-9.017292,-7.010736,6.428093,19.762856,10.8428,-0.681602
464,1433930649,115.66854,-9.0177,45.07131,-1.2584133,-0.8459061,0.8686422,-2.9315295,-1.7633152,1.1006278,-9.038266,-7.024834,6.44257,19.713997,10.813411,-0.663258
465,1433947316,115.77651,-9.003128,45.009495,-1.2556572,-0.8463308,0.86517334,-2.8599558,-1.6489184,1.1041286,-9.059194,-7.03894,6.45699,19.666331,10.785929,-0.644856
466,1433963983,115.8827,-8.987946,44.95006,-1.252821,-0.84688777,0.8614447,-2.7996554,-1.5430337,1.1086676,-9.080074,-7.053055,6.471347,19.61967,10.760212,-0.626378
467,1433980650,115.98696,-8.972206,44.893322,-1.2499819,-0.8475368,0.85754764,-2.752815,-1.4500968,1.1141117,-9.100907,-7.067181,6.485639,19.57379,10.736044,-0.607809
468,1433997317,116.09037,-8.954788,44.836475,-1.2457714,-0.84883654,0.85183537,-2.6881807,-1.297417,1.1304728,-9.12167,-7.081328,6.499836,19.528987,10.71442,-0.588968
469,1434013984,116.19277,-8.935883,44.78007,-1.2404947,-0.85068786,0.8446548,-2.6142259,-1.1023606,1.1555388,-9.142345,-7.095506,6.513914,19.485417,10.696047,-0.569709
470,1434030651,116.29333,-8.921997,44.728626,-1.2374544,-0.8519967,0.8410367,-2.5551245,-0.9823595,1.1639439,-9.162969,-7.109706,6.527931,19.442832,10.679674,-0.55031
471,1434047318,116.39217,-8.913605,44.68214,-1.2367802,-0.8527491,0.84123826,-2.5095243,-0.93920374,1.15462,-9.183582,-7.123918,6.541952,19.401007,10.664021,-0.531066
472,1434063985,116.48965,-8.907715,44.638783,-1.2370996,-0.85341454,0.8430903,-2.471808,-0.9284272,1.1382818,-9.2042,-7.138142,6.556004,19.35981,10.648547,-0.512095
473,1434080652,116.58555,-8.906105,44.59968,-1.2392864,-0.8537216,0.8479445,-2.4478023,-0.9802402,1.1082001,-9.224855,-7.152371,6.570136,19.319013,10.63221,-0.493625
474,1434097319,116.68073,-8.904709,44.56148,-1.2410479,-0.8544667,0.85242987,-2.4155438,-1.0069772,1.0821037,-9.245539,-7.166612,6.584343,19.278754,10.615427,-0.47559
475,1434113986,116.77531,-8.903313,44.52396,-1.2422714,-0.85570824,0.85637355,-2.3744557,-1.004444,1.0609385,-9.266244,-7.180874,6.598616,19.23918,10.598686,-0.457908
476,1434130653,116.86878,-8.905518,44.489697,-1.2448521,-0.8568278,0.8626354,-2.3404064,-1.0421497,1.0300506,-9.286992,-7.195154,6.612993,19.200173,10.581317,-0.44074
477,1434147320,116.96137,-8.91053,44.457912,-1.2483215,-0.8580062,0.87052715,-2.3088017,-1.1016359,0.9931389,-9.307797,-7.209454,6.627502,19.161693,10.562956,-0.424188
478,1434163987,117.05007,-8.910271,44.427982,-1.2499952,-0.85796297,0.87584627,-2.2940333,-1.1452682,0.96742517,-9.32863,-7.223753,6.642099,19.123459,10.543868,-0.408064
479,1434180654,117.134575,-8.904434,44.40012,-1.2498598,-0.85649884,0.87856305,-2.29939,-1.1779661,0.95272124,-9.349461,-7.238028,6.656742,19.085136,10.524235,-0.392185
480,1434197321,117.21653,-8.896347,44.374065,-1.248868,-0.8543422,0.88022554,-2.3150294,-1.2052501,0.94331396,-9.370275,-7.252267,6.671412,19.046552,10.504147,-0.376463
481,1434213988,117.295006,-8.883865,44.34972,-1.246336,-0.8511031,0.8797643,-2.3456433,-1.21908,0.9435128,-9.391047,-7.266452,6.686075,19.007458,10.483829,-0.360738
482,1434230655,117.37179,-8.872688,44.328083,-1.2443209,-0.84736913,0.88038826,-2.3873262,-1.2596939,0.93946636,-9.411786,-7.280575,6.700748,18.967669,10.462834,-0.34508
483,1434247322,117.44695,-8.863083,44.309116,-1.2429113,-0.84317374,0.88225055,-2.4397416,-1.3284243,0.9305941,-9.432501,-7.294628,6.715452,18.927007,10.440694,-0.32957
484,1434263989,117.518974,-8.850388,44.292255,-1.2404957,-0.8378626,0.8828448,-2.509296,-1.3989908,0.9274465,-9.453176,-7.308592,6.730166,18.885185,10.417377,-0.314113
485,1434280656,117.58816,-8.835777,44.277653,-1.237504,-0.8315345,0.8828517,-2.5955756,-1.4803745,0.927088,-9.473801,-7.322451,6.74488,18.841925,10.392704,-0.298662
486,1434297323,117.66183,-8.823105,44.256756,-1.236227,-0.8274111,0.8827491,-2.6627097,-1.5356364,0.92914635,-9.494405,-7.336241,6.759592,18.797547,10.36711,-0.283176
487,1434313990,117.74047,-8.812141,44.228603,-1.2366972,-0.82569826,0.8822781,-2.7085533,-1.5587807,0.9348441,-9.515017,-7.350003,6.774297,18.752404,10.34113,-0.267595
488,1434330657,117.82087,-8.801849,44.197353,-1.2381239,-0.8249171,0.8816687,-2.7502382,-1.5738713,0.9423814,-9.535652,-7.363752,6.788991,18.706567,10.314899,-0.251889
489,1434347324,117.90507,-8.793083,44.160503,-1.2411118,-0.8259416,0.8809624,-2.778215,-1.5700083,0.9520306,-9.556337,-7.377518,6.803674,18.660263,10.288732,-0.236022
490,1434363991,117.98847,-8.782394,44.122784,-1.243906,-0.826712,0.8792199,-2.8153913,-1.5620694,0.9668151,-9.577069,-7.391297,6.818328,18.61334,10.262698,-0.219908
491,1434380658,118.070854,-8.769608,44.084385,-1.2464523,-0.8271092,0.876421,-2.863389,-1.5518494,0.9867524,-9.597843,-7.405082,6.832935,18.565617,10.236834,-0.203462
492,1434397325,118.156334,-8.7571945,44.04063,-1.2501478,-0.8289233,0.87303567,-2.9026186,-1.5222249,1.0107158,-9.618679,-7.418897,6.847486,18.51724,10.211464,-0.186617
493,1434413992,118.243996,-8.744354,43.99235,-1.2546406,-0.8317326,0.868839,-2.9379802,-1.4761326,1.0394607,-9.63959,-7.432759,6.861967,18.468274,10.186862,-0.169293
494,1434430659,118.337395,-8.729515,43.938786,-1.2566662,-0.83120114,0.8653494,-3.007561,-1.47593,1.1188204,-9.660534,-7.446612,6.876389,18.418148,10.162263,-0.150646
495,1434447326,118.43745,-8.712723,43.878986,-1.2560835,-0.8271395,0.8627256,-3.112651,-1.5249859,1.2536279,-9.681469,-7.460398,6.890768,18.36627,10.136847,-0.129752
496,1434463993,118.54209,-8.694183,43.813694,-1.2541962,-0.8213221,0.86006355,-3.238589,-1.5954332,1.4231669,-9.702372,-7.474087,6.905102,18.312294,10.110256,-0.106033
497,1434480660,118.652626,-8.673477,43.74226,-1.2501259,-0.812587,0.8577771,-3.3955193,-1.7039664,1.6409632,-9.723207,-7.48763,6.919398,18.255702,10.081857,-0.078684
498,1434497327,118.76827,-8.6521,43.663624,-1.2461357,-0.8039156,0.8550801,-3.5565147,-1.8100021,1.880683,-9.743976,-7.501029,6.933649,18.196427,10.05169,-0.047339
499,1434513994,118.88917,-8.630028,43.577457,-1.242321,-0.7954415,0.85188067,-3.720533,-1.9112164,2.1417365,-9.764681,-7.514286,6.947847,18.134418,10.019836,-0.011643
500,1434530661,119.01696,-8.6061325,43.48348,-1.2367735,-0.78465986,0.8489208,-3.909908,-2.042328,2.4498477,-9.785294,-7.527364,6.961996,18.069253,9.985797,0.029188
501,1434547328,119.1518,-8.58065,43.38116,-1.2299433,-0.77217263,0.8460231,-4.1192527,-2.1949594,2.8005579,-9.805793,-7.540234,6.976096,18.000599,9.949214,0.075864
502,1434563995,119.302605,-8.57428,43.25868,-1.2306099,-0.769376,0.8444506,-4.2880583,-2.1083288,2.9955425,-9.826303,-7.553057,6.99017,17.929131,9.914075,0.12579
503,1434580662,119.4708,-8.588974,43.11442,-1.2394047,-0.77708924,0.84443593,-4.413246,-1.7604554,3.0190387,-9.84696,-7.566008,7.004244,17.855577,9.884734,0.176107
504,1434597329,119.652626,-8.615227,42.953205,-1.2524853,-0.7903454,0.8452734,-4.5198956,-1.2681185,2.9621623,-9.867835,-7.57918,7.018332,17.780245,9.863599,0.225476
505,1434613996,119.850945,-8.658981,42.771244,-1.2723064,-0.81232727,0.84736955,-4.5915966,-0.5572057,2.7694192,-9.88904,-7.592719,7.032455,17.703718,9.854312,0.271633
506,1434630663,120.06158,-8.708015,42.57472,-1.2932816,-0.83579856,0.85018075,-4.6694393,0.21347809,2.5629773,-9.910595,-7.606649,7.046625,17.625894,9.85787,0.314349
507,1434647330,120.28477,-8.761864,42.363384,-1.3151922,-0.86047316,0.8536954,-4.755193,1.0380819,2.3486161,-9.932515,-7.62099,7.060853,17.546641,9.875171,0.353493
508,1434663997,120.5256,-8.832085,42.130436,-1.3430147,-0.89281803,0.8585758,-4.8138905,2.063041,2.0158124,-9.954899,-7.63587,7.075163,17.466409,9.909555,0.38709
509,1434680664,120.78359,-8.916428,41.876583,-1.3756809,-0.9314507,0.86474943,-4.853721,3.258919,1.5882297,-9.977827,-7.651394,7.089575,17.385514,9.96387,0.41356
510,1434697331,120.878426,-8.958054,41.771366,-1.3925352,-0.954446,0.87320924,-5.1836505,3.6345193,1.1057498,-10.001036,-7.667301,7.104128,17.29912,10.024445,0.431989
511,1434713998,120.7927,-8.953072,41.830692,-1.3922329,-0.9605613,0.8842014,-5.830416,3.1118677,0.55521226,-10.02424,-7.68331,7.118865,17.201946,10.076309,0.441243
512,1434730665,120.61109,-8.927032,41.97517,-1.3838644,-0.9593221,0.89727044,-6.6543674,2.140155,-0.06948161,-10.047304,-7.699299,7.13382,17.09104,10.111978,0.440085
513,1434747332,120.2817,-8.864288,42.25333,-1.3617468,-0.9447814,0.9127854,-7.743493,0.4415288,-0.76418066,-10.07,-7.715045,7.149033,16.961982,10.119337,0.427349
514,1434763999,119.90995,-8.801048,42.565434,-1.3392076,-0.9314542,0.9304247,-8.910865,-1.370976,-1.5848078,-10.09232,-7.730569,7.16454,16.813468,10.096487,0.400936
515,1434780666,119.50005,-8.739067,42.90729,-1.3168678,-0.92005956,0.9502499,-10.14945,-3.2702105,-2.5370674,-10.114268,-7.745903,7.180377,16.64431,10.041983,0.358652
516,1434797333,118.95229,-8.646492,43.37273,-1.2830467,-0.89813817,0.972813,-11.632328,-5.811002,-3.5934062,-10.135652,-7.760872,7.196591,16.450438,9.945133,0.298762
517,1434814000,118.28602,-8.530449,43.943264,-1.2403784,-0.8686188,0.99813306,-13.324871,-8.875656,-4.769751,-10.156325,-7.775349,7.213227,16.228357,9.797205,0.219266
518,1434830667,117.66178,-8.4335785,44.48386,-1.2099342,-0.8421591,1.0059795,-14.174086,-10.558989,-5.723625,-10.176491,-7.789385,7.229993,15.992122,9.621222,0.123872
519,1434847334,117.07935,-8.3554535,44.99622,-1.1921339,-0.8180619,0.994439,-14.100101,-10.75228,-6.421386,-10.19636,-7.803019,7.246567,15.75712,9.442017,0.016849
520,1434864001,116.47254,-8.280212,45.53478,-1.178606,-0.79307014,0.9730767,-13.5786,-10.2846575,-7.038465,-10.216003,-7.816237,7.262785,15.53081,9.270606,-0.100459
521,1434880668,115.88038,-8.218277,46.067333,-1.1747675,-0.7695778,0.93610704,-12.315784,-8.639189,-7.4783196,-10.235582,-7.829063,7.278387,15.325547,9.12662,-0.225098
522,1434897335,115.1795,-8.136002,46.70052,-1.1651297,-0.7379272,0.8953947,-10.968418,-7.0737753,-7.9362874,-10.255001,-7.841362,7.29331,15.14274,9.008724,-0.357369
523,1434914002,114.36082,-8.03138,47.442318,-1.1488571,-0.6975432,0.8514582,-9.566404,-5.650836,-8.4251175,-10.274149,-7.852988,7.307501,14.9833,8.914543,-0.497788
524,1434930669,113.51716,-7.929741,48.214153,-1.1382666,-0.65508133,0.79314184,-7.5196705,-3.2891526,-8.761779,-10.29312,-7.863906,7.32072,14.857972,8.859724,-0.643818
525,1434947336,112.62008,-7.823555,49.040966,-1.1300478,-0.60829747,0.7226578,-4.955395,-0.24239111,-8.985102,-10.311954,-7.874044,7.332764,14.775382,8.855684,-0.79357
526,1434964003,111.917244,-7.7711563,49.724285,-1.1209126,-0.56681985,0.6812085,-2.8833306,1.98511,-8.740077,-10.330636,-7.883491,7.344117,14.727326,8.888769,-0.939238
527,1434980670,111.443565,-7.781273,50.236225,-1.1120558,-0.53220135,0.67118895,-1.3156667,3.3944962,-7.961514,-10.34917,-7.892361,7.355303,14.705398,8.945344,-1.07193
528,1434997337,111.06217,-7.821274,50.68839,-1.1028118,-0.4982105,0.6743934,0.15181112,4.5398264,-6.836294,-10.36755,-7.900665,7.366543,14.707928,9.021008,-1.185868
529,1435014004,110.847145,-7.9088135,51.0218,-1.0927229,-0.4676913,0.70198286,1.2644334,5.044792,-5.2485976,-10.385762,-7.90846,7.378243,14.729002,9.105088,-1.273345
530,1435030671,110.677666,-8.016701,51.332912,-1.0869026,-0.4365813,0.7269156,2.776833,6.0792513,-3.3485718,-10.403877,-7.915736,7.390358,14.775283,9.206409,-1.329155
531,1435047338,110.54673,-8.143417,51.628048,-1.0854864,-0.40440643,0.7477728,4.7343554,7.7045946,-1.1350819,-10.421968,-7.922476,7.402821,14.854189,9.334819,-1.348073
532,1435064005,110.58256,-8.318871,51.805332,-1.0856829,-0.3757236,0.7878095,6.5484004,9.022995,1.5800494,-10.440063,-7.928738,7.415951,14.963329,9.485202,-1.321739
533,1435080672,110.76379,-8.538467,51.88226,-1.0886955,-0.34972167,0.8415326,8.38438,10.288159,4.780015,-10.458208,-7.934567,7.429977,15.103069,9.656671,-1.242072
534,1435097339,111.064445,-8.7200165,51.913258,-1.1098766,-0.34228313,0.90653837,10.304354,10.757556,6.759479,-10.476706,-7.940272,7.445086,15.274808,9.835964,-1.129414
535,1435114006,111.50538,-8.860741,51.885586,-1.1507196,-0.3558377,0.98591006,12.2458935,10.250224,7.3862033,-10.495885,-7.946203,7.461518,15.478906,10.006801,-1.006311
536,1435130673,112.09107,-8.997749,51.78065,-1.2050505,-0.3825884,1.0775069,14.294422,9.287905,7.4647346,-10.515969,-7.952579,7.479476,15.717146,10.161599,-0.881899
537,1435147340,112.82563,-9.109978,51.605328,-1.2774487,-0.42753994,1.1819398,16.448154,7.624303,6.522944,-10.53726,-7.959705,7.499175,15.991282,10.288671,-0.773183
538,1435164007,113.76516,-9.254364,51.296513,-1.3585844,-0.4828995,1.3071666,18.52397,5.454728,5.6114078,-10.559903,-7.967753,7.520961,16.300015,10.379583,-0.67966
539,1435180674,114.91996,-9.435013,50.84583,-1.4484453,-0.5486422,1.4538956,20.52311,2.7969615,4.7887735,-10.584044,-7.976897,7.545193,16.642067,10.426199,-0.599847
540,1435197341,116.27299,-9.606071,50.285656,-1.5560265,-0.63347566,1.6193786,22.529465,-0.68164635,3.1139598,-10.609978,-7.987455,7.572183,17.017558,10.414838,-0.547948
541,1435214008,117.84428,-9.7801285,49.597164,-1.6798391,-0.73632467,1.8059995,24.500889,-4.9616947,0.7967657,-10.637975,-7.999727,7.602283,17.425906,10.332143,-0.534669
542,1435230675,118.7467,-9.765312,49.222675,-1.713562,-0.80906266,1.8919249,25.98983,-9.004093,-0.7823485,-10.666534,-8.013211,7.633815,17.85907,10.182075,-0.547708
543,1435247342,118.89608,-9.536354,49.205654,-1.6479301,-0.84856594,1.8652346,26.949783,-12.783389,-1.6231314,-10.694,-8.027354,7.664902,18.308233,9.969019,-0.57476
544,1435264009,118.729454,-9.191727,49.320896,-1.532198,-0.87732065,1.7853377,27.553902,-16.806519,-2.2527852,-10.719537,-8.041976,7.694658,18.767465,9.68891,-0.612306
545,1435280676,117.995705,-8.673836,49.693302,-1.3362322,-0.88229954,1.6174574,27.665894,-20.81854,-2.3282366,-10.741808,-8.056681,7.721616,19.228563,9.341934,-0.65111
546,1435297343,117.21136,-8.081291,50.069386,-1.1240616,-0.89430815,1.4317153,27.558727,-25.538713,-2.910997,-10.760542,-8.071586,7.745478,19.687875,8.916289,-0.699627
547,1435314010,116.405235,-7.4178543,50.43307,-0.8984928,-0.91525644,1.2316244,27.229229,-31.03681,-4.062657,-10.775517,-8.08684,7.766005,20.141695,8.399009,-0.767338
548,1435330677,115.095116,-6.580948,51.02178,-0.6004276,-0.9184665,0.950874,26.410072,-36.75241,-4.9698873,-10.785524,-8.102148,7.781853,20.581863,7.786469,-0.850169
549,1435347344,113.38122,-5.587204,51.78535,-0.24197197,-0.9103304,0.6027279,25.14229,-42.85781,-5.86632,-10.789557,-8.11732,7.791898,21.000901,7.072172,-0.947941
550,1435364011,113.19364,-4.8833084,52.60554,-0.076854706,-0.85560036,0.38653588,28.662167,-44.994686,-7.6152844,-10.790838,-8.13158,7.79834,21.478604,6.322261,-1.074862
551,1435380678,114.65412,-4.4961014,53.50751,-0.12163639,-0.7468922,0.31192803,37.456886,-42.658577,-10.213394,-10.792865,-8.144028,7.803539,22.102885,5.611285,-1.245085
552,1435397345,116.91251,-4.2220764,54.51965,-0.26374722,-0.6045803,0.29219723,49.08767,-38.01737,-13.420818,-10.797261,-8.154104,7.808409,22.921013,4.977662,-1.468765
553,1435414012,120.49723,-4.18174,55.623722,-0.5728388,-0.41694897,0.38048542,65.05325,-29.790884,-17.464054,-10.806808,-8.161053,7.81475,24.005234,4.481147,-1.759833
554,1435430679,124.16044,-4.0851746,56.956493,-0.8856001,-0.1968379,0.44245243,82.258865,-20.35639,-21.64699,-10.821568,-8.164334,7.822124,25.376215,4.141874,-2.120616
555,1435447346,127.842125,-3.9153976,58.530773,-1.1941013,0.055732727,0.47068083,100.57848,-9.8138485,-25.959667,-10.84147,-8.163405,7.829969,27.052523,3.97831,-2.553277
556,1435464013,132.6312,-3.921753,60.27051,-1.6413708,0.3586409,0.57817614,122.915985,4.19734,-30.95138,-10.868826,-8.157428,7.839605,29.101123,4.048266,-3.069133
557,1435480680,138.27948,-4.0443726,62.21274,-2.1949644,0.71064985,0.7370701,148.69856,21.254644,-36.48799,-10.905409,-8.145584,7.85189,31.579432,4.40251,-3.677266
558,1435497347,130.90988,-4.2294617,63.92232,-2.5186434,0.85246575,0.7668382,163.05893,32.55305,-38.879543,-10.947386,-8.131376,7.864671,34.297081,4.945061,-4.325258
559,1435514014,109.25535,-4.5065613,65.35477,-2.59908,0.76171124,0.66438866,164.94946,37.603363,-37.823475,-10.990704,-8.118681,7.875744,37.046239,5.571784,-4.955649
560,1435530681,79.660805,-4.8643646,66.74747,-2.5750456,0.5606772,0.49680483,161.05026,40.352074,-34.966785,-11.033621,-8.109336,7.884024,39.73041,6.244319,-5.538429
561,1435547348,38.149452,-5.3006973,67.97902,-2.3573399,0.17633867,0.2172668,147.25127,38.435085,-29.264366,-11.07291,-8.106397,7.887645,42.184598,6.884904,-6.026168
562,1435564015,-7.022606,-5.915329,69.29147,-2.179987,-0.23574638,-0.039868593,132.96857,37.652637,-22.99579,-11.109243,-8.110326,7.886981,44.400741,7.512448,-6.409431
563,1435580682,-55.550713,-6.715477,70.70514,-2.0545454,-0.6679125,-0.26878428,118.65441,38.33884,-16.24808,-11.143485,-8.121458,7.882501,46.378315,8.151429,-6.680232
564,1435597349,-115.17368,-7.6559525,71.993484,-1.7869225,-1.2631373,-0.5768194,95.96392,35.549957,-6.938909,-11.173267,-8.14251,7.872887,47.977714,8.743928,-6.79588
565,1435614016,-184.37949,-8.76413,73.20712,-1.4253263,-1.9914547,-0.93614054,66.750404,30.487253,4.504547,-11.197022,-8.175701,7.857285,49.090221,9.252049,-6.720804
566,1435630683,-231.15207,-9.557747,73.66307,-1.2023001,-2.426196,-1.0971508,46.415462,27.347614,12.208815,-11.21706,-8.216138,7.838999,49.863812,9.707843,-6.517324
567,1435647350,-253.49213,-9.9904175,73.25722,-1.1153193,-2.5461392,-1.0481513,35.27951,25.875639,15.906272,-11.235649,-8.258574,7.82153,50.451804,10.139104,-6.252219
568,1435664017,-265.66974,-10.313782,72.338486,-1.0855665,-2.535186,-0.8880522,27.169765,24.847637,18.13125,-11.253742,-8.300827,7.806729,50.904633,10.553231,-5.950031
569,1435680684,-258.95587,-10.393135,70.69403,-1.17099,-2.2790027,-0.54901075,26.042637,25.225464,17.323431,-11.273258,-8.33881,7.797579,51.338677,10.973655,-5.661307
570,1435697351,-254.12054,-10.502678,68.653244,-1.184578,-2.0647106,-0.2034657,20.630068,23.24588,17.490025,-11.293001,-8.373222,7.794188,51.682511,11.361086,-5.369807
571,1435714018,-252.2374,-10.662308,66.22182,-1.1178904,-1.9073074,0.14229679,10.310507,18.714817,18.852758,-11.311633,-8.40501,7.79656,51.854353,11.673,-5.055594
572,1435730685,-235.2761,-10.6169815,63.03261,-1.1128635,-1.5640898,0.634524,4.0547013,14.26834,18.065512,-11.330181,-8.431078,7.807135,51.921931,11.910806,-4.754502
573,1435747352,-207.4224,-10.4226,59.133762,-1.1294584,-1.0939753,1.2393949,-0.5498185,9.05487,15.963515,-11.349005,-8.449311,7.827792,51.912767,12.06172,-4.488443
574,1435764019,-192.97937,-10.367363,56.308956,-1.129139,-0.8325024,1.6200713,-5.2645855,5.209918,14.981085,-11.367824,-8.463186,7.854793,51.825024,12.148552,-4.238758
575,1435780686,-191.8234,-10.442131,54.666424,-1.1245594,-0.7803655,1.7633601,-9.157013,3.1987202,14.915972,-11.386567,-8.476192,7.884182,51.672407,12.201864,-3.990158
576,1435797353,-195.03674,-10.543816,53.376896,-1.1064348,-0.816634,1.807499,-13.010929,1.38607,15.154279,-11.405008,-8.489803,7.914307,51.455558,12.224965,-3.737587
577,1435814020,-208.64624,-10.740082,52.91968,-1.0683641,-1.0261642,1.6630747,-16.980627,0.42933202,16.239285,-11.422814,-8.506906,7.942025,51.172548,12.232121,-3.466932
578,1435830687,-213.59097,-10.794495,52.140697,-1.0695267,-1.1491859,1.566248,-17.710417,-0.28056455,15.864351,-11.440639,-8.526059,7.968129,50.877374,12.227445,-3.202526
579,1435847354,-208.83707,-10.691933,50.966724,-1.1103363,-1.1734393,1.5285336,-15.120045,-0.8690553,13.920251,-11.459145,-8.545616,7.993605,50.625373,12.212961,-2.970522
580,1435864021,-208.88998,-10.603859,50.387455,-1.1569023,-1.3002402,1.3545489,-10.889663,-0.44462252,11.980548,-11.478427,-8.567287,8.016181,50.443879,12.205551,-2.770846
581,1435880688,-209.5792,-10.476044,50.161053,-1.2222939,-1.4742948,1.092936,-4.2114763,0.8722098,9.522348,-11.498799,-8.591859,8.034397,50.373688,12.220088,-2.61214
582,1435897355,-208.93579,-10.377037,49.668217,-1.2609835,-1.5731883,0.94779634,-0.5697694,1.20545,7.755954,-11.519815,-8.618079,8.050194,50.364192,12.240179,-2.482874
583,1435914022,-208.40314,-10.330391,48.981754,-1.2662468,-1.6087368,0.9135591,-0.5363231,0.5377705,6.944449,-11.540919,-8.644891,8.06542,50.355253,12.249142,-2.367133
584,1435930689,-205.99008,-10.263489,48.240658,-1.269578,-1.6010891,0.92500496,-0.84767485,-0.28966832,6.126496,-11.562079,-8.671576,8.080837,50.341125,12.244314,-2.265025
585,1435947356,-201.57031,-10.199028,47.315777,-1.2582035,-1.5221487,1.0317795,-2.996493,-1.732369,5.668907,-11.583049,-8.696945,8.098033,50.291183,12.215441,-2.170543
586,1435964023,-199.91617,-10.136642,46.82934,-1.2499866,-1.4951618,1.0627632,-4.1337795,-2.4662976,5.2421217,-11.603882,-8.721864,8.115746,50.222287,12.174336,-2.083174
587,1435980690,-200.95422,-10.069954,46.814137,-1.2480145,-1.5229897,1.0100915,-3.927733,-2.3796115,4.7636437,-11.624682,-8.747247,8.132581,50.156825,12.134676,-2.00378
588,1435997357,-202.30005,-10.019211,46.86516,-1.2325392,-1.5210303,1.000151,-5.0604706,-2.4956372,4.719918,-11.645224,-8.772598,8.14925,50.072484,12.093082,-1.925115
589,1436014024,-205.00021,-9.983803,47.128193,-1.2077141,-1.5155141,0.9957098,-6.887677,-2.5051692,5.0383177,-11.665353,-8.797857,8.165845,49.957689,12.051329,-1.841143
590,1436030691,-206.08813,-9.93718,47.197193,-1.1956177,-1.5145012,0.9870832,-7.5973268,-2.4912443,4.9591947,-11.68528,-8.823099,8.182296,49.831067,12.009808,-1.75849
591,1436047358,-205.18256,-9.881676,47.00131,-1.1954908,-1.5101622,0.98715913,-7.373133,-2.5681987,4.4957037,-11.705205,-8.848268,8.198749,49.708181,11.967005,-1.683562
592,1436064025,-204.51492,-9.830612,46.845776,-1.1995535,-1.5172932,0.9742904,-6.642007,-2.467463,3.9729848,-11.725198,-8.873556,8.214987,49.597481,11.925881,-1.617346
593,1436080692,-203.31284,-9.779221,46.614285,-1.2129612,-1.5364208,0.9491676,-5.0143294,-2.23569,3.215407,-11.745414,-8.899163,8.230806,49.513909,11.888619,-1.563756
594,1436097359,-202.69437,-9.7471695,46.454205,-1.2184525,-1.5405643,0.94939554,-4.1724873,-2.0501812,2.781983,-11.765722,-8.924839,8.246629,49.444368,11.854449,-1.51739
595,1436114026,-202.94305,-9.737579,46.396816,-1.2149734,-1.5310403,0.97375476,-4.195738,-1.8856559,2.7219667,-11.785972,-8.950356,8.262858,49.374439,11.823021,-1.472024
596,1436130693,-202.89761,-9.738121,46.270275,-1.2152328,-1.5216752,1.0048245,-3.9477825,-1.6960924,2.6219406,-11.806226,-8.975717,8.279605,49.308643,11.794753,-1.428325
597,1436147360,-202.87857,-9.754639,46.11076,-1.2153301,-1.5070928,1.0507057,-3.811246,-1.5142562,2.6162987,-11.826482,-9.000835,8.297117,49.245122,11.769515,-1.38472
598,1436164027,-202.85641,-9.751953,46.02902,-1.2150354,-1.4998332,1.0743936,-3.6868398,-1.366148,2.557671,-11.846733,-9.025832,8.315024,49.183675,11.746746,-1.342092
599,1436180694,-202.69794,-9.726479,46.010242,-1.215622,-1.502063,1.0717527,-3.467214,-1.2590486,2.3937426,-11.866993,-9.050866,8.332887,49.125888,11.725762,-1.302196
600,1436197361,-202.67233,-9.700119,46.025654,-1.2143326,-1.5039788,1.0666401,-3.4902933,-1.2069769,2.2977805,-11.887232,-9.075932,8.350664,49.067716,11.705646,-1.2639
601,1436214028,-202.7377,-9.663475,46.096615,-1.2113667,-1.5090806,1.0491369,-3.7193627,-1.2243348,2.2225924,-11.907421,-9.101083,8.36815,49.005727,11.68524,-1.226857
602,1436230695,-202.74185,-9.636116,46.122356,-1.2098293,-1.5144653,1.0359652,-3.951918,-1.2758611,2.1689334,-11.927585,-9.126324,8.385416,48.939862,11.663976,-1.190708
603,1436247362,-202.71463,-9.620697,46.095905,-1.2094431,-1.5191776,1.0296967,-4.2361045,-1.3704107,2.156201,-11.947742,-9.151644,8.402578,48.86926,11.641136,-1.154771
604,1436264029,-202.69244,-9.599754,46.08193,-1.2088261,-1.5275931,1.0137833,-4.6520987,-1.5442135,2.1447887,-11.967889,-9.177104,8.419474,48.791725,11.615399,-1.119025
605,1436280696,-202.65146,-9.578041,46.055813,-1.20856,-1.5389634,0.99222684,-5.1770735,-1.7968129,2.1397243,-11.988032,-9.202753,8.436011,48.70544,11.585452,-1.083363
606,1436297363,-202.64139,-9.557884,46.053776,-1.2071962,-1.5466621,0.98061717,-5.5071993,-1.9399586,2.1347115,-12.008152,-9.228531,8.452355,48.613653,11.553119,-1.047784
607,1436314030,-202.66528,-9.537453,46.08334,-1.2045145,-1.5507646,0.9783143,-5.6229067,-1.9645911,2.1217432,-12.028227,-9.254377,8.46866,48.519938,11.520376,-1.012422
608,1436330697,-202.68347,-9.519165,46.107273,-1.2016077,-1.5539508,0.98075056,-5.6604333,-1.9649196,2.1075578,-12.048254,-9.280276,8.485006,48.425597,11.487627,-0.977296
609,1436347364,-202.70639,-9.503082,46.135075,-1.198082,-1.5546448,0.9916514,-5.536295,-1.8926046,2.086746,-12.068222,-9.306187,8.501534,48.333325,11.456084,-0.942517
610,1436364031,-202.72925,-9.484268,46.157803,-1.1942673,-1.5575728,0.99846447,-5.4792585,-1.8766968,2.060512,-12.088126,-9.332147,8.518175,48.242004,11.424806,-0.908175
611,1436380698,-202.74643,-9.462845,46.16984,-1.1902676,-1.5630784,1.00071,-5.5026054,-1.9289412,2.0274181,-12.107964,-9.358198,8.534854,48.150294,11.392657,-0.874385
612,1436397365,-202.7673,-9.4412,46.182384,-1.1855955,-1.5675464,1.0077424,-5.4196963,-1.9454403,1.9801838,-12.127724,-9.384324,8.55165,48.059966,11.360233,-0.841382
613,1436414032,-202.7887,-9.418274,46.191288,-1.180336,-1.5720545,1.0168985,-5.2792783,-1.9562039,1.9173286,-12.147396,-9.410525,8.568598,47.971978,11.32763,-0.809427
614,1436430699,-202.79565,-9.400795,46.19772,-1.1788921,-1.5732737,1.0216329,-5.145592,-1.929495,1.8773401,-12.167044,-9.436746,8.585625,47.886218,11.295472,-0.778138
615,1436447366,-202.78717,-9.389519,46.202282,-1.1816368,-1.5704767,1.0223573,-5.0012674,-1.850535,1.8612258,-12.186738,-9.462921,8.602664,47.802864,11.26463,-0.747118
616,1436464033,-202.76706,-9.380447,46.2003,-1.1865559,-1.5660056,1.020318,-4.848131,-1.75598,1.8480179,-12.206514,-9.489021,8.619669,47.722062,11.235364,-0.716318
617,1436480700,-202.73077,-9.375412,46.191753,-1.1948957,-1.5588018,1.0139183,-4.696742,-1.6336455,1.8468693,-12.226429,-9.515001,8.636568,47.643783,11.208137,-0.685537
618,1436497367,-202.686,-9.371239,46.175297,-1.2040272,-1.5499356,1.0093874,-4.4610143,-1.4784364,1.8309203,-12.246496,-9.540833,8.653391,47.569433,11.183496,-0.655022
619,1436514034,-202.63193,-9.367516,46.149494,-1.2138472,-1.5395374,1.0068249,-4.1378226,-1.29249,1.7967864,-12.266727,-9.566492,8.670171,47.500469,11.161954,-0.625076
620,1436530701,-202.56024,-9.367493,46.114452,-1.2267857,-1.526093,1.00175,-3.776452,-1.0666801,1.764702,-12.287173,-9.591927,8.686867,47.437528,11.144176,-0.595664
621,1436547368,-202.4715,-9.370445,46.06899,-1.2423525,-1.5097725,0.9954338,-3.3565114,-0.7992952,1.7276998,-12.307879,-9.61709,8.703458,47.381586,11.130854,-0.566869
622,1436564035,-202.4285,-9.3641205,46.05939,-1.2506561,-1.5013418,0.99198663,-3.1325817,-0.7181326,1.7112188,-12.328723,-9.642112,8.719991,47.329376,11.118885,-0.538349
623,1436580702,-202.43558,-9.347778,46.089695,-1.2510786,-1.5015868,0.9913033,-3.132931,-0.8432001,1.7194293,-12.349574,-9.667138,8.736513,47.27716,11.104832,-0.509692
624,1436597369,-202.46289,-9.326706,46.136692,-1.248002,-1.5054816,0.9923011,-3.2216537,-1.0651916,1.7347054,-12.370374,-9.692229,8.753051,47.223466,11.087079,-0.48078
625,1436614036,-202.5275,-9.297546,46.213207,-1.2387285,-1.5159875,0.9960208,-3.4714148,-1.4481394,1.7644331,-12.391019,-9.717495,8.769651,47.165609,11.062943,-0.451373
626,1436630703,-202.58966,-9.26815,46.291325,-1.2296667,-1.5264492,0.99883413,-3.746155,-1.8582584,1.7973298,-12.411513,-9.742936,8.786298,47.103173,11.031972,-0.421418
627,1436647370,-202.64685,-9.238853,46.369167,-1.2211399,-1.5364957,1.0006521,-4.036459,-2.2885318,1.8316901,-12.431865,-9.768544,8.802976,47.035899,10.99383,-0.39089
628,1436664037,-202.7338,-9.202766,46.47196,-1.2075701,-1.5520552,1.0041862,-4.474971,-2.8628883,1.8795118,-12.451991,-9.794412,8.819712,46.961316,10.946115,-0.359565
629,1436680704,-202.84216,-9.161407,46.593945,-1.1902447,-1.571794,1.0086936,-5.0351195,-3.5554695,1.9382298,-12.471828,-9.820609,8.836524,46.877397,10.886857,-0.327261
630,1436697371,-202.90662,-9.129234,46.676884,-1.1798697,-1.5851967,1.010461,-5.307103,-3.898766,1.9695456,-12.491492,-9.847029,8.853365,46.788945,10.821878,-0.294435
631,1436714038,-202.92532,-9.106697,46.718502,-1.1767321,-1.5920675,1.0094393,-5.270391,-3.864377,1.9713441,-12.511104,-9.873563,8.870189,46.701105,10.757472,-0.261579
632,1436730705,-202.92383,-9.087875,46.742687,-1.176569,-1.5965639,1.0068827,-5.103095,-3.657424,1.9599668,-12.530713,-9.900172,8.88697,46.616053,10.696515,-0.228913
633,1436747372,-202.88501,-9.076538,46.73399,-1.1821709,-1.5959889,1.0018153,-4.695571,-3.1503856,1.9250195,-12.550416,-9.926772,8.903667,46.537793,10.644009,-0.196829
634,1436764039,-202.85577,-9.062378,46.73277,-1.1857996,-1.5980631,0.99712884,-4.321301,-2.6478343,1.8913146,-12.570179,-9.953406,8.920286,46.465771,10.599878,-0.165307
635,1436780706,-202.83829,-9.044838,46.740932,-1.1870689,-1.6032014,0.99291444,-3.9949589,-2.1646693,1.8599681,-12.589963,-9.980126,8.936835,46.399188,10.5638,-0.134308
636,1436797373,-202.79431,-9.032272,46.72498,-1.1922274,-1.6052668,0.9868754,-3.4848802,-1.4366343,1.8094313,-12.609833,-10.00688,8.953283,46.341107,10.539856,-0.104151
637,1436814040,-202.73349,-9.022545,46.69315,-1.1996555,-1.6059077,0.9795941,-2.8473206,-0.52466524,1.7446101,-12.629827,-10.033645,8.96961,46.293652,10.531112,-0.075074
638,1436830707,-202.69339,-9.013535,46.684185,-1.2046576,-1.6058283,0.97619176,-2.4772143,-0.002886057,1.6822639,-12.649905,-10.060409,8.98588,46.252365,10.531064,-0.047036
639,1436847374,-202.6727,-9.006134,46.697445,-1.2075605,-1.6043373,0.9768872,-2.3829353,0.10835385,1.6209176,-12.670031,-10.087148,9.002161,46.212649,10.53287,-0.020021
640,1436864041,-202.66,-8.99987,46.719944,-1.2095194,-1.602201,0.9796455,-2.414246,0.042245865,1.5555145,-12.69019,-10.113851,9.018488,46.172412,10.533574,0.005904
641,1436880708,-202.66434,-8.994553,46.761204,-1.2094412,-1.5993772,0.9858464,-2.6739185,-0.3527943,1.4896234,-12.710347,-10.140507,9.034919,46.127847,10.527694,0.030731
642,1436897375,-202.65363,-8.993599,46.789677,-1.2117081,-1.5938491,0.99189734,-2.8715262,-0.67198217,1.4073384,-12.730542,-10.167071,9.051451,46.079988,10.516494,0.054187
643,1436914042,-202.62643,-8.997162,46.80389,-1.2164869,-1.5855685,0.9976547,-2.9939978,-0.8955772,1.30757,-12.750817,-10.193497,9.068079,46.030088,10.501568,0.07598
644,1436930709,-202.60632,-9.003456,46.82754,-1.2207174,-1.5754089,1.0061252,-3.2747238,-1.3566626,1.2008363,-12.771162,-10.219754,9.084848,45.975509,10.478957,0.095994
645,1436947376,-202.5863,-9.013344,46.85381,-1.2253599,-1.5628644,1.016592,-3.6534667,-1.9716005,1.0832974,-12.791585,-10.245802,9.101791,45.914618,10.446097,0.114049
646,1436964043,-202.59457,-9.015152,46.90208,-1.2285709,-1.5547552,1.0212554,-3.890101,-2.3502057,0.990806,-12.812061,-10.271715,9.118812,45.849783,10.406927,0.130562
647,1436980710,-202.63666,-9.007683,46.977047,-1.2298565,-1.5517377,1.0197412,-3.9904742,-2.4972146,0.92776513,-12.832559,-10.297577,9.135808,45.783275,10.365307,0.146025
648,1436997377,-202.69437,-8.997147,47.0649,-1.2307749,-1.5501611,1.015272,-4.028469,-2.5427177,0.8743125,-12.853072,-10.323413,9.152729,45.716134,10.322928,0.160597
649,1437014044,-202.77667,-8.980217,47.17204,-1.23073,-1.5519156,1.0057434,-3.944843,-2.3894207,0.8408034,-12.873584,-10.349278,9.169491,45.650387,10.283104,0.17461
650,1437030711,-202.87326,-8.963341,47.293438,-1.2300148,-1.5532032,0.9964905,-3.9412923,-2.3527868,0.8087511,-12.894084,-10.375165,9.186099,45.584699,10.243891,0.188089
651,1437047378,-202.98343,-8.946968,47.4286,-1.228735,-1.5537161,0.98774946,-4.0258,-2.4465358,0.77678543,-12.914563,-10.40106,9.202561,45.517602,10.203115,0.201035
652,1437064045,-203.12042,-8.925011,47.58605,-1.2262039,-1.5569946,0.9750098,-4.0480146,-2.4314408,0.7633873,-12.935,-10.42701,9.218811,45.450135,10.162591,0.213758
653,1437080712,-203.28271,-8.898735,47.765263,-1.2224646,-1.5622482,0.9593437,-4.0509114,-2.3747888,0.764964,-12.955374,-10.453047,9.2348,45.38262,10.123011,0.226507
654,1437097379,-203.4097,-8.880508,47.912876,-1.2200222,-1.5642346,0.9494803,-4.0703716,-2.3324633,0.75756454,-12.975708,-10.479118,9.250625,45.31478,10.084137,0.239133
655,1437114046,-203.49796,-8.870644,48.025433,-1.2189741,-1.5629431,0.9456743,-4.092757,-2.2820637,0.7418,-12.996024,-10.505167,9.266386,45.246567,10.046103,0.251496
656,1437130713,-203.57574,-8.864037,48.12839,-1.2181225,-1.5603625,0.9444778,-4.130677,-2.2431629,0.72710735,-13.016326,-10.531173,9.282127,45.177722,10.008717,0.263614
657,1437147380,-203.62692,-8.863899,48.20741,-1.2181015,-1.5551832,0.9481815,-4.189701,-2.223783,0.7079172,-13.036628,-10.557093,9.29793,45.107894,9.971654,0.275413
658,1437164047,-203.69077,-8.861443,48.296192,-1.2172651,-1.5513699,0.95049155,-4.209626,-2.1289485,0.70338607,-13.056916,-10.582949,9.313772,45.037734,9.936172,0.287136
659,1437180714,-203.76987,-8.856155,48.396984,-1.2154789,-1.5491421,0.95111036,-4.1903462,-1.9579229,0.7149867,-13.077174,-10.608768,9.329624,44.967895,9.90354,0.299052
660,1437197381,-203.83087,-8.855103,48.48064,-1.2140827,-1.5454307,0.9551543,-4.1655703,-1.7628076,0.72885454,-13.097409,-10.634525,9.345543,44.898469,9.87416,0.3112
661,1437214048,-203.88205,-8.85643,48.55422,-1.2127056,-1.5410974,0.9613184,-4.1220636,-1.5222511,0.7495245,-13.117621,-10.66021,9.361565,44.829768,9.848789,0.323692
662,1437230715,-203.93579,-8.855705,48.63001,-1.2114973,-1.537933,0.9654219,-4.1021185,-1.3674188,0.7768688,-13.137813,-10.685842,9.377655,44.761399,9.825999,0.33664
663,1437247382,-203.98886,-8.853378,48.705173,-1.2106276,-1.5357621,0.967713,-4.1119986,-1.314227,0.80963624,-13.15799,-10.711438,9.393784,44.692866,9.804095,0.350134
664,1437264049,-204.04074,-8.850281,48.778454,-1.2097673,-1.5343404,0.9693209,-4.1215577,-1.2842035,0.85138506,-13.178153,-10.73701,9.409939,44.624173,9.782692,0.364324
665,1437280716,-204.09338,-8.84539,48.851864,-1.2090054,-1.5340848,0.96927,-4.142529,-1.3141893,0.9019406,-13.198303,-10.762578,9.426093,44.555131,9.760789,0.379356
666,1437297383,-204.13095,-8.843124,48.91058,-1.2085724,-1.5331898,0.9713621,-4.1589303,-1.3410339,0.95847195,-13.218446,-10.788131,9.442282,44.485815,9.738438,0.395331
667,1437314050,-204.15259,-8.843605,48.95374,-1.2084608,-1.5316308,0.9757613,-4.1676335,-1.3579514,1.0215296,-13.238587,-10.813658,9.458545,44.416354,9.715805,0.412356
668,1437330717,-204.16727,-8.84388,48.989902,-1.2086477,-1.53066,0.97978187,-4.186424,-1.4284182,1.0925031,-13.258731,-10.839169,9.474875,44.34658,9.691998,0.430564
669,1437347384,-204.17114,-8.844856,49.015377,-1.2091923,-1.5299048,0.98426366,-4.211401,-1.5390642,1.171047,-13.278884,-10.864667,9.491279,44.27639,9.666347,0.450081
670,1437364051,-204.16968,-8.8450165,49.0359,-1.2093048,-1.5300579,0.986325,-4.2025642,-1.5484178,1.2533122,-13.299039,-10.890168,9.507718,44.206347,9.64054,0.47097
671,1437380718,-204.16382,-8.843895,49.05232,-1.208931,-1.5313283,0.985402,-4.1584206,-1.4518002,1.3391211,-13.319188,-10.91569,9.524141,44.13704,9.616343,0.493289
672,1437397385,-204.14749,-8.842918,49.05881,-1.2085047,-1.5331384,0.9834516,-4.095133,-1.307735,1.4301763,-13.33933,-10.941242,9.540532,44.068788,9.594547,0.517125
673,1437414052,-204.12204,-8.841576,49.056675,-1.2078228,-1.5357254,0.9795835,-4.002103,-1.0792462,1.525455,-13.35946,-10.966837,9.556858,44.002086,9.57656,0.542549
674,1437430719,-204.08575,-8.8400345,49.04407,-1.2073517,-1.5390428,0.97478604,-3.9060826,-0.864159,1.627953,-13.379583,-10.992488,9.573104,43.936985,9.562157,0.569682
675,1437447386,-204.03757,-8.838394,49.01994,-1.2071438,-1.5430689,0.96917653,-3.808251,-0.66766834,1.7378654,-13.399702,-11.018206,9.589257,43.873514,9.551029,0.598646
676,1437464053,-203.97897,-8.8361435,48.98602,-1.2067966,-1.5480535,0.961447,-3.6860123,-0.40923595,1.8528318,-13.419815,-11.044007,9.605281,43.81208,9.544208,0.629527
677,1437480720,-203.90906,-8.833282,48.941425,-1.2064209,-1.5540076,0.95176566,-3.5447354,-0.109297514,1.9735146,-13.439922,-11.069907,9.621144,43.753001,9.542386,0.662419
678,1437497387,-203.83499,-8.835556,48.90214,-1.2062998,-1.556478,0.94868624,-3.3832347,0.07031965,2.034061,-13.460027,-11.095848,9.636955,43.696614,9.543558,0.69632
679,1437514054,-203.7573,-8.843399,48.869755,-1.20642,-1.5550818,0.9528235,-3.198161,0.12367368,2.0274165,-13.480134,-11.121766,9.652835,43.643311,9.545619,0.73011
680,1437530721,-203.67169,-8.854134,48.835835,-1.2067232,-1.5519441,0.9602103,-2.9932375,0.11344123,1.9848213,-13.500246,-11.147632,9.668839,43.593424,9.54751,0.76319
681,1437547388,-203.58005,-8.869347,48.80486,-1.2072783,-1.5458155,0.9731978,-2.7668514,-0.0036847591,1.8870106,-13.520367,-11.173396,9.685059,43.54731,9.547449,0.79464
682,1437564055,-203.47784,-8.88562,48.76736,-1.2078304,-1.5393444,0.9864783,-2.5131717,-0.11319423,1.7710752,-13.540498,-11.199052,9.7015,43.505424,9.545562,0.824158
683,1437580722,-203.36444,-8.902771,48.722614,-1.2083797,-1.53267,0.9997605,-2.2315693,-0.2106781,1.6382911,-13.560638,-11.224597,9.718163,43.468231,9.542051,0.851463
684,1437597389,-203.24362,-8.923935,48.679287,-1.2091093,-1.5233567,1.0177644,-1.9228277,-0.39134598,1.4524261,-13.58079,-11.249986,9.735126,43.436184,9.535529,0.87567
685,1437614056,-203.1142,-8.948425,48.635395,-1.2099705,-1.5119191,1.0394279,-1.5849586,-0.63232803,1.2200052,-13.600956,-11.275185,9.75245,43.409768,9.52499,0.896003
686,1437630723,-202.9909,-8.967056,48.568813,-1.2107296,-1.5046002,1.0519994,-1.548811,-0.73313236,1.1325375,-13.621135,-11.300262,9.769983,43.383954,9.512771,0.914879
687,1437647390,-202.87561,-8.97937,48.478527,-1.2113848,-1.5016586,1.0548722,-1.8474977,-0.68660533,1.2033439,-13.641325,-11.32529,9.787564,43.353162,9.501328,0.934935
688,1437664057,-202.76053,-8.989319,48.373745,-1.2120123,-1.5004473,1.0534037,-2.3241026,-0.57292545,1.3455031,-13.661525,-11.350297,9.805121,43.314427,9.491779,0.95736
689,1437680724,-202.65,-8.9944,48.248493,-1.2125549,-1.5026176,1.0441711,-3.074148,-0.33892822,1.6117293,-13.681734,-11.375341,9.822524,43.263191,9.48613,0.984222
690,1437697391,-202.5364,-9.000832,48.117832,-1.2131968,-1.5038726,1.0358294,-3.9073172,-0.12698507,1.8806033,-13.701954,-11.400406,9.839788,43.198069,9.484014,1.015565
691,1437714058,-202.41925,-9.008911,47.98241,-1.2139492,-1.5039809,1.0287936,-4.8159714,0.056391478,2.1459029,-13.722186,-11.425472,9.856935,43.117803,9.484954,1.05133
692,1437730725,-202.30646,-9.013405,47.82961,-1.2146626,-1.5065099,1.0157536,-5.9821305,0.3284402,2.5147655,-13.74243,-11.45058,9.873864,43.018101,9.490428,1.093243
693,1437747392,-202.19653,-9.015572,47.66241,-1.2153788,-1.5105648,0.99846673,-7.3711386,0.6599908,2.9630089,-13.762686,-11.475756,9.890505,42.895249,9.501428,1.142626
694,1437764059,-202.06253,-9.01738,47.5014,-1.2146635,-1.5139366,0.98863006,-8.075457,0.82427335,3.2808204,-13.78293,-11.500988,9.906982,42.760658,9.515166,1.197306
695,1437780726,-201.90298,-9.01828,47.34692,-1.2123566,-1.5168784,0.9864172,-8.032652,0.8139241,3.4626026,-13.803136,-11.526269,9.923422,42.62678,9.528731,1.255016
696,1437797393,-201.73001,-9.01812,47.191128,-1.2091465,-1.5198596,0.98741364,-7.6515274,0.7169204,3.59273,-13.823288,-11.5516,9.939879,42.499255,9.54068,1.314895
697,1437814060,-201.53647,-9.017197,47.039333,-1.2046146,-1.5224116,0.994629,-6.6821814,0.4731133,3.6166816,-13.843365,-11.576974,9.956456,42.387885,9.548565,1.375173
698,1437830727,-201.34018,-9.012917,46.87615,-1.1995344,-1.5267731,0.99929583,-5.7016706,0.24511719,3.6855745,-13.863357,-11.60242,9.973111,42.292857,9.55265,1.436599
699,1437847394,-201.14227,-9.005096,46.700825,-1.1939335,-1.533051,1.0009972,-4.738759,0.03972435,3.8072972,-13.883256,-11.627971,9.989794,42.213878,9.553312,1.500054
700,1437864061,-200.92755,-8.995163,46.525555,-1.1870337,-1.5397776,1.0066739,-3.2845385,-0.27667212,3.8598552,-13.90304,-11.653634,10.006572,42.159136,9.548701,1.564385
701,1437880728,-200.69983,-8.982445,46.347095,-1.1789637,-1.5474696,1.0144798,-1.453537,-0.671067,3.8751073,-13.922689,-11.679425,10.02348,42.13491,9.537517,1.62897
702,1437897395,-200.45251,-8.970253,46.149426,-1.1740208,-1.5592657,1.0238972,-0.27440405,-0.8911985,3.9156919,-13.942256,-11.705413,10.040545,42.130337,9.522664,1.694232
703,1437914062,-200.18289,-8.958923,45.932446,-1.1725016,-1.5753767,1.0357494,0.223207,-0.9294727,3.972341,-13.961798,-11.731669,10.057807,42.134057,9.507173,1.760438
704,1437930729,-199.89636,-8.946327,45.701496,-1.1724482,-1.5947385,1.0490695,0.4555874,-0.88365436,4.0364466,-13.981339,-11.758248,10.075291,42.14165,9.492445,1.827712
705,1437947396,-199.59024,-8.93335,45.452442,-1.1750402,-1.6182666,1.0639977,0.15462828,-0.6871383,4.120886,-14.000923,-11.785219,10.093024,42.144227,9.480993,1.896393
706,1437964063,-199.26419,-8.918266,45.197697,-1.1775665,-1.6438442,1.0826969,0.05714941,-0.5222335,4.1570654,-14.020549,-11.812616,10.111069,42.145179,9.472289,1.965677
707,1437980730,-198.91797,-8.900848,44.937687,-1.179884,-1.6714866,1.1052365,0.20158625,-0.39681482,4.142426,-14.040214,-11.840474,10.12949,42.148539,9.465675,2.034717
708,1437997397,-198.54901,-8.882622,44.66258,-1.1843843,-1.703117,1.1307824,-0.009226322,-0.16203904,4.1207724,-14.059954,-11.868859,10.148336,42.148385,9.462974,2.103397
709,1438014064,-198.15668,-8.863182,44.374905,-1.1905308,-1.7383898,1.1599019,-0.42031765,0.14480662,4.0764875,-14.079796,-11.897832,10.167668,42.14138,9.465387,2.171338
710,1438030731,-197.81891,-8.84568,44.130016,-1.1955318,-1.7619262,1.1823379,-0.6215143,0.2717955,4.0115395,-14.099722,-11.927197,10.187374,42.131021,9.469917,2.238197
711,1438047398,-197.54266,-8.830643,43.93234,-1.1994562,-1.7724864,1.1971273,-0.64809036,0.21315265,3.9294014,-14.119713,-11.956738,10.207326,42.120219,9.47347,2.303687
712,1438064065,-197.2904,-8.816246,43.75754,-1.2033014,-1.777138,1.2096069,-0.591732,0.06354332,3.8170257,-14.139768,-11.986357,10.227486,42.110357,9.474529,2.367304
713,1438080732,-197.08405,-8.80349,43.62131,-1.2064018,-1.771568,1.2169232,-0.35971546,-0.2430222,3.6748838,-14.159875,-12.015883,10.247768,42.104362,9.470479,2.428552
714,1438097399,-196.8775,-8.790855,43.489147,-1.2110453,-1.765258,1.2249012,-0.34764814,-0.5205449,3.5117445,-14.180059,-12.045304,10.268183,42.098568,9.461803,2.487081
715,1438114066,-196.66837,-8.778297,43.35982,-1.2173681,-1.7586513,1.2339671,-0.5707278,-0.7612064,3.3252764,-14.200348,-12.074615,10.288749,42.089056,9.449116,2.542502
716,1438130733,-196.4992,-8.767426,43.26472,-1.2236958,-1.7431595,1.2387145,-0.75779486,-1.1149666,3.1107364,-14.220743,-12.103668,10.309394,42.076426,9.430533,2.594348
