PacketCounter,SampleTimeFine,Euler_X,Euler_Y,Euler_Z,Acc_X,Acc_Y,Acc_Z,Gyr_X,Gyr_Y,Gyr_Z,Velo_X,Velo_Y,Velo_Z,ANG_X,ANG_Y,ANG_Z
0,2283364588,31.857864,-63.95813,84.32968,9.641086,2.8897786,-1.9889216,7.7163606,1.0745128,2.212963,0.0,0.0,0.0,0.0,0.0,0.0
1,2283381255,32.164185,-64.158554,84.43039,9.7241535,3.2688074,-1.9623659,8.4401455,1.1086838,2.1792274,0.162069,0.05448,-0.032706,0.140669,0.018478,0.03632
2,2283397922,32.485855,-64.36947,84.536705,9.812517,3.6806273,-1.9346404,9.207886,1.1419058,2.1469069,0.325611,0.115824,-0.06495,0.294134,0.03751,0.072102
3,2283414589,32.81791,-64.58777,84.64711,9.904819,4.1196294,-1.9062239,10.007571,1.1732665,2.1166277,0.490691,0.184484,-0.09672,0.460927,0.057064,0.107379
4,2283431256,33.261192,-64.877304,84.792694,10.028504,4.7007527,-1.8674197,11.079345,1.2210337,2.0767126,0.657833,0.26283,-0.127844,0.645583,0.077415,0.141991
5,2283447923,33.7937,-65.224205,84.96673,10.177738,5.4006877,-1.8203598,12.371891,1.2809038,2.0301013,0.827462,0.352841,-0.158183,0.851781,0.098763,0.175826
6,2283464590,34.18663,-65.49788,85.10833,10.281126,5.84617,-1.7773995,13.140433,1.2143197,1.9908113,0.998814,0.450277,-0.187806,1.070788,0.119002,0.209006
7,2283481257,34.43196,-65.69476,85.21609,10.335636,6.017492,-1.7383263,13.345907,1.0096514,1.9587129,1.171075,0.550569,-0.216778,1.29322,0.13583,0.241651
8,2283497924,34.62481,-65.86844,85.314865,10.371581,6.0776296,-1.6985241,13.309384,0.72915024,1.9290844,1.343935,0.651863,-0.245087,1.515043,0.147983,0.273802
9,2283514591,34.70511,-65.98509,85.38896,10.370041,5.9262586,-1.6609633,12.830189,0.33349508,1.9054362,1.516769,0.750634,-0.27277,1.728879,0.153541,0.305559
10,2283531258,34.834015,-66.138596,85.48261,10.380151,5.8122525,-1.6156797,12.406744,-0.09273635,1.8764772,1.689772,0.847505,-0.299698,1.935658,0.151995,0.336834
11,2283547925,35.02018,-66.334206,85.59833,10.404549,5.748857,-1.5620365,12.064243,-0.5463233,1.8417159,1.863181,0.943319,-0.325732,2.136729,0.14289,0.367529
12,2283564592,35.13173,-66.49634,85.70082,10.402385,5.5245614,-1.5073893,11.378701,-1.1050621,1.8097447,2.036554,1.035395,-0.350855,2.326374,0.124472,0.397691
13,2283581259,35.20247,-66.64502,85.79957,10.383882,5.1904006,-1.4494715,10.451535,-1.7531881,1.7781593,2.209619,1.121902,-0.375013,2.500566,0.095252,0.427327
14,2283597926,35.291634,-66.772446,85.87249,10.381953,5.009588,-1.4194355,9.65052,-2.2630768,1.5330263,2.382652,1.205395,-0.39867,2.661408,0.057534,0.452877
15,2283614593,35.387978,-66.86828,85.9129,10.394471,4.97955,-1.421231,8.953486,-2.6239982,1.0533441,2.555893,1.288387,-0.422357,2.810633,0.013801,0.470433
16,2283631260,35.48551,-66.949326,85.937485,10.412466,5.0082335,-1.4386268,8.249348,-2.9346936,0.43747827,2.729434,1.371858,-0.446334,2.948122,-0.035111,0.477724
17,2283647927,35.595398,-67.010155,85.93841,10.443508,5.160934,-1.4808455,7.621938,-3.1345782,-0.3765934,2.903492,1.457874,-0.471015,3.075154,-0.087354,0.471447
18,2283664594,35.648132,-67.03531,85.91913,10.4575815,5.227942,-1.5317662,6.741013,-3.3781648,-1.2642084,3.077785,1.545006,-0.496544,3.187504,-0.143657,0.450377
19,2283681261,35.640747,-67.024315,85.87992,10.453296,5.1989484,-1.5906146,5.5881853,-3.6740308,-2.2212596,3.252007,1.631655,-0.523054,3.28064,-0.204891,0.413356
20,2283697928,35.615494,-66.978645,85.81132,10.451662,5.2330203,-1.6739006,4.393656,-3.8927422,-3.3668418,3.426201,1.718872,-0.550952,3.353868,-0.26977,0.357242
21,2283714595,35.556007,-66.89359,85.713104,10.445971,5.284782,-1.7787806,3.081779,-4.066458,-4.6787286,3.600301,1.806952,-0.580598,3.405231,-0.337544,0.279263
22,2283731262,35.506966,-66.83322,85.64317,10.437356,5.315787,-1.8391693,1.9099439,-4.303919,-5.732071,3.774257,1.895548,-0.611251,3.437063,-0.409276,0.183728
23,2283747929,35.47535,-66.80182,85.60469,10.427944,5.34038,-1.851242,0.92528117,-4.5987163,-6.5037084,3.948056,1.984554,-0.642105,3.452484,-0.485921,0.075333
24,2283764596,35.427017,-66.76422,85.56911,10.412247,5.345204,-1.8448181,-0.049875498,-4.9201217,-7.182824,4.121593,2.073641,-0.672852,3.451653,-0.567923,-0.044381
25,2283781263,35.374237,-66.73702,85.551506,10.390921,5.324186,-1.8021023,-0.9381551,-5.2933226,-7.655392,4.294775,2.162377,-0.702887,3.436017,-0.656145,-0.171971
26,2283797930,35.30002,-66.68162,85.51471,10.368342,5.340139,-1.7662439,-1.834864,-5.620685,-8.203108,4.467581,2.251379,-0.732324,3.405436,-0.749823,-0.308689
27,2283814597,35.200394,-66.59383,85.455605,10.343892,5.392979,-1.7397301,-2.7533941,-5.897602,-8.841984,4.639979,2.341262,-0.76132,3.359546,-0.848116,-0.456055
28,2283831264,35.093727,-66.50648,85.40543,10.315903,5.4472203,-1.6855762,-3.5771236,-6.192918,-9.332573,4.811911,2.432049,-0.789413,3.299927,-0.951331,-0.611598
29,2283847931,34.975456,-66.41049,85.3559,10.285107,5.516518,-1.6126888,-4.3248835,-6.484838,-9.733198,4.983329,2.523991,-0.816291,3.227846,-1.059412,-0.773818
30,2283864598,34.889015,-66.24849,85.26899,10.221889,5.6221757,-1.5814621,-4.751438,-6.799571,-10.617617,5.153694,2.617694,-0.842649,3.148655,-1.172738,-0.950778
31,2283881265,34.84124,-66.0184,85.14467,10.123121,5.7642064,-1.5929244,-4.8101597,-7.146499,-12.011663,5.322413,2.713764,-0.869198,3.068486,-1.291846,-1.150972
32,2283897932,34.808395,-65.74054,84.995056,10.003135,5.9432197,-1.6242735,-4.6232715,-7.4973335,-13.683035,5.489132,2.812818,-0.896269,2.991431,-1.416802,-1.379023
33,2283914599,34.80394,-65.39928,84.810356,9.85334,6.165895,-1.6911135,-4.10878,-7.8608704,-15.786306,5.653354,2.915583,-0.924454,2.922951,-1.547817,-1.642128
34,2283931266,34.806282,-65.03468,84.619896,9.689912,6.411138,-1.7486544,-3.3737426,-8.238632,-17.92721,5.814853,3.022435,-0.953598,2.866722,-1.685128,-1.940915
35,2283947933,34.814514,-64.64758,84.42449,9.513497,6.680755,-1.7948313,-2.4145827,-8.628282,-20.089296,5.973411,3.133781,-0.983512,2.826479,-1.828933,-2.275737
36,2283964600,34.852005,-64.20392,84.20098,9.308169,6.992315,-1.8653603,-1.096227,-9.036916,-22.6053,6.128547,3.25032,-1.014601,2.808209,-1.979548,-2.652492
37,2283981267,34.91519,-63.711178,83.955185,9.076804,7.343038,-1.9508835,0.57098496,-9.464764,-25.39652,6.279827,3.372704,-1.047116,2.817725,-2.137294,-3.075767
38,2283997934,34.905617,-63.319397,83.74737,8.869896,7.5193477,-2.0093071,1.0803279,-9.779914,-26.399317,6.427659,3.498026,-1.080604,2.83573,-2.300293,-3.515756
39,2284014601,34.81762,-63.03877,83.580605,8.689841,7.5026917,-2.0408933,0.30889964,-9.970804,-25.44905,6.57249,3.623071,-1.114619,2.840878,-2.466473,-3.939907
40,2284031268,34.696312,-62.80308,83.43031,8.514201,7.3925376,-2.059276,-1.0312104,-10.099912,-23.46417,6.714393,3.74628,-1.14894,2.823691,-2.634805,-4.330977
41,2284047935,34.51528,-62.6538,83.3129,8.356339,7.128452,-2.053761,-3.360268,-10.130049,-19.862352,6.853665,3.865088,-1.183169,2.767687,-2.803639,-4.662016
42,2284064602,34.338814,-62.494358,83.187126,8.182217,6.840132,-2.0581627,-5.7598495,-10.138403,-15.920834,6.990035,3.97909,-1.217472,2.67169,-2.972612,-4.927363
43,2284081269,34.170845,-62.32035,83.05135,7.98976,6.5335298,-2.073702,-8.180855,-10.128718,-11.68923,7.123198,4.087982,-1.252034,2.535342,-3.141424,-5.122183
44,2284097936,33.95655,-62.216785,82.94068,7.8074164,6.0896287,-2.0743432,-11.454706,-10.029133,-6.0048203,7.253322,4.189476,-1.286606,2.34443,-3.308576,-5.222263
45,2284114603,33.70939,-62.164703,82.84693,7.6279917,5.5332007,-2.067104,-15.400476,-9.854342,0.8919952,7.380455,4.281696,-1.321058,2.087755,-3.472815,-5.207396
46,2284131270,33.530365,-62.11562,82.70929,7.5001063,5.1598115,-2.0517714,-17.147293,-9.927945,5.594747,7.505457,4.367693,-1.355254,1.801967,-3.638281,-5.11415
47,2284147937,33.422348,-62.077393,82.52661,7.432554,4.9808726,-2.0250726,-16.527615,-10.271629,7.939829,7.629333,4.450708,-1.389005,1.526507,-3.809475,-4.98182
48,2284164604,33.346497,-62.062172,82.32266,7.3980103,4.870888,-1.9916805,-14.784571,-10.741513,9.399324,7.752633,4.531889,-1.4222,1.280097,-3.9885,-4.825165
49,2284181271,33.329384,-62.061203,82.0818,7.411998,4.9075627,-1.950473,-11.136284,-11.426676,9.064072,7.876166,4.613682,-1.454708,1.094492,-4.178945,-4.674097
50,2284197938,33.298355,-62.127335,81.84917,7.454303,4.885635,-1.8943896,-7.4691997,-12.120116,9.242601,8.000404,4.695109,-1.486281,0.970005,-4.380947,-4.520054
51,2284214605,33.250305,-62.26479,81.627075,7.524431,4.79359,-1.8232248,-3.8728404,-12.811932,10.059755,8.125811,4.775002,-1.516668,0.905458,-4.594479,-4.352391
52,2284231272,33.244637,-62.442062,81.37972,7.647333,4.8004766,-1.7390435,1.2827312,-13.684297,9.576059,8.253267,4.85501,-1.545652,0.926837,-4.822551,-4.19279
53,2284247939,33.266502,-62.672752,81.116714,7.8203344,4.8630776,-1.6399071,7.620601,-14.696301,8.269345,8.383606,4.936061,-1.572984,1.053847,-5.067489,-4.054968
54,2284264606,33.35089,-62.830666,80.8684,7.941996,4.874141,-1.5662192,12.031418,-15.335664,7.6427703,8.515973,5.017297,-1.599088,1.254371,-5.323083,-3.927588
55,2284281273,33.509483,-62.901924,80.63348,8.007334,4.844908,-1.5216029,14.433625,-15.577015,7.584843,8.649429,5.098045,-1.624448,1.494931,-5.5827,-3.801174
56,2284297940,33.71679,-62.957375,80.40406,8.06412,4.7978206,-1.4852152,16.062927,-15.636875,7.688801,8.783831,5.178009,-1.649202,1.762646,-5.843315,-3.673027
57,2284314607,33.98597,-62.96159,80.187546,8.085832,4.709498,-1.468231,16.109758,-15.377362,8.293158,8.918595,5.256501,-1.673673,2.031142,-6.099604,-3.534808
58,2284331274,34.31379,-62.982346,79.957085,8.139803,4.68677,-1.4473573,16.824776,-15.144954,8.002752,9.054258,5.334614,-1.697796,2.311555,-6.35202,-3.401429
59,2284347941,34.700798,-63.025658,79.71186,8.231019,4.734117,-1.4208852,18.321072,-14.956289,6.7477255,9.191442,5.413516,-1.721477,2.616906,-6.601291,-3.288967
60,2284364608,35.162148,-63.02682,79.47151,8.30354,4.780209,-1.4101931,18.78193,-14.517881,5.488185,9.329834,5.493186,-1.74498,2.929938,-6.843256,-3.197497
61,2284381275,35.69937,-63.0,79.230385,8.372135,4.84917,-1.4104818,18.679453,-13.899935,3.907011,9.46937,5.574006,-1.768488,3.241262,-7.074922,-3.13238
62,2284397942,36.18329,-63.00754,79.0059,8.456691,4.883968,-1.4116026,19.6109,-13.291542,3.082727,9.610315,5.655405,-1.792015,3.56811,-7.296448,-3.081001
63,2284414609,36.60578,-63.04606,78.8021,8.5522,4.8726754,-1.4156971,21.50513,-12.670578,3.2118046,9.752852,5.736616,-1.81561,3.926529,-7.507624,-3.027471
64,2284431276,37.03122,-63.094597,78.607025,8.6592865,4.8602805,-1.424719,23.919897,-11.990613,3.5503318,9.897173,5.817621,-1.839355,4.325194,-7.707468,-2.968299
65,2284447943,37.425415,-63.167233,78.42638,8.78142,4.8297048,-1.437021,27.23923,-11.290565,4.4219837,10.04353,5.898116,-1.863305,4.779181,-7.895644,-2.894599
66,2284464610,37.87008,-63.210754,78.25549,8.89316,4.7970376,-1.464323,30.057543,-10.378793,5.4299946,10.191749,5.978067,-1.88771,5.28014,-8.068624,-2.804099
67,2284481277,38.37181,-63.22168,78.09399,8.993814,4.766278,-1.5075386,32.32175,-9.243715,6.518324,10.341646,6.057505,-1.912836,5.818836,-8.222686,-2.69546
68,2284497944,38.86094,-63.23733,77.9496,9.098382,4.7145257,-1.5599862,35.05129,-8.008625,8.17372,10.493286,6.13608,-1.938836,6.403024,-8.356163,-2.559231
69,2284514611,39.355408,-63.245277,77.82188,9.20103,4.645435,-1.6247139,37.94388,-6.6275954,10.317825,10.646636,6.213504,-1.965915,7.035422,-8.466623,-2.387267
70,2284531278,39.926346,-63.29545,77.70662,9.288458,4.7010427,-1.7008089,39.935062,-5.410324,11.52504,10.801444,6.291855,-1.994262,7.701006,-8.556795,-2.195183
71,2284547945,40.572067,-63.39621,77.6053,9.360148,4.891811,-1.7880819,41.02663,-4.3965774,11.738005,10.957446,6.373385,-2.024063,8.384783,-8.630071,-1.99955
72,2284564612,41.271225,-63.514633,77.52034,9.417644,5.153048,-1.8896669,41.504673,-3.4043856,11.591578,11.114407,6.459269,-2.055557,9.076528,-8.686811,-1.806357
73,2284581279,42.041473,-63.66555,77.451614,9.456803,5.5241055,-2.0056627,41.08694,-2.5225286,10.714571,11.27202,6.551337,-2.088985,9.76131,-8.728853,-1.627781
74,2284597946,42.82469,-63.828396,77.404465,9.488504,5.918053,-2.1357453,40.646744,-1.5978796,10.06135,11.430162,6.649971,-2.124581,10.438756,-8.755484,-1.460092
75,2284614613,43.61885,-64.000656,77.380104,9.511911,6.330708,-2.2808094,40.193382,-0.6160555,9.694038,11.588694,6.755483,-2.162594,11.108646,-8.765752,-1.298525
76,2284631280,44.46797,-64.20578,77.376526,9.517346,6.8404384,-2.4415228,39.037357,0.26826966,8.821775,11.747316,6.86949,-2.203286,11.759269,-8.761281,-1.151495
77,2284647947,45.359894,-64.43966,77.395706,9.506198,7.430325,-2.6183782,37.34517,1.0862826,7.649436,11.905753,6.993329,-2.246926,12.381688,-8.743176,-1.024004
78,2284664614,46.005722,-64.57486,77.44336,9.47881,7.7708735,-2.7951362,34.604298,2.1610289,6.4666433,12.063733,7.122844,-2.293512,12.958426,-8.707159,-0.916227
79,2284681281,46.381058,-64.60237,77.52069,9.433255,7.840325,-2.9706352,30.66382,3.5007865,5.2008924,12.220954,7.253516,-2.343023,13.46949,-8.648813,-0.829545
80,2284697948,46.612915,-64.57991,77.62724,9.369444,7.783627,-3.1532874,25.858078,4.9710917,3.850968,12.377111,7.383243,-2.395578,13.900458,-8.565961,-0.765362
81,2284714615,46.61882,-64.47231,77.76535,9.286429,7.5100102,-3.3387601,19.999174,6.6549487,2.4661226,12.531885,7.50841,-2.451224,14.233778,-8.455045,-0.72426
82,2284731282,46.576073,-64.35912,77.93264,9.179919,7.231335,-3.5374534,13.165848,8.324321,0.6745651,12.684884,7.628932,-2.510182,14.453209,-8.316306,-0.713017
83,2284747949,46.490402,-64.24427,78.13014,9.048817,6.957332,-3.7502747,5.3459606,9.965705,-1.5375605,12.835698,7.744888,-2.572687,14.542308,-8.150211,-0.738643
84,2284764616,46.198143,-64.05691,78.36178,8.893676,6.5017734,-3.9683867,-3.6927671,11.762996,-3.9540396,12.983926,7.853251,-2.638827,14.480762,-7.954161,-0.804544
85,2284781283,45.73172,-63.81269,78.627975,8.712678,5.906343,-4.194118,-13.967707,13.667217,-6.6626277,13.129137,7.95169,-2.708729,14.247967,-7.726374,-0.915588
86,2284797950,45.344368,-63.618534,78.89439,8.597994,5.513493,-4.393532,-21.631025,15.2829685,-8.650961,13.272437,8.043582,-2.781955,13.88745,-7.471658,-1.059771
87,2284814617,45.03495,-63.474667,79.15886,8.558178,5.3304124,-4.562024,-26.362335,16.59262,-9.804819,13.415073,8.132422,-2.857989,13.448078,-7.195114,-1.223185
88,2284831284,44.70018,-63.339756,79.4387,8.547954,5.2202325,-4.717041,-30.014805,17.748447,-10.669674,13.557539,8.219426,-2.936606,12.947831,-6.899307,-1.401013
89,2284847951,44.401306,-63.24041,79.7248,8.593328,5.2710223,-4.8483305,-31.517027,18.64281,-10.95636,13.700761,8.307276,-3.017412,12.422547,-6.588593,-1.583619
90,2284864618,43.941345,-63.094627,80.03945,8.640221,5.231958,-4.9731627,-33.188477,19.549807,-11.201252,13.844765,8.394475,-3.100298,11.869406,-6.262763,-1.770307
91,2284881285,43.305885,-62.89755,80.38451,8.685578,5.0893607,-5.092153,-35.16235,20.478195,-11.442516,13.989525,8.479298,-3.185167,11.283367,-5.92146,-1.961016
92,2284897952,42.642235,-62.712086,80.74125,8.779577,5.0430007,-5.187134,-35.333294,21.195238,-11.155008,14.135851,8.563348,-3.271619,10.694479,-5.568206,-2.146933
93,2284914619,41.904846,-62.52014,81.114624,8.911658,5.039272,-5.2609615,-34.16244,21.753958,-10.443714,14.284379,8.647336,-3.359302,10.125105,-5.20564,-2.320995
94,2284931286,41.24447,-62.33146,81.53551,8.988574,4.9950795,-5.2890215,-33.51678,22.758007,-10.005024,14.434189,8.730587,-3.447452,9.566492,-4.82634,-2.487745
95,2284947953,40.69136,-62.154152,82.00471,9.008652,4.9267545,-5.2653375,-33.26656,24.234829,-9.824827,14.584333,8.8127,-3.535208,9.012049,-4.422426,-2.651492
96,2284964620,40.141113,-61.970974,82.511215,9.009905,4.8375087,-5.2022367,-32.794205,25.931705,-9.630732,14.734498,8.893325,-3.621912,8.465479,-3.990231,-2.812004
97,2284981287,39.64045,-61.786674,83.063225,8.968629,4.7111917,-5.0908017,-32.507477,28.01018,-9.586985,14.883975,8.971845,-3.706759,7.923688,-3.523395,-2.971787
98,2284997954,39.136086,-61.61125,83.63859,8.953013,4.6477923,-4.9389534,-30.727606,30.054571,-9.141125,15.033192,9.049308,-3.789075,7.411561,-3.022485,-3.124139
99,2285014621,38.62126,-61.44398,84.23666,8.967153,4.650041,-4.7456064,-27.335018,32.044537,-8.252844,15.182645,9.126809,-3.868168,6.955977,-2.488409,-3.261686
100,2285031288,38.165176,-61.284706,84.875786,8.9571705,4.6562963,-4.4975047,-23.468334,34.32821,-7.3267384,15.331931,9.204414,-3.943126,6.564838,-1.916272,-3.383798
101,2285047955,37.758263,-61.13602,85.551636,8.93791,4.689098,-4.194477,-18.724024,36.82055,-6.2339306,15.480896,9.282566,-4.013034,6.252771,-1.302596,-3.487697
102,2285064622,37.402046,-60.97504,86.15022,8.921779,4.7236066,-3.9515114,-14.962268,37.86159,-5.575743,15.629592,9.361293,-4.078893,6.0034,-0.671569,-3.580626
103,2285081289,37.110313,-60.800816,86.66248,8.903583,4.7529426,-3.7765744,-12.458537,37.328785,-5.4522967,15.777985,9.440509,-4.141836,5.795758,-0.049423,-3.671498
104,2285097956,36.879967,-60.62684,87.13918,8.887646,4.806269,-3.6136637,-10.020824,35.94612,-5.4848614,15.926112,9.520613,-4.202064,5.628744,0.549679,-3.762912
105,2285114623,36.71852,-60.44765,87.548195,8.875616,4.8767276,-3.4938316,-8.1872,33.248287,-5.854439,16.074039,9.601892,-4.260295,5.492291,1.103817,-3.860486
106,2285131290,36.646446,-60.277077,87.960236,8.846701,4.9643283,-3.3447037,-6.1175566,30.282715,-6.3051605,16.221484,9.684631,-4.31604,5.390332,1.608529,-3.965572
107,2285147957,36.66987,-60.117176,88.378105,8.800674,5.073035,-3.1611853,-3.7103338,27.089468,-6.8122034,16.368162,9.769182,-4.368726,5.328493,2.06002,-4.079109
108,2285164624,36.79001,-59.956974,88.73752,8.748774,5.197825,-3.0061347,-1.8557899,22.727207,-7.667064,16.513975,9.855812,-4.418828,5.297563,2.438807,-4.206893
109,2285181291,37.01655,-59.800148,89.05184,8.686263,5.340134,-2.8642263,-0.37654006,17.394527,-8.822084,16.658746,9.944814,-4.466565,5.291287,2.728716,-4.353928
110,2285197958,37.11583,-59.6135,89.36625,8.645663,5.4299874,-2.722359,0.7222208,13.625202,-9.815369,16.80284,10.035314,-4.511938,5.303324,2.955803,-4.517517
111,2285214625,37.069923,-59.392723,89.67512,8.630765,5.4597735,-2.5878556,1.2958707,11.530881,-10.652884,16.946686,10.12631,-4.555069,5.324922,3.147984,-4.695065
112,2285231292,37.000496,-59.15637,89.96402,8.622508,5.463862,-2.45724,1.4430636,10.029018,-11.532473,17.090394,10.217374,-4.596023,5.348973,3.315134,-4.887273
113,2285247959,36.844658,-58.894737,90.24153,8.630004,5.4218726,-2.3299487,1.098173,9.792316,-12.346039,17.234227,10.307739,-4.634855,5.367276,3.478339,-5.09304
114,2285264626,36.745407,-58.625134,90.462006,8.637105,5.374891,-2.2302258,0.026447773,9.081878,-13.446209,17.378179,10.397321,-4.672025,5.367717,3.629704,-5.317143
115,2285281293,36.71492,-58.34882,90.621346,8.642171,5.324819,-2.1596062,-1.8126612,7.8036046,-14.863449,17.522215,10.486068,-4.708018,5.337506,3.759764,-5.564867
116,2285297960,36.628456,-58.048447,90.747604,8.661169,5.2326207,-2.106995,-4.3974276,7.406107,-16.338581,17.666568,10.573278,-4.743135,5.264216,3.883199,-5.837177
117,2285314627,36.517372,-57.72736,90.828896,8.690693,5.1059575,-2.0789063,-7.8176627,7.5276012,-17.95633,17.811413,10.658377,-4.777783,5.133922,4.008659,-6.136449
118,2285331294,36.471382,-57.333164,90.87083,8.65267,5.1063695,-2.0683088,-9.476156,6.548866,-19.936453,17.955624,10.743483,-4.812255,4.975986,4.117807,-6.468723
119,2285347961,36.483124,-56.857555,90.874886,8.541529,5.243981,-2.07515,-9.152563,4.49924,-22.278532,18.097983,10.830883,-4.846841,4.823443,4.192794,-6.840032
120,2285364628,36.531204,-56.326645,90.828064,8.391811,5.4469037,-2.1088715,-8.167746,1.9088717,-24.945745,18.237847,10.921665,-4.881989,4.687314,4.224609,-7.255794
121,2285381295,36.63585,-55.723827,90.73091,8.181821,5.759216,-2.168741,-5.806996,-1.6221508,-27.999653,18.374211,11.017652,-4.918135,4.590531,4.197573,-7.722455
122,2285397962,36.714333,-55.073936,90.5841,7.9604936,6.0763774,-2.2581,-3.6167989,-4.770659,-31.26212,18.506886,11.118925,-4.95577,4.530251,4.118062,-8.24349
123,2285414629,36.763298,-54.377,90.38439,7.729933,6.393048,-2.3795233,-1.7093906,-7.4783587,-34.739555,18.635718,11.225476,-4.995429,4.501761,3.993423,-8.822483
124,2285431296,36.840134,-53.604603,90.13059,7.4463367,6.8001466,-2.5319295,1.3086478,-10.739739,-38.58017,18.759824,11.338812,-5.037628,4.523572,3.814427,-9.465486
125,2285447963,36.926544,-52.760048,89.8209,7.119138,7.276666,-2.71758,5.1154537,-14.270855,-42.755695,18.878476,11.46009,-5.082921,4.60883,3.576579,-10.178081
126,2285464630,36.95684,-52.017384,89.58018,6.849763,7.5293345,-2.8176787,6.818663,-16.291933,-44.91587,18.992639,11.585579,-5.129882,4.722474,3.305047,-10.926679
127,2285481297,36.929802,-51.388435,89.41977,6.6418324,7.541264,-2.8211026,6.3230095,-16.734339,-44.844547,19.103336,11.711267,-5.1769,4.827857,3.026141,-11.674088
128,2285497964,36.8627,-50.79163,89.27859,6.4529343,7.437346,-2.786285,4.7880907,-16.234945,-43.63004,19.210885,11.835223,-5.223338,4.907659,2.755559,-12.401255
129,2285514631,36.737305,-50.27433,89.191765,6.3096757,7.137505,-2.6796496,1.4521371,-14.307451,-40.599987,19.316046,11.954181,-5.267999,4.931861,2.517101,-13.077921
130,2285531298,36.605247,-49.726143,89.08442,6.1408143,6.835624,-2.5714533,-1.6496133,-12.22911,-37.154217,19.418393,12.068108,-5.310857,4.904367,2.313283,-13.697158
131,2285547965,36.46624,-49.140366,88.952286,5.942453,6.540276,-2.465671,-4.4209747,-10.02967,-33.34893,19.517434,12.177113,-5.351952,4.830684,2.146122,-14.252974
132,2285564632,36.277588,-48.613342,88.86397,5.7729464,6.083919,-2.2973094,-8.536734,-6.6342945,-27.875692,19.61365,12.278512,-5.39024,4.688405,2.03555,-14.717569
133,2285581299,36.048424,-48.122356,88.80465,5.617303,5.504947,-2.0801249,-13.578098,-2.285515,-20.993917,19.707272,12.370261,-5.424909,4.462103,1.997458,-15.067468
134,2285597966,35.880486,-47.643425,88.79737,5.5024056,5.1179376,-1.9563584,-16.548962,1.5264148,-16.550333,19.798979,12.45556,-5.457515,4.186287,2.022898,-15.343307
135,2285614633,35.77742,-47.18786,88.85508,5.4386744,4.930527,-1.9304338,-17.367819,4.810153,-14.724098,19.889624,12.537735,-5.489689,3.896823,2.103067,-15.588709
136,2285631300,35.696022,-46.753242,88.95903,5.403915,4.817529,-1.9431684,-17.174759,8.131077,-13.839834,19.979689,12.618027,-5.522075,3.610577,2.238585,-15.819373
137,2285647967,35.662888,-46.338,89.12046,5.4086423,4.8604894,-2.031559,-15.180264,11.122793,-14.919113,20.069833,12.699035,-5.555934,3.357573,2.423965,-16.068025
138,2285664634,35.605408,-45.982613,89.34629,5.453187,4.8303685,-2.0950534,-13.565042,14.970797,-15.351267,20.160719,12.779541,-5.590852,3.131489,2.673478,-16.323879
139,2285681301,35.519318,-45.69019,89.63895,5.5378284,4.715305,-2.127991,-12.4195795,19.747267,-14.9881115,20.253016,12.858129,-5.626319,2.924496,3.002599,-16.573681
140,2285697968,35.463524,-45.44179,90.007866,5.6732335,4.699184,-2.2120676,-9.969309,24.561363,-16.012873,20.34757,12.936449,-5.663187,2.758341,3.411955,-16.840562
141,2285714635,35.422493,-45.248535,90.457855,5.8612356,4.7336183,-2.3259373,-6.6590614,29.678514,-17.879843,20.445257,13.015343,-5.701953,2.647357,3.906597,-17.138559
142,2285731302,35.407997,-44.983246,91.03073,5.9825115,4.7080817,-2.4152515,-4.9143057,35.228237,-18.55407,20.544966,13.093811,-5.742207,2.565452,4.493734,-17.447793
143,2285747969,35.42872,-44.634003,91.73632,6.028833,4.634681,-2.484916,-4.7443795,41.128475,-18.120945,20.645447,13.171056,-5.783622,2.486379,5.179209,-17.749809
144,2285764636,35.46895,-44.270844,92.562355,6.0596123,4.5335097,-2.5464084,-5.2905436,47.50972,-17.188272,20.746441,13.246614,-5.826062,2.398203,5.971038,-18.03628
145,2285781303,35.534607,-43.858982,93.52511,6.042858,4.3802876,-2.587469,-7.171108,54.38717,-15.270929,20.847155,13.319619,-5.869186,2.278685,6.877491,-18.290795
146,2285797970,35.634422,-43.47032,94.60874,6.052587,4.287461,-2.6608784,-8.4972105,61.472984,-14.126835,20.948031,13.391077,-5.913534,2.137065,7.902041,-18.526242
147,2285814637,35.76866,-43.111546,95.81789,6.094473,4.2589555,-2.7685254,-9.186421,68.77906,-13.834818,21.049606,13.46206,-5.959676,1.983958,9.048359,-18.756822
148,2285831304,35.939423,-42.716995,97.178665,6.104249,4.2196097,-2.87429,-10.707733,76.46027,-13.12141,21.151343,13.532387,-6.007581,1.805496,10.322697,-18.975512
149,2285847971,36.149788,-42.302303,98.69275,6.097844,4.1943793,-2.9897847,-12.663513,84.45922,-12.371679,21.252974,13.602293,-6.057411,1.594437,11.730351,-19.181707
150,2285864638,36.428314,-42.00056,100.270615,6.103733,4.204695,-3.1135252,-13.31379,91.87684,-11.489742,21.354703,13.672371,-6.109303,1.37254,13.261632,-19.373203
151,2285881305,36.780296,-41.81626,101.91155,6.11615,4.246076,-3.241929,-12.661291,98.63186,-10.331461,21.456639,13.743139,-6.163335,1.161518,14.905496,-19.545394
152,2285897972,37.196266,-41.697056,103.663826,6.1319838,4.3271337,-3.384211,-11.256764,105.10307,-9.216623,21.558839,13.815258,-6.219739,0.973905,16.657214,-19.699004
153,2285914639,37.68641,-41.6782,105.5069,6.1563516,4.453362,-3.5393937,-8.651694,111.02806,-8.086737,21.661445,13.889481,-6.278729,0.82971,18.507682,-19.833783
154,2285931306,38.237015,-41.66674,107.50723,6.1562653,4.5943265,-3.699408,-6.2372036,116.96861,-6.678175,21.764049,13.966053,-6.340386,0.725757,20.457159,-19.945086
155,2285947973,38.850067,-41.658733,109.67349,6.1301093,4.7522397,-3.8652885,-4.0554175,122.93552,-5.0135894,21.866217,14.045257,-6.404807,0.658167,22.506084,-20.028646
156,2285964640,39.54328,-41.731304,111.95787,6.097623,4.947963,-4.040316,-1.0225875,128.40498,-3.1674716,21.967844,14.127723,-6.472146,0.641124,24.646167,-20.081437
157,2285981307,40.316208,-41.86567,114.3781,6.050893,5.176615,-4.2231083,2.5789075,133.47493,-1.0837078,22.068692,14.214,-6.542531,0.684106,26.870749,-20.099499
158,2285997974,40.856667,-41.915718,116.70853,5.9663544,5.3570275,-4.3157244,2.31845,136.31145,-0.31377107,22.168131,14.303284,-6.61446,0.722747,29.142606,-20.104729
159,2286014641,41.1373,-41.877163,118.92308,5.842536,5.484018,-4.308263,-2.118751,136.63504,-1.0073078,22.265507,14.394684,-6.686264,0.687434,31.419857,-20.121517
160,2286031308,41.306435,-41.806976,121.14229,5.6838956,5.593303,-4.2455792,-8.839481,135.34296,-2.3898702,22.360239,14.487906,-6.757024,0.540109,33.675573,-20.161348
161,2286047975,41.276054,-41.666695,123.30115,5.483074,5.6625915,-4.099084,-19.085224,131.85779,-4.900064,22.451624,14.582283,-6.825342,0.222022,35.873203,-20.243016
162,2286064642,41.233658,-41.561947,125.52205,5.257283,5.746493,-3.9262373,-30.01188,127.054184,-7.6700063,22.539245,14.678058,-6.890779,-0.278176,37.990773,-20.370849
163,2286081309,41.18869,-41.497475,127.81323,5.0052786,5.8477063,-3.7287846,-41.517746,120.93189,-10.649982,22.622666,14.77552,-6.952925,-0.970138,40.006305,-20.548349
164,2286097976,40.968987,-41.387245,130.05534,4.7109776,5.919336,-3.4517217,-56.140636,112.497536,-14.664946,22.701182,14.874176,-7.010454,-1.905815,41.881264,-20.792765
165,2286114643,40.610756,-41.252995,132.27208,4.3765087,5.972399,-3.1051984,-73.34243,101.86773,-19.547981,22.774124,14.973716,-7.062207,-3.128189,43.579059,-21.118565
166,2286131310,40.183464,-41.03564,134.14572,4.1338854,5.942755,-2.8518882,-83.84326,92.242775,-23.459032,22.843022,15.072762,-7.109738,-4.525577,45.116439,-21.509549
167,2286147977,39.667015,-40.717567,135.62386,3.993339,5.817042,-2.6989627,-87.08882,83.739685,-26.342796,22.909578,15.169713,-7.154721,-5.977057,46.5121,-21.948596
168,2286164644,39.047905,-40.339966,136.86696,3.8931031,5.631724,-2.574564,-87.1403,74.85606,-28.975569,22.974463,15.263575,-7.19763,-7.429395,47.759701,-22.431522
169,2286181311,38.334442,-39.881447,137.77357,3.8698134,5.3654294,-2.521521,-81.46965,66.40777,-30.881464,23.03896,15.352999,-7.239655,-8.787223,48.866497,-22.946213
170,2286197978,37.435333,-39.351803,138.4902,3.8411388,5.041449,-2.4287667,-76.16865,56.185703,-33.360836,23.102979,15.437023,-7.280134,-10.0567,49.802925,-23.502227
171,2286214645,36.341217,-38.750603,139.01668,3.8026319,4.659614,-2.2894523,-71.537125,44.01139,-36.4915,23.166356,15.514683,-7.318292,-11.248985,50.536448,-24.110419
172,2286231312,35.098587,-38.05136,139.18161,3.8277817,4.1873,-2.1955729,-62.31205,31.658564,-39.221783,23.230152,15.584471,-7.354885,-12.287519,51.064091,-24.764115
173,2286247979,33.68164,-37.252872,139.00371,3.900188,3.6266117,-2.1234808,-49.71658,18.62535,-41.83096,23.295155,15.644915,-7.390276,-13.116129,51.374514,-25.461298
174,2286264646,32.484978,-36.37108,139.08708,3.9001918,3.258102,-2.0069776,-43.393703,9.321734,-45.591633,23.360158,15.699217,-7.423726,-13.839357,51.529876,-26.221159
175,2286281313,31.54712,-35.399487,139.45645,3.82655,3.1026802,-1.8512731,-43.569866,4.405141,-50.50241,23.423934,15.750928,-7.454581,-14.565521,51.603295,-27.062866
176,2286297980,30.658974,-34.32546,139.82677,3.7259789,3.027,-1.6719844,-46.44958,1.457848,-56.15381,23.486034,15.801378,-7.482447,-15.339681,51.627592,-27.998763
177,2286314647,29.93061,-33.148403,140.35321,3.5682306,3.1081185,-1.4540188,-54.53471,1.8209008,-62.87299,23.545505,15.85318,-7.506681,-16.248593,51.65794,-29.046646
178,2286331314,29.13794,-31.846724,140.62415,3.443059,3.1721592,-1.2595564,-60.795013,3.3875983,-69.658104,23.602889,15.906049,-7.527674,-17.261843,51.7144,-30.207614
179,2286347981,28.263763,-30.414013,140.6069,3.3555083,3.208696,-1.0910134,-64.87865,6.0574384,-76.47761,23.658814,15.959527,-7.545858,-18.343154,51.815357,-31.482241
180,2286364648,27.51609,-28.856712,140.63538,3.2354684,3.372046,-0.90528476,-72.43345,12.127467,-84.11501,23.712738,16.015728,-7.560946,-19.550378,52.017481,-32.884158
181,2286381315,26.848686,-27.165741,140.6169,3.102407,3.6268764,-0.7160735,-81.981544,21.247066,-92.36678,23.764445,16.076176,-7.572881,-20.916737,52.371599,-34.423604
182,2286397982,25.952454,-25.440542,140.47997,2.9143124,3.7251263,-0.560825,-85.50878,25.608782,-99.56365,23.813017,16.138261,-7.582228,-22.341883,52.798412,-36.082998
183,2286414649,24.826805,-23.687683,140.25658,2.658512,3.6639519,-0.43921888,-82.91672,24.849243,-105.63621,23.857326,16.199327,-7.589548,-23.723828,53.212566,-37.843601
184,2286431316,23.589478,-21.850037,139.91524,2.3679347,3.5387378,-0.343776,-76.993416,22.521648,-111.2367,23.896792,16.258306,-7.595278,-25.007052,53.587927,-39.697546
185,2286447983,22.16333,-19.952969,139.44656,2.0278463,3.286416,-0.28468633,-65.65189,16.576532,-115.91472,23.930589,16.31308,-7.600023,-26.10125,53.864203,-41.629458
186,2286464650,20.782616,-17.933838,138.97134,1.6443491,3.0924892,-0.229913,-55.00079,12.250468,-120.848495,23.957995,16.364621,-7.603855,-27.01793,54.068377,-43.6436
187,2286481317,19.460464,-15.784927,138.48921,1.2183304,2.9667282,-0.17985487,-45.256775,9.894381,-126.08231,23.978301,16.414066,-7.606853,-27.77221,54.233283,-45.744972
188,2286497984,18.0159,-13.557644,137.93475,0.732389,2.7633839,-0.1599946,-31.558247,5.154996,-130.63055,23.990507,16.460122,-7.60952,-28.298181,54.3192,-47.922148
189,2286514651,16.500008,-11.236454,137.33453,0.18627644,2.522202,-0.16465807,-15.147285,-0.8398132,-134.72704,23.993612,16.502159,-7.612264,-28.550636,54.305203,-50.167599
190,2286531318,15.273308,-9.027714,136.41464,-0.20765686,2.346581,-0.17130041,-1.6422902,-4.614874,-137.21605,23.990151,16.541269,-7.615119,-28.578008,54.228288,-52.454533
191,2286547985,14.351837,-6.9578857,135.14365,-0.43253994,2.2293663,-0.18153739,9.024884,-6.375195,-137.83733,23.982942,16.578425,-7.618145,-28.427593,54.122035,-54.751822
192,2286564652,13.602371,-4.9185867,133.6706,-0.5901861,2.1489062,-0.20308924,18.706245,-7.0047846,-137.26761,23.973106,16.61424,-7.62153,-28.115822,54.005289,-57.039615
193,2286581319,13.123894,-2.9709702,131.91725,-0.6218519,2.1297479,-0.23108172,25.99687,-5.684072,-135.11438,23.962742,16.649736,-7.625381,-27.682541,53.910554,-59.291521
194,2286597986,12.664368,-1.0069275,130.02444,-0.65620327,2.0746474,-0.28705335,35.492916,-5.5298457,-131.75017,23.951805,16.684313,-7.630165,-27.090992,53.81839,-61.487357
195,2286614653,12.217651,0.97898865,128.00241,-0.7007837,1.9811907,-0.37268353,47.38926,-6.653095,-127.16753,23.940125,16.717333,-7.636376,-26.301171,53.707505,-63.606816
196,2286631320,11.998688,2.8768196,125.71121,-0.63962173,1.918438,-0.47373366,58.208603,-6.8250303,-120.79118,23.929465,16.749307,-7.644272,-25.331028,53.593754,-65.620002
197,2286647987,11.959915,4.7058945,123.17819,-0.49850273,1.8659468,-0.5955179,68.929825,-6.716832,-112.64422,23.921157,16.780406,-7.654197,-24.182198,53.481807,-67.497406
198,2286664654,11.621895,6.452942,121.03436,-0.4297285,1.7414317,-0.67095304,74.83754,-6.072157,-105.7512,23.913995,16.80943,-7.66538,-22.934906,53.380604,-69.259926
199,2286681321,10.968224,8.0969925,119.3215,-0.43146896,1.5440416,-0.692245,75.03743,-4.6268206,-100.27475,23.906804,16.835164,-7.676917,-21.684282,53.30349,-70.931172
200,2286697988,10.197746,9.651871,117.75812,-0.44706726,1.2981782,-0.69512284,72.39775,-2.9736903,-94.74531,23.899353,16.8568,-7.688502,-20.477653,53.253928,-72.51026
201,2286714655,9.18478,11.104195,116.5175,-0.5135889,0.98182535,-0.6602305,65.424934,-0.9820284,-89.95452,23.890793,16.873164,-7.699506,-19.387237,53.237561,-74.009502
202,2286731322,8.270546,12.426376,115.19728,-0.51058674,0.66074514,-0.6233933,55.898388,1.7776346,-83.9265,23.882283,16.884176,-7.709896,-18.455597,53.267188,-75.408277
203,2286747989,7.4735413,13.610847,113.7778,-0.43081188,0.33596182,-0.5869316,43.913517,5.2697816,-76.504265,23.875103,16.889775,-7.719678,-17.723705,53.355018,-76.683348
204,2286764656,6.5158615,14.653313,112.612854,-0.3645277,-0.045093536,-0.5155922,27.17136,9.408866,-69.33802,23.869028,16.889023,-7.728271,-17.270849,53.511832,-77.838982
205,2286781323,5.4694443,15.540642,111.622665,-0.2847824,-0.46980047,-0.41623676,5.9205174,14.292404,-61.98982,23.864282,16.881193,-7.735208,-17.172174,53.750039,-78.872146
206,2286797990,4.7089767,16.454697,110.71863,-0.23707867,-0.80957437,-0.35760677,-7.5877256,17.582077,-55.144382,23.860331,16.8677,-7.741168,-17.298636,54.043074,-79.791219
207,2286814657,4.2368736,17.405136,109.94452,-0.2357359,-1.0586925,-0.34090137,-12.591548,19.067167,-49.078457,23.856402,16.850055,-7.74685,-17.508495,54.36086,-80.609193
208,2286831324,3.9245033,18.290016,109.29678,-0.2400732,-1.2700527,-0.33729744,-14.838713,19.93314,-43.175045,23.852401,16.828887,-7.752472,-17.755807,54.693079,-81.328777
209,2286847991,3.8684998,19.154808,108.771484,-0.2656088,-1.4091587,-0.36412644,-11.035548,19.529877,-37.70055,23.847974,16.805401,-7.758541,-17.939733,55.018577,-81.95712
210,2286864658,3.7799606,19.882278,108.5226,-0.30798054,-1.5657616,-0.37147152,-9.015074,19.182589,-32.670567,23.842841,16.779305,-7.764732,-18.089984,55.338287,-82.501629
211,2286881325,3.6482582,20.458092,108.56477,-0.36483002,-1.7440124,-0.35604334,-9.283621,18.980007,-28.078154,23.83676,16.750238,-7.770666,-18.244711,55.65462,-82.969598
212,2286897992,3.7010002,20.976425,108.82921,-0.45284462,-1.8689859,-0.35710907,-5.0894313,17.688562,-24.184856,23.829213,16.719088,-7.776618,-18.329535,55.949429,-83.372679
213,2286914659,3.8788948,21.407951,109.360214,-0.5718851,-1.9589477,-0.3636185,1.9261905,15.574014,-21.030273,23.819682,16.686439,-7.782678,-18.297432,56.208996,-83.723184
214,2286931326,4.0478325,21.808594,109.71773,-0.67539597,-2.070299,-0.37401676,5.3638926,14.174672,-17.537613,23.808425,16.651934,-7.788912,-18.208034,56.445241,-84.015478
215,2286947993,4.2235985,22.193146,109.86307,-0.7630825,-2.19842,-0.39271414,5.5010557,13.458222,-13.691734,23.795707,16.615294,-7.795457,-18.11635,56.669545,-84.243674
216,2286964660,4.4312515,22.512634,110.04555,-0.8584509,-2.3280287,-0.41273665,4.31078,12.852052,-10.0765,23.781399,16.576494,-7.802336,-18.044504,56.883746,-84.411616
217,2286981327,4.641987,22.784813,110.14723,-0.9506731,-2.4715908,-0.434937,0.28233504,12.722867,-6.442892,23.765554,16.535301,-7.809585,-18.039798,57.095794,-84.518998
218,2286997994,4.996361,22.995369,110.420944,-1.0721083,-2.5756345,-0.46987462,-1.0953776,11.837508,-3.5364776,23.747686,16.492374,-7.817416,-18.058054,57.293086,-84.577939
219,2287014661,5.5001945,23.139885,110.8936,-1.2264977,-2.6372628,-0.5173682,0.44768274,10.115949,-1.4551909,23.727244,16.44842,-7.826039,-18.050593,57.461685,-84.602192
220,2287031328,6.0614243,23.241188,111.34044,-1.3896189,-2.6926732,-0.57329893,0.952412,8.466245,0.3542058,23.704084,16.403542,-7.835594,-18.034719,57.602789,-84.596289
221,2287047995,6.7120094,23.295906,111.81926,-1.5697002,-2.7295003,-0.64014375,1.6367427,6.6068974,1.6949513,23.677922,16.35805,-7.846263,-18.00744,57.712904,-84.56804
222,2287064662,7.2865906,23.336594,112.30661,-1.6836262,-2.7739878,-0.69235134,2.0935917,5.0875416,2.9634845,23.649862,16.311817,-7.857802,-17.972547,57.797696,-84.518649
223,2287081329,7.760792,23.370903,112.771164,-1.7209024,-2.8318133,-0.7275399,1.8766454,4.0554476,4.2392,23.62118,16.26462,-7.869928,-17.94127,57.865287,-84.447996
224,2287097996,8.236523,23.382141,113.263245,-1.7270575,-2.8811545,-0.75986254,2.0593772,3.0453079,5.171842,23.592396,16.216601,-7.882592,-17.906947,57.916042,-84.361799
225,2287114663,8.665417,23.381935,113.76625,-1.6778374,-2.929802,-0.78235877,2.4394774,2.2345738,5.8728833,23.564432,16.167771,-7.895631,-17.866289,57.953285,-84.263918
226,2287131330,9.121159,23.357147,114.240814,-1.6166258,-2.9706764,-0.8089373,2.2859626,1.5171657,6.1984234,23.537488,16.11826,-7.909113,-17.82819,57.978571,-84.160611
227,2287147997,9.61124,23.308739,114.6861,-1.5463524,-3.0016274,-0.8409234,1.6890389,0.8595166,6.1025476,23.511715,16.068233,-7.923128,-17.800039,57.992896,-84.058902
228,2287164664,10.055832,23.255165,115.10278,-1.423521,-3.0328426,-0.8654219,0.8270258,0.47571647,5.745271,23.48799,16.017686,-7.937552,-17.786255,58.000825,-83.963147
229,2287181331,10.469437,23.195702,115.47861,-1.2563915,-3.062516,-0.8854461,-0.44479394,0.34703994,5.081608,23.46705,15.966644,-7.952309,-17.793668,58.006609,-83.878454
230,2287197998,10.716011,23.142693,115.698456,-1.1588278,-3.0662775,-0.9167323,-1.1429608,-0.0068816766,4.489098,23.447736,15.915539,-7.967588,-17.812717,58.006494,-83.803636
231,2287214665,10.767738,23.102219,115.74362,-1.1351786,-3.0433495,-0.95905995,-1.1945728,-0.5876147,4.023757,23.428816,15.864817,-7.983572,-17.832627,57.9967,-83.736573
232,2287231332,10.694969,23.070496,115.65398,-1.1360836,-3.0040913,-1.006946,-1.182405,-1.1681969,3.4717176,23.409881,15.814749,-8.000354,-17.852334,57.97723,-83.678711
233,2287247999,10.451527,23.054,115.39003,-1.191288,-2.9422004,-1.0642568,-0.85542977,-1.8618778,2.9468331,23.390026,15.765712,-8.018092,-17.866591,57.946199,-83.629597
234,2287264666,10.092274,23.05407,115.011475,-1.2225313,-2.8738127,-1.1186689,-0.7109908,-2.330828,2.2516055,23.36965,15.717815,-8.036736,-17.878441,57.907352,-83.59207
235,2287281333,9.614979,23.073753,114.51222,-1.2250643,-2.7998676,-1.16957,-0.8173632,-2.5412192,1.3731768,23.349232,15.671151,-8.056229,-17.892064,57.864998,-83.569184
236,2287298000,8.946098,23.120453,113.821594,-1.2632637,-2.706947,-1.2263161,-0.72408235,-2.748501,0.5141047,23.328178,15.626035,-8.076668,-17.904132,57.81919,-83.560616
237,2287314667,8.090054,23.197357,112.943756,-1.320447,-2.5984461,-1.2862396,-0.55179554,-2.8700426,-0.3623013,23.306171,15.582728,-8.098105,-17.913329,57.771356,-83.566654
238,2287331334,7.4995537,23.241692,112.33627,-1.3475428,-2.516678,-1.3269557,-0.47454298,-2.8949914,-0.98191464,23.283712,15.540783,-8.120221,-17.921238,57.723106,-83.583019
239,2287348001,7.2029686,23.251022,112.02846,-1.3478365,-2.4642112,-1.347237,-0.45572752,-2.8452613,-1.2811711,23.261248,15.499713,-8.142675,-17.928833,57.675685,-83.604372
240,2287364668,6.9830246,23.259918,111.80025,-1.3333969,-2.4234295,-1.3557035,-0.5010684,-2.661259,-1.4039943,23.239025,15.459323,-8.16527,-17.937184,57.631331,-83.627772
241,2287381335,6.9608307,23.253098,111.77429,-1.2927961,-2.4060197,-1.3461354,-0.64469105,-2.3425004,-1.2536764,23.217478,15.419223,-8.187706,-17.947929,57.592289,-83.648667
242,2287398002,6.8459396,23.273216,111.6561,-1.2710829,-2.3841624,-1.3337364,-0.69275105,-1.9448396,-0.9245608,23.196293,15.379487,-8.209935,-17.959475,57.559875,-83.664076
243,2287414669,6.6178513,23.325562,111.42482,-1.2699156,-2.356833,-1.3188877,-0.64468086,-1.4580268,-0.408683,23.175128,15.340206,-8.231916,-17.97022,57.535575,-83.670887
244,2287431336,6.525177,23.377129,111.3327,-1.2575197,-2.3483639,-1.2883728,-0.62395495,-0.851133,0.43998355,23.154169,15.301067,-8.253389,-17.980619,57.521389,-83.663554
245,2287448003,6.5058365,23.438782,111.31677,-1.2436895,-2.3534033,-1.2450309,-0.59011,-0.13078697,1.6189753,23.133441,15.261844,-8.27414,-17.990454,57.519209,-83.636571
246,2287464670,6.406307,23.475693,111.20987,-1.2308722,-2.349476,-1.2157834,-0.5017725,0.26932406,2.322712,23.112926,15.222686,-8.294403,-17.998817,57.523698,-83.597859
247,2287481337,6.244236,23.481453,111.02867,-1.2160625,-2.3380003,-1.2013282,-0.36624414,0.30993378,2.5082295,23.092658,15.183719,-8.314425,-18.004921,57.528864,-83.556055
248,2287498004,6.0516777,23.481117,110.81111,-1.2051344,-2.326603,-1.1905345,-0.17395842,0.1924482,2.5712395,23.072572,15.144942,-8.334267,-18.00782,57.532071,-83.513201
249,2287514671,5.7960396,23.46431,110.5208,-1.1981153,-2.3103223,-1.1903427,0.08538127,-0.20685296,2.3017008,23.052603,15.106437,-8.354106,-18.006397,57.528623,-83.474839
250,2287531338,5.6304893,23.445251,110.31972,-1.1855555,-2.3093944,-1.1811969,0.35420096,-0.6229519,2.2283912,23.032844,15.067947,-8.373793,-18.000494,57.51824,-83.437699
251,2287548005,5.562004,23.426216,110.21515,-1.1680098,-2.3252788,-1.1619499,0.634797,-1.0443959,2.3950586,23.013377,15.029192,-8.393159,-17.989914,57.500833,-83.397781
252,2287564672,5.4896355,23.39109,110.09837,-1.1501875,-2.3441954,-1.1482232,0.965798,-1.7151725,2.362608,22.994207,14.990122,-8.412296,-17.973817,57.472247,-83.358404
253,2287581339,5.448471,23.343025,110.00618,-1.1302385,-2.3710115,-1.1357995,1.3368,-2.5851552,2.2495775,22.97537,14.950605,-8.431226,-17.951537,57.429161,-83.320911
254,2287598006,5.3538094,23.315079,109.86525,-1.118679,-2.3860893,-1.1267445,1.5851296,-3.0388184,2.158832,22.956725,14.910837,-8.450005,-17.925118,57.378514,-83.28493
255,2287614673,5.1889343,23.30803,109.658875,-1.1168833,-2.3863826,-1.1231984,1.6990594,-3.0521848,2.0473094,22.93811,14.871064,-8.468725,-17.8968,57.327644,-83.250808
256,2287631340,5.0205574,23.308212,109.449295,-1.1185904,-2.3849554,-1.1213661,1.7486137,-2.8879178,1.9486055,22.919467,14.831315,-8.487414,-17.867656,57.279512,-83.218331
257,2287648007,4.8238564,23.32405,109.21452,-1.1268082,-2.3761277,-1.1224643,1.6881646,-2.3842728,1.8759493,22.900687,14.791713,-8.506122,-17.83952,57.239774,-83.187065
258,2287664674,4.624771,23.332611,108.97157,-1.1370344,-2.3684194,-1.1293494,1.6240841,-1.9683555,1.6643707,22.881736,14.752239,-8.524944,-17.812452,57.206968,-83.159325
259,2287681341,4.42976,23.332558,108.72633,-1.1488285,-2.362996,-1.1420424,1.5604159,-1.6645163,1.3118842,22.862589,14.712856,-8.543978,-17.786445,57.179226,-83.13746
260,2287698008,4.204632,23.342514,108.45137,-1.1671009,-2.3506608,-1.1604611,1.4030613,-1.1211134,0.9073502,22.843137,14.673678,-8.563319,-17.763061,57.160541,-83.122337
261,2287714675,3.9557076,23.357521,108.15097,-1.1909752,-2.3332624,-1.1854672,1.1724042,-0.4283026,0.41307858,22.823287,14.63479,-8.583077,-17.743521,57.153403,-83.115452
262,2287731342,3.7519188,23.372742,107.8963,-1.2049942,-2.3223977,-1.2007139,1.0838352,-0.018562175,0.095419526,22.803204,14.596083,-8.603089,-17.725457,57.153094,-83.113862
263,2287748009,3.594658,23.39003,107.68968,-1.2084236,-2.3177872,-1.2049878,1.1449195,0.109771535,-0.014852077,22.783064,14.557453,-8.623172,-17.706375,57.154924,-83.11411
264,2287764676,3.4553146,23.408424,107.50003,-1.2081051,-2.315044,-1.206904,1.2657682,0.10087019,-0.0730955,22.762929,14.518869,-8.643287,-17.685279,57.156605,-83.115328
265,2287781343,3.3513718,23.427307,107.34567,-1.1999426,-2.3168967,-1.2021078,1.5028495,-0.15503679,-0.0047100186,22.74293,14.480254,-8.663322,-17.660232,57.154021,-83.115407
266,2287798010,3.2356644,23.454346,107.17975,-1.1942215,-2.3143377,-1.2003503,1.704302,-0.31632107,0.057108223,22.723026,14.441682,-8.683328,-17.631827,57.148749,-83.114455
267,2287814677,3.1053429,23.489777,106.9993,-1.1915512,-2.306752,-1.2025142,1.8618139,-0.36987352,0.098997235,22.703167,14.403236,-8.70337,-17.600797,57.142584,-83.112805
268,2287831344,2.9986382,23.529526,106.843124,-1.183281,-2.3007934,-1.2000602,2.0995388,-0.5799723,0.252206,22.683446,14.364889,-8.723371,-17.565805,57.132918,-83.108602
269,2287848011,2.9054222,23.575432,106.70122,-1.1715679,-2.294393,-1.1951494,2.3854795,-0.8754858,0.4886621,22.66392,14.326649,-8.74329,-17.526047,57.118327,-83.100458
270,2287864678,2.8122902,23.608719,106.55632,-1.1629801,-2.2886837,-1.1945397,2.5214548,-0.9814938,0.65732116,22.644537,14.288504,-8.763199,-17.484023,57.101969,-83.089503
271,2287881345,2.7226944,23.627403,106.41167,-1.1570196,-2.284441,-1.1978023,2.5032887,-0.902719,0.76285696,22.625253,14.25043,-8.783162,-17.442302,57.086924,-83.076789
272,2287898012,2.6361732,23.641792,106.2688,-1.1519785,-2.2795959,-1.2032095,2.4030085,-0.721215,0.8597923,22.606053,14.212437,-8.803215,-17.402252,57.074904,-83.062459
273,2287914679,2.550434,23.646645,106.124435,-1.1493387,-2.274601,-1.2123358,2.1685367,-0.36766934,0.91271,22.586897,14.174527,-8.823421,-17.36611,57.068776,-83.047247
274,2287931346,2.4830933,23.651962,105.99869,-1.1430044,-2.2703137,-1.2192007,1.9466211,-0.071854725,1.0431668,22.567847,14.136688,-8.843741,-17.333666,57.067578,-83.029861
275,2287948013,2.4346886,23.658562,105.89229,-1.1326895,-2.2665358,-1.2235825,1.7426914,0.15885648,1.2589965,22.548969,14.098912,-8.864134,-17.304621,57.070226,-83.008878
276,2287964680,2.3949242,23.656883,105.79294,-1.1226044,-2.2632356,-1.229748,1.4381181,0.4984833,1.4715314,22.530259,14.061191,-8.88463,-17.280652,57.078534,-82.984352
277,2287981347,2.3678818,23.648918,105.70528,-1.1113768,-2.260559,-1.236404,1.062589,0.89941615,1.7086089,22.511736,14.023515,-8.905237,-17.262942,57.093524,-82.955875
278,2287998014,2.3843727,23.64637,105.67116,-1.1068363,-2.26047,-1.2400566,0.79085886,1.1645571,1.930823,22.493289,13.985841,-8.925905,-17.249761,57.112933,-82.923695
279,2288014681,2.447033,23.648933,105.69403,-1.1101761,-2.263235,-1.2407969,0.6247932,1.2949793,2.1254623,22.474786,13.94812,-8.946585,-17.239348,57.134516,-82.888271
280,2288031348,2.5447807,23.652313,105.75815,-1.1167097,-2.2680607,-1.2393396,0.5009196,1.3515803,2.3316984,22.456174,13.910319,-8.967241,-17.230999,57.157042,-82.849409
281,2288048015,2.6868172,23.659256,105.875854,-1.1287699,-2.2755759,-1.2347697,0.4641943,1.283718,2.536531,22.437361,13.872393,-8.98782,-17.223262,57.178437,-82.807133
282,2288064682,2.8533401,23.66047,106.02057,-1.1428652,-2.2845855,-1.2301772,0.38071132,1.2523185,2.7423432,22.418313,13.834317,-9.008323,-17.216917,57.199309,-82.761427
283,2288081349,3.044571,23.655312,106.1924,-1.1587057,-2.2951155,-1.2255636,0.24459457,1.2622087,2.9523776,22.399001,13.796065,-9.028749,-17.21284,57.220346,-82.712221
284,2288098016,3.2791862,23.650642,106.416214,-1.1801491,-2.3083787,-1.2185585,0.16112483,1.1891838,3.1538231,22.379332,13.757592,-9.049058,-17.210155,57.240166,-82.659657
285,2288114683,3.554119,23.644325,106.68773,-1.2065516,-2.3242087,-1.2097439,0.10226333,1.0660598,3.3472824,22.359223,13.718855,-9.06922,-17.208451,57.257934,-82.603869
286,2288131350,3.7373314,23.635887,106.85678,-1.2287626,-2.337784,-1.205408,0.08803928,0.90172434,3.4543142,22.338744,13.679892,-9.08931,-17.206984,57.272963,-82.546297
287,2288148017,3.8187141,23.625923,106.91246,-1.246542,-2.348854,-1.205865,0.13380802,0.6811616,3.4637399,22.317968,13.640744,-9.109408,-17.204754,57.284316,-82.488568
288,2288164684,3.8591423,23.613106,106.9236,-1.2639236,-2.3596578,-1.2085068,0.2119242,0.42109627,3.4117165,22.296903,13.601416,-9.12955,-17.201222,57.291334,-82.431706
289,2288181351,3.8219147,23.597397,106.84865,-1.2785921,-2.3689213,-1.2150359,0.3326329,0.11869048,3.273597,22.275593,13.561934,-9.149801,-17.195678,57.293312,-82.377146
290,2288198018,3.78936,23.580666,106.78232,-1.2969666,-2.3798687,-1.221102,0.5130787,-0.2663688,3.0910292,22.253977,13.52227,-9.170153,-17.187127,57.288873,-82.325629
291,2288214685,3.765644,23.562744,106.72957,-1.3195086,-2.392723,-1.2265106,0.7538141,-0.73584497,2.8638792,22.231985,13.482391,-9.190595,-17.174563,57.276609,-82.277898
292,2288231352,3.6771011,23.542656,106.606384,-1.341095,-2.4047923,-1.2349288,1.0574952,-1.2745891,2.5475676,22.209633,13.442311,-9.211177,-17.156938,57.255366,-82.235439
293,2288248019,3.5399323,23.52073,106.43161,-1.3631535,-2.4167733,-1.2454805,1.4299952,-1.8934956,2.1479871,22.186914,13.402031,-9.231935,-17.133105,57.223808,-82.199639
294,2288264686,3.3923492,23.500671,106.23688,-1.3664246,-2.4252005,-1.2588149,1.7413551,-2.3180268,1.8142738,22.16414,13.361611,-9.252915,-17.104082,57.185174,-82.169401
295,2288281353,3.2270203,23.482742,106.0128,-1.3483248,-2.429369,-1.2755195,1.982318,-2.5219655,1.5526177,22.141668,13.321122,-9.274174,-17.071043,57.143141,-82.143524
296,2288298020,3.0350342,23.465454,105.75523,-1.3188543,-2.4313562,-1.2947701,2.2208009,-2.6442547,1.293748,22.119687,13.280599,-9.295754,-17.03403,57.09907,-82.121962
297,2288314687,2.822754,23.449821,105.468094,-1.2722244,-2.4300334,-1.3169593,2.4222994,-2.6076722,1.0762041,22.098483,13.240098,-9.317703,-16.993658,57.055609,-82.104025
298,2288331354,2.5467033,23.433395,105.10898,-1.2182112,-2.4266884,-1.3427669,2.6655636,-2.5691197,0.79793465,22.078179,13.199653,-9.340082,-16.949232,57.01279,-82.090726
299,2288348021,2.2031898,23.416115,104.67413,-1.1572094,-2.4213607,-1.3722827,2.9576612,-2.538506,0.45125356,22.058892,13.159297,-9.362953,-16.899938,56.970482,-82.083205
300,2288364688,1.8171959,23.400139,104.18562,-1.0789728,-2.4123216,-1.4056301,3.2302527,-2.369059,0.11923066,22.040909,13.119092,-9.38638,-16.8461,56.930998,-82.081218
301,2288381355,1.3772774,23.385048,103.631836,-0.9851532,-2.3997242,-1.4430816,3.500856,-2.0918188,-0.22084373,22.02449,13.079097,-9.410431,-16.787752,56.896134,-82.084899
302,2288398022,1.0972404,23.385529,103.25328,-0.9289541,-2.3855686,-1.4711957,3.6924653,-1.7163317,-0.43888628,22.009007,13.039338,-9.434951,-16.726211,56.867528,-82.092214
303,2288414689,0.9994087,23.403435,103.074104,-0.91393375,-2.369664,-1.4887834,3.7882857,-1.2205343,-0.5114922,21.993775,12.999844,-9.459764,-16.663073,56.847186,-82.100739
304,2288431356,0.97361755,23.431686,102.97113,-0.91573906,-2.351017,-1.5024718,3.8360066,-0.6165985,-0.51512796,21.978513,12.96066,-9.484805,-16.59914,56.836909,-82.109324
305,2288448023,1.080761,23.474709,103.0124,-0.94890404,-2.3299851,-1.5085043,3.8101463,0.10269864,-0.40884155,21.962698,12.921827,-9.509947,-16.535638,56.838621,-82.116138
306,2288464690,1.201477,23.524803,103.061966,-0.9795675,-2.304768,-1.5148157,3.737955,0.98553216,-0.24673736,21.946372,12.883414,-9.535194,-16.473339,56.855047,-82.12025
307,2288481357,1.3283348,23.581787,103.11115,-1.0058594,-2.275097,-1.5218862,3.6203203,2.0385783,-0.031418383,21.929608,12.845496,-9.560559,-16.413,56.889023,-82.120774
308,2288498024,1.575203,23.653702,103.28837,-1.0574255,-2.2420452,-1.5224315,3.4190073,3.2499683,0.30273226,21.911984,12.808129,-9.585933,-16.356017,56.943189,-82.115728
309,2288514691,1.918869,23.739304,103.56682,-1.1274099,-2.2050815,-1.5180304,3.1370664,4.636144,0.74767876,21.893194,12.771378,-9.611234,-16.303733,57.020458,-82.103267
310,2288531358,2.2488136,23.800858,103.82033,-1.1777191,-2.1831539,-1.512461,3.061038,5.4991093,1.1158159,21.873565,12.734992,-9.636442,-16.252716,57.11211,-82.08467
311,2288548025,2.5720367,23.83603,104.056274,-1.2087555,-2.1781986,-1.5049894,3.2114644,5.77337,1.4015515,21.853419,12.698689,-9.661525,-16.199192,57.208333,-82.061311
312,2288564692,2.9283028,23.86213,104.31952,-1.2343292,-2.1808531,-1.4947171,3.4526877,5.8035,1.6921371,21.832847,12.662341,-9.686437,-16.141647,57.305058,-82.033109
313,2288581359,3.2935982,23.86898,104.58229,-1.245079,-2.196553,-1.4822663,3.8630419,5.392416,1.9403269,21.812096,12.625732,-9.711141,-16.077263,57.394932,-82.00077
314,2288598026,3.7648926,23.880959,104.95433,-1.2712355,-2.2144947,-1.4633669,4.263909,4.946605,2.2765856,21.790909,12.588824,-9.73553,-16.006198,57.477375,-81.962827
315,2288614693,4.3499603,23.89952,105.44403,-1.3144617,-2.2341275,-1.4376483,4.6444407,4.4892254,2.7116334,21.769001,12.551589,-9.759491,-15.928791,57.552195,-81.917633
316,2288631360,4.982998,23.90361,105.97606,-1.3519802,-2.2657452,-1.4075525,5.162228,3.6417258,3.1418307,21.746468,12.513827,-9.78295,-15.842754,57.61289,-81.865269
317,2288648027,5.6877823,23.89827,106.57692,-1.3904495,-2.30731,-1.3719497,5.7807627,2.4833984,3.5970757,21.723294,12.475372,-9.805816,-15.746408,57.65428,-81.805318
318,2288664694,6.1922226,23.899857,106.976364,-1.4160633,-2.330891,-1.3454064,6.1245966,1.6483787,3.7938688,21.699693,12.436524,-9.828239,-15.644331,57.681753,-81.742087
319,2288681361,6.4637413,23.907097,107.14093,-1.4248829,-2.3353157,-1.3294466,6.178004,1.1419535,3.6914783,21.675945,12.397602,-9.850396,-15.541364,57.700786,-81.680562
320,2288698028,6.648857,23.91539,107.21825,-1.4280682,-2.3326585,-1.3162462,6.094947,0.7093105,3.443954,21.652144,12.358724,-9.872333,-15.439782,57.712608,-81.623163
321,2288714695,6.6687737,23.928368,107.12976,-1.4209509,-2.3155582,-1.3099064,5.7752223,0.5089086,2.9657087,21.628461,12.320131,-9.894165,-15.343528,57.72109,-81.573735
322,2288731362,6.667,23.930862,107.01549,-1.4057903,-2.3031507,-1.3023707,5.4777994,0.0658708,2.3950825,21.605031,12.281745,-9.915871,-15.252231,57.722188,-81.533817
323,2288748029,6.652996,23.92205,106.88492,-1.3831053,-2.296544,-1.2930226,5.2146816,-0.6496002,1.7388748,21.581979,12.243469,-9.937421,-15.16532,57.711361,-81.504836
324,2288764696,6.4843483,23.912231,106.597595,-1.3473511,-2.2798767,-1.2894899,4.769264,-1.2696689,0.84886277,21.559523,12.205471,-9.958912,-15.085832,57.6902,-81.490688
325,2288781363,6.188446,23.897903,106.18013,-1.2986727,-2.257182,-1.2901328,4.19419,-1.8994936,-0.25143206,21.537878,12.167851,-9.980414,-15.015929,57.658542,-81.494879
326,2288798030,5.9269295,23.891052,105.81032,-1.2623663,-2.2374077,-1.2958415,3.7364454,-2.4049,-0.9766971,21.516839,12.130561,-10.002011,-14.953655,57.61846,-81.511157
327,2288814697,5.692524,23.89376,105.482635,-1.2395821,-2.2193737,-1.3078859,3.3912206,-2.730159,-1.2945685,21.496179,12.093571,-10.023809,-14.897135,57.572957,-81.532733
328,2288831364,5.4226837,23.897705,105.12648,-1.2179832,-2.2014747,-1.3249358,3.0749264,-3.0118017,-1.4713454,21.475879,12.05688,-10.045891,-14.845886,57.52276,-81.557255
329,2288848031,5.1534576,23.90644,104.78252,-1.2040691,-2.1855702,-1.3477533,2.8479743,-3.1992667,-1.3505803,21.455811,12.020454,-10.068354,-14.79842,57.469439,-81.579765
330,2288864698,4.749523,23.915405,104.30672,-1.1813421,-2.1622806,-1.3779696,2.507689,-3.2788754,-1.3161709,21.436122,11.984416,-10.09132,-14.756625,57.414791,-81.601701
331,2288881365,4.1996117,23.923882,103.687355,-1.1484003,-2.131196,-1.4158729,2.0439768,-3.256148,-1.3916758,21.416982,11.948896,-10.114918,-14.722559,57.360522,-81.624896
332,2288898032,3.597931,23.937294,103.02727,-1.1188421,-2.0983734,-1.461619,1.6078116,-3.0885885,-1.2506306,21.398335,11.913923,-10.139278,-14.695762,57.309046,-81.64574
333,2288914699,2.911415,23.95465,102.291794,-1.0889349,-2.0616558,-1.5158813,1.1548568,-2.7688046,-0.9734453,21.380186,11.879562,-10.164543,-14.676514,57.262899,-81.661964
334,2288931366,2.3817978,23.968796,101.71945,-1.0731773,-2.0375252,-1.5499012,0.7074237,-2.5302556,-0.80000484,21.3623,11.845603,-10.190375,-14.664724,57.220728,-81.675297
335,2288948033,2.0410194,23.979927,101.34336,-1.074687,-2.0281298,-1.5611602,0.2844417,-2.381079,-0.71029496,21.344389,11.811801,-10.216394,-14.659983,57.181043,-81.687135
336,2288964700,1.7495346,23.990913,101.02477,-1.0840778,-2.0240786,-1.5639427,-0.155756,-2.198794,-0.64243746,21.326321,11.778066,-10.24246,-14.662579,57.144396,-81.697842
337,2288981367,1.5775375,24.00013,100.83363,-1.1060591,-2.0301578,-1.5502398,-0.6024383,-2.0406344,-0.649691,21.307887,11.74423,-10.268297,-14.67262,57.110385,-81.70867
338,2288998034,1.4045715,24.013107,100.65403,-1.1355639,-2.0382705,-1.5370878,-1.0304497,-1.7543505,-0.5063571,21.288961,11.710259,-10.293915,-14.689794,57.081146,-81.717109
339,2289014701,1.2205734,24.030327,100.476524,-1.1722641,-2.0477753,-1.525567,-1.4419072,-1.3229039,-0.20128715,21.269423,11.676129,-10.319341,-14.713826,57.059098,-81.720464
340,2289031368,1.1482544,24.047737,100.42178,-1.2231636,-2.0669966,-1.5001183,-1.838646,-0.86703485,0.11173171,21.249037,11.641679,-10.344343,-14.74447,57.044647,-81.718602
341,2289048035,1.163929,24.066689,100.46748,-1.287591,-2.0943727,-1.4641705,-2.214507,-0.34934443,0.48414,21.227577,11.606773,-10.368746,-14.781378,57.038825,-81.710533
342,2289064702,1.0290794,24.075798,100.34855,-1.3282337,-2.1229205,-1.442702,-2.4489176,-0.1395178,0.69025373,21.20544,11.571391,-10.392791,-14.822193,57.0365,-81.699029
343,2289081369,0.7396393,24.073547,100.05842,-1.3428173,-2.1533382,-1.4359214,-2.5265663,-0.2873897,0.6935203,21.18306,11.535502,-10.416723,-14.864302,57.03171,-81.68747
344,2289098036,0.39539337,24.066277,99.71074,-1.348939,-2.1881576,-1.4340801,-2.4974399,-0.591297,0.63856524,21.160578,11.499033,-10.440624,-14.905926,57.021855,-81.676827
345,2289114703,-0.06374359,24.050644,99.23799,-1.3366079,-2.2260056,-1.4434638,-2.3238192,-1.1609681,0.45843673,21.138301,11.461933,-10.464682,-14.944656,57.002506,-81.669186
346,2289131370,-0.46565247,24.032318,98.82776,-1.3297005,-2.2733455,-1.4453409,-2.0738332,-1.8085046,0.24725811,21.116139,11.424044,-10.488771,-14.97922,56.972364,-81.665065
347,2289148037,-0.7990608,24.011688,98.49243,-1.3298111,-2.330803,-1.4386414,-1.7463112,-2.5228257,0.015452892,21.093975,11.385197,-10.512748,-15.008325,56.930317,-81.664807
348,2289164704,-1.1996994,23.982903,98.08212,-1.3164349,-2.394276,-1.4379568,-1.2705607,-3.497859,-0.34383106,21.072034,11.345292,-10.536714,-15.029501,56.872019,-81.670538
349,2289181371,-1.6295395,23.947006,97.63803,-1.2946129,-2.4654508,-1.4392091,-0.6560287,-4.6995435,-0.81230354,21.050457,11.304201,-10.560701,-15.040435,56.793693,-81.684076
350,2289198038,-2.097515,23.92839,97.156876,-1.2760344,-2.5080028,-1.4416529,-0.2914129,-5.349574,-1.1989915,21.02919,11.262401,-10.584729,-15.045292,56.704533,-81.704059
351,2289214705,-2.6204453,23.928528,96.620285,-1.2590942,-2.5180318,-1.4469328,-0.20221055,-5.4023466,-1.5033246,21.008205,11.220434,-10.608845,-15.048662,56.614494,-81.729114
352,2289231372,-3.1677742,23.936493,96.05807,-1.241499,-2.5139787,-1.4525967,-0.20737052,-5.207964,-1.8067644,20.987513,11.178534,-10.633055,-15.052118,56.527695,-81.759227
353,2289248039,-3.7466927,23.958893,95.463806,-1.225606,-2.4853978,-1.4589331,-0.4123543,-4.5563874,-2.0629156,20.967086,11.137111,-10.657371,-15.058991,56.451755,-81.793609
354,2289264706,-4.385685,23.979973,94.80188,-1.1992464,-2.4525013,-1.4700742,-0.56768835,-3.9540324,-2.4121757,20.947099,11.096236,-10.681872,-15.068452,56.385854,-81.833812
355,2289281373,-5.0839844,23.99887,94.072495,-1.1617966,-2.4164104,-1.4859968,-0.6581877,-3.4294198,-2.8653772,20.927736,11.055962,-10.706639,-15.079422,56.328697,-81.881568
356,2289298040,-5.835346,24.029266,93.28567,-1.1210165,-2.3576274,-1.5050622,-0.90004206,-2.5470135,-3.315334,20.909052,11.016668,-10.731723,-15.094423,56.286247,-81.936824
357,2289314707,-6.647011,24.067917,92.432304,-1.0740395,-2.279978,-1.5282618,-1.241659,-1.4107572,-3.7944717,20.891151,10.978668,-10.757194,-15.115117,56.262734,-82.000065
358,2289331374,-7.244774,24.09851,91.81033,-1.043334,-2.23012,-1.5414779,-1.4743536,-0.64061874,-3.8895802,20.873762,10.941499,-10.782885,-15.13969,56.252057,-82.064891
359,2289348041,-7.6027565,24.1213,91.44808,-1.0317297,-2.2096157,-1.543362,-1.607214,-0.23873614,-3.5470262,20.856567,10.904672,-10.808608,-15.166477,56.248078,-82.124008
360,2289364708,-7.856369,24.14206,91.197266,-1.0264282,-2.1984916,-1.5414083,-1.7064736,0.021975264,-2.983892,20.83946,10.86803,-10.834298,-15.194918,56.248444,-82.17374
361,2289381375,-7.928131,24.156784,91.14198,-1.0339022,-2.2088578,-1.5317016,-1.7231745,-0.015158206,-2.0774217,20.822228,10.831216,-10.859826,-15.223638,56.248191,-82.208364
362,2289398042,-7.9752464,24.17871,91.11184,-1.0428934,-2.208075,-1.5220717,-1.8363655,0.12606955,-1.0399208,20.804846,10.794415,-10.885194,-15.254244,56.250292,-82.225696
363,2289414709,-8.006542,24.208534,91.096924,-1.0524693,-2.1941545,-1.5131333,-2.055566,0.4689713,0.11829433,20.787305,10.757846,-10.910413,-15.288503,56.258108,-82.223724
364,2289431376,-7.874382,24.236412,91.25726,-1.0740023,-2.1936464,-1.4975626,-2.2522678,0.64382184,1.6159554,20.769405,10.721285,-10.935372,-15.326041,56.268838,-82.196791
365,2289448043,-7.609173,24.265251,91.55969,-1.1052704,-2.1995435,-1.4769747,-2.4666855,0.75234175,3.415738,20.750984,10.684626,-10.959988,-15.367152,56.281377,-82.139862
366,2289464710,-7.4125557,24.272491,91.78082,-1.129281,-2.2110431,-1.4650531,-2.5878592,0.8532903,4.631679,20.732163,10.647775,-10.984406,-15.410283,56.295599,-82.062667
367,2289481377,-7.2815857,24.25473,91.9232,-1.1461706,-2.2314281,-1.4620996,-2.5916638,0.9080077,5.2122283,20.71306,10.610585,-11.008774,-15.453477,56.310732,-81.975797
368,2289498044,-7.1376038,24.224586,92.0741,-1.1627655,-2.2564406,-1.4626462,-2.5595498,0.9574513,5.557714,20.693681,10.572978,-11.033151,-15.496136,56.32669,-81.883168
369,2289514711,-7.0288506,24.175232,92.17967,-1.1749716,-2.2869675,-1.4702177,-2.4568405,1.0049628,5.4295034,20.674098,10.534862,-11.057655,-15.537083,56.343439,-81.792676
370,2289531378,-6.795845,24.117165,92.415276,-1.1958094,-2.3303854,-1.4749639,-2.3165512,0.9197972,5.405363,20.654168,10.496022,-11.082238,-15.575692,56.358769,-81.702587
371,2289548045,-6.4274673,24.05095,92.792854,-1.2262049,-2.3869157,-1.4763603,-2.14406,0.70012254,5.518676,20.633731,10.45624,-11.106844,-15.611426,56.370438,-81.610609
372,2289564712,-6.0416603,23.965012,93.18188,-1.2563906,-2.4541361,-1.4823186,-1.8913274,0.4093858,5.273897,20.612791,10.415338,-11.131549,-15.642948,56.377261,-81.522711
373,2289581379,-5.601658,23.861145,93.62244,-1.2893553,-2.5340352,-1.4907508,-1.5641497,0.016521752,4.7902784,20.591302,10.373104,-11.156395,-15.669017,56.377536,-81.442873
374,2289598046,-5.292557,23.791061,93.93412,-1.3138571,-2.5832367,-1.4942513,-1.3454479,-0.2571327,4.4139004,20.569404,10.33005,-11.181299,-15.691441,56.37325,-81.369308
375,2289614713,-5.145046,23.757896,94.085144,-1.3277407,-2.5977397,-1.4930644,-1.2441171,-0.38878506,4.110816,20.547275,10.286754,-11.206183,-15.712176,56.36677,-81.300794
376,2289631380,-5.0451813,23.737938,94.1895,-1.3384743,-2.5997877,-1.4892831,-1.1755276,-0.5087413,3.7918994,20.524967,10.243424,-11.231004,-15.731768,56.358291,-81.237596
377,2289648047,-5.049019,23.745117,94.19196,-1.342576,-2.577302,-1.4810872,-1.1876607,-0.5567064,3.5312574,20.502591,10.200469,-11.255689,-15.751562,56.349013,-81.178742
378,2289664714,-5.077141,23.74604,94.16597,-1.3442717,-2.5551536,-1.4748185,-1.1611217,-0.64791363,2.993723,20.480186,10.157883,-11.280269,-15.770914,56.338214,-81.128847
379,2289681381,-5.122776,23.7387,94.118126,-1.3440065,-2.5350745,-1.47069,-1.0876372,-0.795369,2.1604788,20.457786,10.115632,-11.304781,-15.789041,56.324958,-81.092839
380,2289698048,-5.2766685,23.751862,93.96126,-1.3364887,-2.4940448,-1.4640024,-1.0674973,-0.8905041,1.2538211,20.435511,10.074065,-11.329181,-15.806833,56.310116,-81.071942
381,2289714715,-5.5245857,23.778595,93.70821,-1.3224525,-2.4371095,-1.4560895,-1.0749952,-0.95913786,0.19521452,20.41347,10.033447,-11.353449,-15.82475,56.29413,-81.068688
382,2289731382,-5.7223663,23.790428,93.50216,-1.3111591,-2.3997197,-1.4528208,-1.0264852,-1.0627632,-0.53661686,20.391617,9.993452,-11.377663,-15.841858,56.276417,-81.077632
383,2289748049,-5.8722076,23.788475,93.34103,-1.302516,-2.3820195,-1.4542516,-0.9264707,-1.1925542,-0.87564766,20.369908,9.953752,-11.401901,-15.857299,56.256541,-81.092226
384,2289764716,-6.036743,23.781776,93.16155,-1.2923717,-2.370282,-1.4585404,-0.7972734,-1.3363936,-1.1074798,20.348368,9.914247,-11.42621,-15.870587,56.234268,-81.110684
385,2289781383,-6.1825485,23.763626,92.996796,-1.2828817,-2.3733604,-1.4672384,-0.6190944,-1.5064515,-1.0930722,20.326987,9.874691,-11.450664,-15.880905,56.20916,-81.128902
386,2289798050,-6.420498,23.758263,92.73724,-1.2670813,-2.3644745,-1.4757199,-0.4658031,-1.6410078,-1.0595132,20.305869,9.835283,-11.475259,-15.888668,56.18181,-81.146561
387,2289814717,-6.76062,23.766937,92.3726,-1.2443075,-2.3420699,-1.4838791,-0.34018445,-1.7368431,-1.0280186,20.285131,9.796249,-11.49999,-15.894338,56.152863,-81.163695
388,2289831384,-7.1222,23.772095,91.98253,-1.2196779,-2.326858,-1.4953982,-0.18911421,-1.8333299,-0.76168287,20.264803,9.757468,-11.524913,-15.89749,56.122308,-81.17639
389,2289848051,-7.5322304,23.779121,91.54012,-1.1914835,-2.312973,-1.5093684,-0.028539538,-1.9159182,-0.30557668,20.244945,9.718918,-11.550069,-15.897966,56.090376,-81.181483
390,2289864718,-7.841408,23.784798,91.20153,-1.1705198,-2.299531,-1.5187923,0.08340347,-1.9043754,-0.036034226,20.225436,9.680592,-11.575382,-15.896576,56.058636,-81.182084
391,2289881385,-8.027569,23.786995,90.98935,-1.1583328,-2.2888384,-1.5234601,0.14642107,-1.7930497,0.04803428,20.20613,9.642445,-11.600773,-15.894136,56.028752,-81.181283
392,2289898052,-8.181816,23.791168,90.80921,-1.1485243,-2.2772388,-1.5261039,0.17644286,-1.6077785,0.100438476,20.186988,9.604491,-11.626208,-15.891195,56.001956,-81.179609
393,2289914719,-8.260223,23.795967,90.70693,-1.14427,-2.2651532,-1.524879,0.15788615,-1.3248049,0.02990824,20.167917,9.566738,-11.651623,-15.888564,55.979876,-81.179111
394,2289931386,-8.332516,23.79905,90.60828,-1.1403732,-2.258286,-1.5248885,0.13767862,-0.99807614,0.119793445,20.148911,9.5291,-11.677038,-15.886269,55.963241,-81.177114
395,2289948053,-8.405384,23.80085,90.50625,-1.1363811,-2.256544,-1.5263637,0.11622167,-0.626589,0.3904353,20.129971,9.491491,-11.702477,-15.884332,55.952798,-81.170607
396,2289964720,-8.404778,23.801346,90.478745,-1.1377354,-2.257659,-1.5251601,0.055997252,-0.1606133,0.62713397,20.111009,9.453863,-11.727896,-15.883399,55.950121,-81.160155
397,2289981387,-8.344452,23.800049,90.51103,-1.143426,-2.2629652,-1.5223305,-0.03417003,0.3914898,0.8947392,20.091952,9.416147,-11.753268,-15.883969,55.956646,-81.145243
398,2289998054,-8.319359,23.801788,90.50979,-1.1506033,-2.2671084,-1.5181918,-0.08421373,0.72945035,1.1069884,20.072775,9.378362,-11.778571,-15.885373,55.968804,-81.126793
399,2290014721,-8.326633,23.8068,90.47855,-1.1599045,-2.269659,-1.5122242,-0.09240317,0.83159965,1.2326503,20.053443,9.340534,-11.803775,-15.886913,55.982664,-81.106249
400,2290031388,-8.328426,23.812363,90.45383,-1.1721897,-2.274303,-1.5049409,-0.08661842,0.83592117,1.3596385,20.033907,9.302629,-11.828857,-15.888357,55.996596,-81.083588
401,2290048055,-8.346489,23.819664,90.414474,-1.1870613,-2.2797332,-1.4962361,-0.048666358,0.65957826,1.4579557,20.014123,9.264633,-11.853794,-15.889168,56.007589,-81.059289
402,2290064722,-8.30508,23.825996,90.436386,-1.2077551,-2.288612,-1.4847772,-0.03048718,0.49269432,1.5277649,19.993994,9.226489,-11.87854,-15.889676,56.015801,-81.033826
403,2290081389,-8.198051,23.830978,90.525696,-1.2346449,-2.3014827,-1.4704868,-0.034798265,0.34533477,1.5752177,19.973417,9.188131,-11.903048,-15.890256,56.021557,-81.007572
404,2290098056,-8.079765,23.836922,90.62872,-1.2660141,-2.3160472,-1.4538416,-0.02017057,0.049514566,1.5725452,19.952317,9.14953,-11.927279,-15.890592,56.022382,-80.981363
405,2290114723,-7.9320602,23.843124,90.763756,-1.3027859,-2.333066,-1.4344673,0.0023657084,-0.35675275,1.5190637,19.930604,9.110646,-11.951187,-15.890553,56.016436,-80.956045
406,2290131390,-7.865757,23.845757,90.81135,-1.3247929,-2.3482413,-1.4249859,0.033773422,-0.6389861,1.4425355,19.908524,9.071509,-11.974937,-15.88999,56.005786,-80.932003
407,2290148057,-7.8968925,23.844643,90.75485,-1.3300219,-2.360944,-1.4266138,0.079366684,-0.79806614,1.3379154,19.886357,9.03216,-11.998714,-15.888667,55.992485,-80.909704
408,2290164724,-7.9593964,23.84108,90.66459,-1.3287859,-2.373829,-1.4330769,0.1314286,-0.92195344,1.1886986,19.864211,8.992596,-12.022599,-15.886477,55.977119,-80.889892
409,2290181391,-8.085915,23.833984,90.505585,-1.3153772,-2.3856397,-1.4479499,0.19195831,-0.9526282,0.9980713,19.842288,8.952835,-12.046731,-15.883278,55.961242,-80.873257
410,2290198058,-8.223988,23.826012,90.33564,-1.3012819,-2.39855,-1.4639869,0.2714014,-1.0727284,0.74161005,19.8206,8.912859,-12.071131,-15.878755,55.943363,-80.860897
411,2290214725,-8.369022,23.817162,90.15975,-1.2872334,-2.4127846,-1.4807752,0.3700509,-1.2926968,0.41375268,19.799146,8.872646,-12.095811,-15.872587,55.921818,-80.854001
412,2290231392,-8.576439,23.805153,89.917816,-1.2624264,-2.4261484,-1.5051229,0.485214,-1.4735321,0.026287138,19.778106,8.83221,-12.120896,-15.8645,55.897259,-80.853563
413,2290248059,-8.836102,23.790428,89.62111,-1.2291279,-2.439096,-1.5356259,0.6198052,-1.6554867,-0.42945546,19.757621,8.791558,-12.14649,-15.85417,55.869668,-80.860721
414,2290264726,-9.037357,23.78415,89.384415,-1.2063522,-2.4423075,-1.5560737,0.70547926,-1.7426065,-0.7071203,19.737515,8.750853,-12.172425,-15.842412,55.840625,-80.872506
415,2290281393,-9.178387,23.787102,89.209335,-1.1943493,-2.4344773,-1.5658891,0.7361208,-1.7094291,-0.7832402,19.717609,8.710278,-12.198523,-15.830143,55.812135,-80.88556
416,2290298060,-9.306267,23.794273,89.04758,-1.1854362,-2.4202127,-1.5719266,0.74667394,-1.6291325,-0.78223,19.697852,8.669941,-12.224722,-15.817698,55.784983,-80.898597
417,2290314727,-9.393272,23.808708,88.927826,-1.1844053,-2.396648,-1.5699472,0.7181951,-1.469641,-0.63475,19.678112,8.629997,-12.250888,-15.805728,55.760489,-80.909176
418,2290331394,-9.519058,23.823288,88.76683,-1.1772327,-2.3685198,-1.5712535,0.69022226,-1.2514004,-0.48440713,19.658491,8.590522,-12.277076,-15.794224,55.739632,-80.917249
419,2290348061,-9.689144,23.837631,88.55887,-1.1630592,-2.3359141,-1.5764892,0.6655495,-0.97759336,-0.3402844,19.639107,8.55159,-12.303351,-15.783132,55.723339,-80.92292
420,2290364728,-9.840961,23.858063,88.369095,-1.1528788,-2.2937531,-1.5763927,0.6078625,-0.60760975,-0.06928632,19.619892,8.513361,-12.329624,-15.773001,55.713212,-80.924075
421,2290381395,-9.992313,23.883148,88.178925,-1.1436138,-2.2427607,-1.5733559,0.52524483,-0.14334899,0.29998076,19.600832,8.475982,-12.355847,-15.764247,55.710823,-80.919075
422,2290398062,-10.075382,23.897942,88.06242,-1.1396761,-2.211218,-1.5713913,0.45549226,0.14736992,0.61707354,19.581837,8.439128,-12.382037,-15.756655,55.713279,-80.90879
423,2290414729,-10.076031,23.90187,88.03463,-1.1428089,-2.2010274,-1.569706,0.39703953,0.24715088,0.88713825,19.56279,8.402444,-12.408199,-15.750038,55.717398,-80.894004
424,2290431396,-10.038498,23.901077,88.047806,-1.1488333,-2.1990995,-1.567971,0.3368615,0.28411418,1.1648664,19.543643,8.365792,-12.434332,-15.744424,55.722133,-80.87459
425,2290448063,-9.941036,23.89164,88.12556,-1.1594124,-2.2131453,-1.5669369,0.28370667,0.18625209,1.415272,19.524319,8.328906,-12.460448,-15.739696,55.725237,-80.851002
426,2290464730,-9.807304,23.883896,88.24127,-1.1747789,-2.2251697,-1.5618362,0.20580196,0.12159759,1.7628704,19.504739,8.29182,-12.486479,-15.736266,55.727264,-80.821621
427,2290481397,-9.639114,23.878395,88.39295,-1.1948128,-2.234131,-1.5524776,0.10113776,0.10154585,2.2161148,19.484825,8.254584,-12.512354,-15.73458,55.728956,-80.784686
428,2290498064,-9.404194,23.8665,88.61605,-1.2210388,-2.2557492,-1.5417504,-0.007581115,-0.019802794,2.6855583,19.464474,8.216988,-12.53805,-15.734706,55.728626,-80.739927
429,2290514731,-9.1059,23.850357,88.90666,-1.253685,-2.2863505,-1.5285387,-0.12768054,-0.20710652,3.2001615,19.443579,8.178882,-12.563526,-15.736834,55.725174,-80.686591
430,2290531398,-8.899704,23.832748,89.09926,-1.2754469,-2.309803,-1.5197546,-0.1953479,-0.37035578,3.500651,19.422322,8.140385,-12.588855,-15.74009,55.719001,-80.628247
431,2290548065,-8.794544,23.812798,89.18438,-1.2850952,-2.3267162,-1.5162754,-0.20191097,-0.52056414,3.5521326,19.400904,8.101606,-12.614126,-15.743455,55.710325,-80.569045
432,2290564732,-8.717381,23.790497,89.239685,-1.2911711,-2.3424554,-1.5139685,-0.18273771,-0.67786294,3.4978333,19.379384,8.062565,-12.639359,-15.746501,55.699027,-80.510748
433,2290581399,-8.709599,23.766235,89.221085,-1.2890072,-2.3532221,-1.5147982,-0.118944764,-0.8237113,3.261139,19.357901,8.023345,-12.664606,-15.748483,55.685298,-80.456396
434,2290598066,-8.670914,23.73603,89.23571,-1.2892084,-2.3726618,-1.5154057,-0.04197681,-1.0488703,2.9708292,19.336414,7.983801,-12.689863,-15.749183,55.667817,-80.406882
435,2290614733,-8.594521,23.699669,89.290794,-1.2925453,-2.4015474,-1.5154455,0.046168447,-1.3582659,2.6350684,19.314872,7.943775,-12.71512,-15.748414,55.645179,-80.362964
436,2290631400,-8.565876,23.659248,89.295235,-1.2897062,-2.4300382,-1.518311,0.17837286,-1.6932214,2.1199033,19.293377,7.903274,-12.740425,-15.745441,55.616959,-80.327632
437,2290648067,-8.563644,23.61377,89.27183,-1.2829342,-2.4612179,-1.5233018,0.3489225,-2.0751333,1.4488316,19.271995,7.862254,-12.765813,-15.739626,55.582373,-80.303485
438,2290664734,-8.598778,23.578781,89.208565,-1.2790098,-2.4791212,-1.5269246,0.4952172,-2.363223,0.9779395,19.250678,7.820935,-12.791262,-15.731372,55.542986,-80.287186
439,2290681401,-8.683918,23.555923,89.09199,-1.2773314,-2.481138,-1.5293572,0.6166936,-2.5389566,0.7200513,19.229389,7.779583,-12.816751,-15.721094,55.50067,-80.275185
440,2290698068,-8.800339,23.536987,88.94223,-1.276125,-2.4770079,-1.5318458,0.7403406,-2.6852126,0.5182393,19.20812,7.7383,-12.842282,-15.708755,55.455916,-80.266548
441,2290714735,-8.955418,23.526375,88.751335,-1.2768707,-2.461904,-1.5336072,0.8507775,-2.7614129,0.464712,19.186839,7.697268,-12.867842,-15.694575,55.409892,-80.258803
442,2290731402,-9.165493,23.515503,88.502174,-1.2732077,-2.442657,-1.5375608,0.9941393,-2.8360481,0.313833,19.165619,7.656557,-12.893468,-15.678006,55.362625,-80.253572
443,2290748069,-9.431774,23.503723,88.19344,-1.2648001,-2.4198308,-1.5439183,1.1739537,-2.9154391,0.049442828,19.144539,7.616226,-12.9192,-15.65844,55.314034,-80.252748
444,2290764736,-9.754761,23.499283,87.824455,-1.2559471,-2.3856096,-1.5506308,1.3548058,-2.9294841,-0.1281544,19.123607,7.576466,-12.945044,-15.63586,55.265209,-80.254884
445,2290781403,-10.140133,23.500427,87.38924,-1.245184,-2.341207,-1.5583913,1.5473062,-2.891933,-0.27227473,19.102854,7.537446,-12.971017,-15.610072,55.21701,-80.259422
446,2290798070,-10.427425,23.49862,87.05429,-1.2336445,-2.310226,-1.5649141,1.6737341,-2.7993443,-0.39365882,19.082293,7.498942,-12.997099,-15.582176,55.170354,-80.265983
447,2290814737,-10.603558,23.494263,86.83308,-1.2218037,-2.2936196,-1.5697937,1.7223617,-2.6398165,-0.46833098,19.06193,7.460715,-13.023262,-15.55347,55.126357,-80.273789
448,2290831404,-10.750278,23.49044,86.640625,-1.2079964,-2.2807474,-1.5746409,1.7372998,-2.4219742,-0.52695507,19.041797,7.422703,-13.049506,-15.524515,55.085991,-80.282572
449,2290848071,-10.823765,23.485237,86.52234,-1.1925755,-2.2777388,-1.5787807,1.6950697,-2.139584,-0.56448066,19.021921,7.384741,-13.075819,-15.496264,55.050331,-80.29198
450,2290864738,-10.919598,23.485909,86.37895,-1.1758385,-2.2686234,-1.5830989,1.6320907,-1.7747104,-0.52353674,19.002324,7.346931,-13.102204,-15.469062,55.020752,-80.300706
451,2290881405,-11.044964,23.492981,86.20289,-1.1575689,-2.2523105,-1.5877357,1.5505639,-1.3238261,-0.40284318,18.983031,7.309392,-13.128666,-15.443219,54.998688,-80.30742
452,2290898072,-11.114235,23.501389,86.082924,-1.1378841,-2.241938,-1.5916569,1.4107,-0.7871934,-0.22328275,18.964066,7.272026,-13.155194,-15.419707,54.985568,-80.311141
453,2290914739,-11.147541,23.512825,85.99809,-1.1167688,-2.2340348,-1.5950538,1.2188028,-0.15750599,0.03006357,18.945453,7.234792,-13.181778,-15.399394,54.982943,-80.31064
454,2290931406,-11.165478,23.521118,85.93438,-1.1064539,-2.2276077,-1.5922089,1.084387,0.2366124,0.26233402,18.927012,7.197665,-13.208315,-15.381321,54.986887,-80.306268
455,2290948073,-11.157944,23.5252,85.90296,-1.1082115,-2.224214,-1.5823587,1.0112511,0.3655916,0.46646956,18.908542,7.160595,-13.234688,-15.364467,54.99298,-80.298494
456,2290964740,-11.127529,23.529343,85.89752,-1.116292,-2.2219996,-1.5682744,0.95022094,0.39198393,0.70112556,18.889937,7.123562,-13.260826,-15.34863,54.999513,-80.286809
457,2290981407,-11.075466,23.5317,85.9189,-1.1342621,-2.2212234,-1.5482095,0.92943585,0.22373596,0.9423687,18.871033,7.086542,-13.286629,-15.333139,55.003242,-80.271103
458,2290998074,-10.966915,23.53479,85.99889,-1.1550341,-2.2258053,-1.5251658,0.87331474,0.054592732,1.2434556,18.851782,7.049445,-13.312048,-15.318584,55.004152,-80.250379
459,2291014741,-10.799252,23.538994,86.13997,-1.1783514,-2.235848,-1.4991992,0.7764975,-0.10373044,1.6123604,18.832143,7.012181,-13.337035,-15.305642,55.002423,-80.223506
460,2291031408,-10.588627,23.54145,86.32944,-1.2110319,-2.2498436,-1.4671612,0.7001984,-0.42944646,2.0038195,18.811959,6.974684,-13.361488,-15.293972,54.995266,-80.190109
461,2291048075,-10.325462,23.542664,86.57632,-1.2518005,-2.2688086,-1.4295228,0.6277374,-0.8840609,2.4315712,18.791096,6.936871,-13.385313,-15.28351,54.980532,-80.149583
462,2291064742,-10.169937,23.539513,86.712204,-1.2768726,-2.2846982,-1.4083974,0.5292032,-1.1771542,2.646933,18.769815,6.898793,-13.408786,-15.27469,54.960913,-80.105467
463,2291081409,-10.137505,23.53122,86.7215,-1.2849722,-2.296845,-1.4054487,0.40894186,-1.3063704,2.6198018,18.748399,6.860512,-13.43221,-15.267874,54.93914,-80.061804
464,2291098076,-10.144173,23.519508,86.691925,-1.286685,-2.309975,-1.4104445,0.2695099,-1.3863953,2.477212,18.726954,6.822012,-13.455717,-15.263382,54.916033,-80.020517
465,2291114743,-10.234631,23.503227,86.57675,-1.2756367,-2.3219824,-1.4295105,0.10448408,-1.3443877,2.1458893,18.705693,6.783312,-13.479542,-15.261641,54.893627,-79.984752
466,2291131410,-10.317928,23.483437,86.47283,-1.2676401,-2.337372,-1.4488821,-0.053828955,-1.3981711,1.7601429,18.684566,6.744356,-13.50369,-15.262538,54.870324,-79.955416
467,2291148077,-10.387337,23.46006,86.38738,-1.2635984,-2.356703,-1.46784,-0.20484972,-1.5607107,1.3262858,18.663506,6.705078,-13.528154,-15.265952,54.844312,-79.933311
468,2291164744,-10.527405,23.431389,86.23124,-1.250104,-2.3760078,-1.4986757,-0.3698293,-1.6628089,0.7102085,18.642671,6.665478,-13.553132,-15.272116,54.816599,-79.921474
469,2291181411,-10.719513,23.397453,86.02436,-1.2304382,-2.396364,-1.5386617,-0.5418505,-1.7522448,-0.06395814,18.622164,6.625539,-13.578776,-15.281147,54.787395,-79.92254
470,2291198078,-10.861649,23.382927,85.87173,-1.2172203,-2.4063816,-1.5653169,-0.7056739,-1.7418861,-0.5823838,18.601877,6.585433,-13.604865,-15.292908,54.758364,-79.932246
471,2291214745,-10.956131,23.389915,85.77078,-1.2098951,-2.4044151,-1.5781889,-0.861725,-1.6031116,-0.8260684,18.581712,6.545359,-13.631168,-15.30727,54.731645,-79.946014
472,2291231412,-11.040024,23.406631,85.68414,-1.2045946,-2.396565,-1.5862675,-1.0121155,-1.4097878,-0.97857416,18.561635,6.505416,-13.657606,-15.324139,54.708149,-79.962324
473,2291248079,-11.088966,23.439964,85.63685,-1.2042961,-2.3793716,-1.5837835,-1.1527091,-1.1309307,-0.9306723,18.541563,6.46576,-13.684002,-15.343351,54.6893,-79.977835
474,2291264746,-11.184895,23.475006,85.5443,-1.198102,-2.3585024,-1.587184,-1.2977723,-0.77402055,-0.961985,18.521595,6.426452,-13.710455,-15.364981,54.6764,-79.993868
475,2291281413,-11.332867,23.510971,85.40145,-1.1854782,-2.3342042,-1.597374,-1.4470268,-0.34157658,-1.0896558,18.501837,6.387549,-13.737078,-15.389098,54.670707,-80.012029
476,2291298080,-11.472443,23.561424,85.27079,-1.1742678,-2.300434,-1.6012663,-1.5894644,0.2002007,-1.0806749,18.482266,6.349208,-13.763766,-15.415589,54.674044,-80.03004
477,2291314747,-11.622162,23.623413,85.13323,-1.1620522,-2.2581427,-1.6023823,-1.7276081,0.85267895,-0.9943112,18.462898,6.311572,-13.790472,-15.444382,54.688255,-80.046612
478,2291331414,-11.711178,23.6669,85.0571,-1.1557493,-2.2313242,-1.6020212,-1.8390496,1.2282499,-0.8399347,18.443636,6.274383,-13.817172,-15.475033,54.708726,-80.060611
479,2291348081,-11.72604,23.69088,85.05587,-1.1568699,-2.2213058,-1.5986927,-1.919818,1.2971687,-0.5876869,18.424355,6.237361,-13.843817,-15.50703,54.730345,-80.070406
480,2291364748,-11.713467,23.707832,85.08373,-1.1604223,-2.217154,-1.5941356,-1.9816661,1.2464387,-0.27125156,18.405015,6.200408,-13.870386,-15.540058,54.751119,-80.074927
481,2291381415,-11.6515465,23.709877,85.16197,-1.1685858,-2.2252803,-1.5882057,-2.0173643,0.9695916,0.11757651,18.385539,6.16332,-13.896856,-15.573681,54.767279,-80.072967
482,2291398082,-11.566685,23.718239,85.266266,-1.1793079,-2.2299352,-1.5767338,-2.0359666,0.7022372,0.6461626,18.365884,6.126154,-13.923135,-15.607614,54.778983,-80.062198
483,2291414749,-11.461597,23.73404,85.39401,-1.1922884,-2.2301462,-1.5596287,-2.0373988,0.45903462,1.3180377,18.346013,6.088985,-13.949129,-15.641571,54.786634,-80.040231
484,2291431416,-11.303028,23.739983,85.57693,-1.2105522,-2.2392964,-1.5386395,-2.010094,0.0291689,2.1119204,18.325837,6.051663,-13.974773,-15.675073,54.78712,-80.005032
485,2291448083,-11.095505,23.740532,85.81092,-1.2337637,-2.2540822,-1.5127172,-1.9550279,-0.53945243,3.0469232,18.305274,6.014095,-13.999985,-15.707657,54.778129,-79.95425
486,2291464750,-10.931957,23.73439,85.99656,-1.2472076,-2.2680593,-1.4982872,-1.9085245,-0.9154881,3.6540403,18.284487,5.976294,-14.024956,-15.739466,54.762871,-79.893349
487,2291481417,-10.815327,23.719177,86.13005,-1.2500143,-2.2823927,-1.4969287,-1.8716283,-1.0960186,3.8900847,18.263653,5.938254,-14.049905,-15.77066,54.744604,-79.828514
488,2291498084,-10.703175,23.69838,86.257195,-1.2490444,-2.2980251,-1.4999967,-1.8268371,-1.2081512,3.9937334,18.242836,5.899954,-14.074905,-15.801107,54.724468,-79.761952
489,2291514751,-10.619114,23.670822,86.352455,-1.240366,-2.313757,-1.5120647,-1.7831869,-1.1680814,3.8341346,18.222163,5.861391,-14.100106,-15.830827,54.705,-79.69805
490,2291531418,-10.499367,23.632599,86.48293,-1.2333593,-2.336893,-1.5239294,-1.7152599,-1.2248195,3.6819267,18.201607,5.822443,-14.125505,-15.859415,54.684586,-79.636685
491,2291548085,-10.339069,23.583511,86.653656,-1.2286348,-2.3678198,-1.5348973,-1.6207281,-1.391749,3.5553548,18.18113,5.782979,-14.151087,-15.886427,54.66139,-79.577429
492,2291564752,-10.189529,23.524101,86.80986,-1.2181177,-2.4021049,-1.5535665,-1.5195127,-1.474234,3.2041774,18.160828,5.742944,-14.17698,-15.911752,54.636819,-79.524026
493,2291581419,-10.036427,23.453156,86.966415,-1.2037754,-2.4415083,-1.5780535,-1.4056163,-1.5259237,2.683,18.140765,5.702252,-14.203281,-15.935179,54.611387,-79.479309
494,2291598086,-9.922237,23.401085,87.08462,-1.1964045,-2.4609804,-1.5920874,-1.2867285,-1.6061637,2.3645434,18.120825,5.661236,-14.229816,-15.956624,54.584618,-79.4399
495,2291614753,-9.857357,23.370453,87.15381,-1.1959972,-2.45772,-1.595301,-1.1657058,-1.6976348,2.2489023,18.100892,5.620274,-14.256404,-15.976052,54.556324,-79.402418
496,2291631420,-9.81189,23.345741,87.2023,-1.1987352,-2.4448915,-1.5942293,-1.0344784,-1.8089409,2.1924024,18.080913,5.579526,-14.282974,-15.993293,54.526175,-79.365878
497,2291648087,-9.799957,23.335266,87.21679,-1.2073421,-2.4153008,-1.5846812,-0.89572775,-1.9502183,2.2874572,18.060791,5.539271,-14.309385,-16.008222,54.493671,-79.327754
498,2291664754,-9.809574,23.321175,87.205956,-1.2134647,-2.3824472,-1.5783625,-0.7493444,-2.0371485,2.2497015,18.040567,5.499564,-14.335691,-16.020711,54.459719,-79.290259
499,2291681421,-9.839661,23.30214,87.17055,-1.2167215,-2.3471842,-1.5759053,-0.5947125,-2.0684516,2.062242,18.020288,5.460444,-14.361956,-16.030623,54.425245,-79.255888
500,2291698088,-9.909641,23.294342,87.0933,-1.223588,-2.296325,-1.5679089,-0.43434078,-2.0930676,1.9432003,17.999895,5.422172,-14.388088,-16.037862,54.390361,-79.223501
501,2291714755,-10.018185,23.294075,86.97467,-1.2322931,-2.2324576,-1.5568594,-0.268229,-2.0920987,1.829813,17.979357,5.384964,-14.414036,-16.042332,54.355493,-79.193004
502,2291731422,-10.038567,23.290985,86.95256,-1.2302132,-2.1837678,-1.5480285,-0.29141688,-1.8839066,1.7143927,17.958853,5.348568,-14.439836,-16.047189,54.324095,-79.164431
503,2291748089,-9.962387,23.286385,87.036575,-1.2168369,-2.1509695,-1.5407665,-0.52465624,-1.4526969,1.6208092,17.938572,5.312719,-14.465515,-16.055933,54.299883,-79.137418
504,2291764756,-9.849873,23.282875,87.16059,-1.196888,-2.1221483,-1.5342427,-0.8770214,-0.86845446,1.5085647,17.918624,5.27735,-14.491086,-16.07055,54.285409,-79.112275
505,2291781423,-9.666805,23.278389,87.36198,-1.1669331,-2.104517,-1.5295955,-1.4057431,-0.07751335,1.3820591,17.899175,5.242275,-14.516579,-16.093979,54.284117,-79.089241
506,2291798090,-9.492832,23.283249,87.555016,-1.1359253,-2.07799,-1.5213156,-1.9999405,0.80485165,1.2996206,17.880243,5.207642,-14.541934,-16.127311,54.297531,-79.067581
507,2291814757,-9.333153,23.298119,87.73405,-1.1041307,-2.0413015,-1.5092223,-2.656269,1.778462,1.2594919,17.861841,5.17362,-14.567088,-16.171582,54.327172,-79.046589
508,2291831424,-9.118404,23.316452,87.974365,-1.0640221,-2.0105245,-1.49695,-3.4829183,2.9515092,1.2382009,17.844107,5.140111,-14.592037,-16.229631,54.376364,-79.025952
509,2291848091,-8.865192,23.340744,88.25815,-1.0173321,-1.9812844,-1.4832759,-4.4606204,4.3051343,1.2489061,17.827151,5.10709,-14.616758,-16.303975,54.448116,-79.005137
510,2291864758,-8.58363,23.373146,88.5886,-0.99771404,-1.9403954,-1.4662166,-5.204502,5.157183,1.3195157,17.810522,5.07475,-14.641195,-16.390717,54.534069,-78.983145
511,2291881425,-8.264996,23.41352,88.976715,-1.0075169,-1.888459,-1.445883,-5.694177,5.4570484,1.4537365,17.79373,5.043276,-14.665293,-16.48562,54.62502,-78.958916
512,2291898092,-7.9147415,23.462921,89.41026,-1.0319796,-1.8286712,-1.4222832,-6.1021347,5.517228,1.6499035,17.77653,5.012798,-14.688998,-16.587322,54.716974,-78.931418
513,2291914759,-7.5320625,23.522057,89.894356,-1.0804539,-1.757801,-1.3948681,-6.325568,5.148651,1.9183993,17.758522,4.983501,-14.712246,-16.692748,54.802785,-78.899445
514,2291931426,-7.0922623,23.588524,90.447754,-1.1314077,-1.687475,-1.365649,-6.6204724,4.779629,2.2382903,17.739665,4.955376,-14.735007,-16.803089,54.882445,-78.86214
515,2291948093,-6.5934563,23.662766,91.07234,-1.1839237,-1.6179717,-1.334527,-7.0020514,4.4318166,2.6130464,17.719933,4.92841,-14.757249,-16.91979,54.956309,-78.818589
516,2291964760,-6.045414,23.746887,91.76556,-1.2570877,-1.5407345,-1.2999578,-7.2538466,3.7238743,3.064749,17.698982,4.902731,-14.778915,-17.040687,55.018374,-78.76751
517,2291981427,-5.4410973,23.840721,92.53369,-1.3467255,-1.4581573,-1.2622656,-7.4293847,2.7404459,3.592251,17.676537,4.878428,-14.799953,-17.16451,55.064048,-78.707639
518,2291998094,-5.000908,23.864868,93.121895,-1.3996515,-1.4201078,-1.2432756,-7.6106167,1.7074754,4.2617702,17.653209,4.85476,-14.820674,-17.291354,55.092506,-78.636609
519,2292014761,-4.746166,23.811668,93.50688,-1.4133234,-1.4306953,-1.244981,-7.776437,0.5904348,5.085827,17.629654,4.830915,-14.841424,-17.420961,55.102347,-78.551845
520,2292031428,-4.5668564,23.71843,93.81499,-1.4103546,-1.4681902,-1.2573152,-7.9220204,-0.6692712,6.0359125,17.606148,4.806445,-14.862379,-17.552995,55.091192,-78.451246
521,2292048095,-4.5253716,23.562332,93.97466,-1.3764973,-1.5468106,-1.2865207,-8.060305,-2.030042,7.1347685,17.583206,4.780665,-14.883821,-17.687333,55.057358,-78.332333
522,2292064762,-4.4952354,23.389893,94.13492,-1.347908,-1.6356289,-1.3195295,-8.085588,-3.7327938,8.355857,17.560741,4.753405,-14.905813,-17.822093,54.995145,-78.193069
523,2292081429,-4.469116,23.203033,94.30469,-1.3264141,-1.7336602,-1.3558227,-7.992046,-5.7966366,9.701992,17.538634,4.724511,-14.92841,-17.955294,54.898534,-78.031369
524,2292098096,-4.5657845,22.957771,94.34617,-1.2815771,-1.8692849,-1.4075847,-7.8392067,-8.076215,11.209843,17.517274,4.693356,-14.95187,-18.085947,54.76393,-77.844538
525,2292114763,-4.7606544,22.662674,94.288795,-1.2208014,-2.036834,-1.472392,-7.600796,-10.633185,12.878386,17.496927,4.659409,-14.97641,-18.212627,54.58671,-77.629898
526,2292131430,-4.8626823,22.39151,94.28155,-1.1851797,-2.1320095,-1.4732047,-7.2316675,-12.396353,13.996176,17.477174,4.623876,-15.000963,-18.333155,54.380104,-77.396628
527,2292148097,-4.8711815,22.144485,94.318306,-1.1747055,-2.1487646,-1.4041078,-6.7286325,-13.250693,14.499825,17.457596,4.588063,-15.024365,-18.445299,54.159259,-77.154964
528,2292164764,-4.862713,21.891083,94.34529,-1.1746817,-2.133185,-1.2999606,-6.090106,-13.750349,14.726362,17.438018,4.55251,-15.046031,-18.546801,53.930087,-76.909525
529,2292181431,-4.7900047,21.649414,94.396675,-1.1954641,-2.057026,-1.1392381,-5.300223,-13.588866,14.474554,17.418094,4.518226,-15.065018,-18.635138,53.703606,-76.668282
530,2292198098,-4.797615,21.363388,94.34704,-1.2050114,-1.9889772,-0.9698322,-4.3942666,-13.357924,14.168798,17.39801,4.485076,-15.081182,-18.708376,53.480974,-76.432135
531,2292214765,-4.894932,21.029007,94.18757,-1.2018118,-1.9326603,-0.7939099,-3.3662305,-13.093917,13.829708,17.37798,4.452865,-15.094414,-18.76448,53.262742,-76.20164
532,2292231432,-4.9711037,20.688843,94.00712,-1.2105837,-1.8291051,-0.56833434,-2.180716,-12.227214,13.064955,17.357804,4.42238,-15.103886,-18.800825,53.058955,-75.983891
533,2292248099,-5.0584793,20.330086,93.77616,-1.2244873,-1.6922917,-0.30235696,-0.83982915,-10.871945,11.955801,17.337396,4.394175,-15.108925,-18.814822,52.877756,-75.784628
534,2292264766,-5.1337166,20.04792,93.71366,-1.199235,-1.6250544,-0.14203596,-1.0899385,-9.560291,11.078234,17.317409,4.367091,-15.111292,-18.832988,52.718418,-75.599991
535,2292281433,-5.1821632,19.856583,93.8499,-1.1332369,-1.6295626,-0.09567189,-3.101788,-8.253883,10.428692,17.298522,4.339932,-15.112887,-18.884684,52.580853,-75.426179
536,2292298100,-5.237812,19.702232,94.059654,-1.0425806,-1.6660879,-0.099891424,-6.05543,-6.760931,9.779377,17.281146,4.312164,-15.114552,-18.985608,52.468171,-75.263189
537,2292314767,-5.290741,19.613564,94.40741,-0.9152727,-1.7612908,-0.19433498,-10.45421,-5.194461,9.2702465,17.265891,4.282809,-15.117791,-19.159845,52.381597,-75.108685
538,2292331434,-5.3276443,19.545944,94.78675,-0.78315353,-1.8396842,-0.28247,-15.280677,-3.0798059,8.452982,17.252838,4.252148,-15.122499,-19.414523,52.330267,-74.967802
539,2292348101,-5.3503494,19.496666,95.189705,-0.6471052,-1.8976507,-0.35956,-20.494839,-0.3769632,7.2971425,17.242053,4.22052,-15.128492,-19.756104,52.323984,-74.846183
540,2292364768,-5.3558235,19.514465,95.727615,-0.48052597,-1.9956961,-0.5085721,-27.062925,2.597439,6.139201,17.234044,4.187258,-15.136968,-20.207153,52.367275,-74.743863
541,2292381435,-5.3406067,19.59159,96.3805,-0.28956318,-2.1180203,-0.71006775,-34.799103,5.961681,4.8770094,17.229218,4.151958,-15.148802,-20.787138,52.466636,-74.66258
542,2292398102,-5.1947517,19.647446,97.13922,-0.14945126,-2.1719568,-0.8393642,-40.47079,8.993067,4.147624,17.226727,4.115759,-15.162791,-21.461651,52.61652,-74.593453
543,2292414769,-4.9042053,19.682869,98.022285,-0.06401253,-2.1557755,-0.8956152,-43.908676,11.597617,4.0514183,17.22566,4.079829,-15.177718,-22.193462,52.809814,-74.525929
544,2292431436,-4.5163307,19.73304,99.02539,-0.0015287399,-2.102593,-0.9256989,-46.539986,14.211,4.2157235,17.225635,4.044786,-15.193146,-22.969128,53.046664,-74.455667
545,2292448103,-3.9969597,19.779099,100.155136,0.01768589,-1.9880898,-0.8980608,-47.499023,16.627016,4.833571,17.22593,4.011651,-15.208114,-23.760778,53.323781,-74.375107
546,2292464770,-3.4071312,19.882996,101.450676,0.04474163,-1.8817172,-0.9078077,-48.941692,19.204115,5.618259,17.226676,3.980289,-15.223244,-24.576473,53.64385,-74.281469
547,2292481437,-2.7463074,20.050247,102.91946,0.08204079,-1.7859712,-0.95985377,-50.989044,21.979578,6.550363,17.228043,3.950523,-15.239242,-25.42629,54.010176,-74.172296
548,2292498104,-1.9510117,20.235489,104.55362,0.08626747,-1.6449885,-0.9801934,-51.815132,24.594374,7.950407,17.229481,3.923107,-15.255579,-26.289876,54.420082,-74.039789
549,2292514771,-1.0299683,20.453674,106.36789,0.06774521,-1.4728222,-0.98925984,-51.866467,27.12395,9.768696,17.23061,3.89856,-15.272067,-27.154317,54.872148,-73.876977
550,2292531438,-0.0821228,20.62484,108.222916,-0.0131139755,-1.3720744,-1.037078,-52.321373,28.646502,10.939756,17.230391,3.875692,-15.289352,-28.02634,55.34959,-73.694648
551,2292548105,0.89520645,20.736801,110.1109,-0.16654682,-1.345753,-1.1199013,-53.048737,29.011099,11.414665,17.227615,3.853263,-15.308017,-28.910486,55.833108,-73.504404
552,2292564772,1.9473419,20.838722,112.114075,-0.36790943,-1.3545458,-1.2281725,-53.77316,28.69118,11.676142,17.221483,3.830687,-15.328487,-29.806705,56.311294,-73.309802
553,2292581439,3.0522995,20.906937,114.19801,-0.6311407,-1.4255726,-1.373755,-54.74285,27.394073,11.444565,17.210964,3.806927,-15.351383,-30.719086,56.767862,-73.119059
554,2292598106,4.290577,20.978264,116.45096,-0.9459648,-1.4841514,-1.5087826,-54.78048,25.550837,11.433073,17.195198,3.782191,-15.376529,-31.632094,57.193709,-72.928508
555,2292614773,5.67078,21.056267,118.8851,-1.3128262,-1.527164,-1.6322391,-53.823055,23.164886,11.68886,17.173318,3.756738,-15.403733,-32.529145,57.57979,-72.733694
556,2292631440,7.1370773,21.101387,121.42998,-1.7508774,-1.6154792,-1.7779808,-52.640728,19.739347,11.618435,17.144137,3.729813,-15.433366,-33.40649,57.908779,-72.540053
557,2292648107,8.710213,21.12082,124.10852,-2.2600985,-1.7338672,-1.9360206,-50.95773,15.332567,11.374962,17.106469,3.700915,-15.465633,-34.255785,58.164322,-72.35047
558,2292664774,9.759243,21.139915,126.106964,-2.5699787,-1.8089774,-2.077002,-49.01177,11.990053,10.787573,17.063636,3.670765,-15.50025,-35.072648,58.364156,-72.170677
559,2292681441,10.215782,21.154442,127.33537,-2.6580591,-1.8415174,-2.2016656,-46.883335,9.816296,9.761593,17.019335,3.640073,-15.536944,-35.854037,58.527761,-72.007984
560,2292698108,10.3921585,21.155884,128.19257,-2.6535292,-1.8563697,-2.3169098,-44.24333,7.8526316,8.477007,16.97511,3.609134,-15.575559,-36.591426,58.658638,-71.866701
561,2292714775,10.105331,21.148384,128.44095,-2.4809341,-1.8352063,-2.415166,-41.1578,6.6369133,6.8574243,16.933761,3.578547,-15.615812,-37.277389,58.769253,-71.752411
562,2292731442,9.707523,21.105927,128.53426,-2.3037033,-1.8371868,-2.5225146,-37.652534,4.8119955,4.8460255,16.895366,3.547927,-15.657854,-37.904931,58.849453,-71.671644
563,2292748109,9.215126,21.025627,128.49152,-2.1308575,-1.8649666,-2.6392941,-33.679165,2.280617,2.4395666,16.859852,3.516844,-15.701842,-38.46625,58.887463,-71.630985
564,2292764776,8.2858925,20.922394,127.86888,-1.8139257,-1.8736231,-2.7457924,-29.269823,0.17525591,-0.41491586,16.82962,3.485617,-15.747605,-38.95408,58.890384,-71.6379
565,2292781443,6.9844246,20.78897,126.747955,-1.3851786,-1.8758118,-2.847147,-24.41052,-1.7992489,-3.7441888,16.806534,3.454353,-15.795057,-39.360922,58.860397,-71.700303
566,2292798110,6.099571,20.759064,126.14479,-1.12397,-1.8644121,-2.9124126,-20.787535,-2.9665241,-6.150347,16.787801,3.423279,-15.843597,-39.707381,58.810955,-71.802809
567,2292814777,5.6540337,20.846336,126.08676,-1.0361938,-1.8334193,-2.9358153,-18.573246,-3.1118357,-7.519785,16.770531,3.392722,-15.892527,-40.016935,58.759091,-71.928139
568,2292831444,5.307762,20.981628,126.1333,-1.008915,-1.7947795,-2.9349728,-16.959003,-2.7470195,-8.544447,16.753716,3.362809,-15.941443,-40.299585,58.713307,-72.070546
569,2292848111,5.2631226,21.20282,126.543655,-1.11378,-1.7448809,-2.8999543,-16.432642,-1.6259853,-8.839554,16.735153,3.333728,-15.989776,-40.573462,58.686207,-72.217872
570,2292864778,4.961094,21.434578,126.59433,-1.147542,-1.6760268,-2.8425632,-16.005512,0.15320736,-9.243265,16.716027,3.305794,-16.037152,-40.840221,58.68876,-72.371926
571,2292881445,4.3651123,21.671951,126.23625,-1.098712,-1.5884418,-2.763031,-15.634987,2.5870063,-9.811428,16.697715,3.27932,-16.083203,-41.100804,58.731877,-72.53545
572,2292898112,3.9237328,21.98619,126.04654,-1.1292162,-1.482161,-2.6459131,-16.258043,5.9700837,-9.789505,16.678895,3.254617,-16.127302,-41.371771,58.831378,-72.698608
573,2292914779,3.5146294,22.36242,125.86537,-1.195404,-1.3549907,-2.4926085,-17.691702,10.314535,-9.349287,16.658972,3.232034,-16.168845,-41.666633,59.003287,-72.854429
574,2292931446,3.3043022,22.648148,125.87537,-1.2129726,-1.2879121,-2.374115,-17.92651,12.904,-8.976673,16.638756,3.210569,-16.208414,-41.965408,59.218354,-73.00404
575,2292948113,3.3643608,22.838966,126.163956,-1.193284,-1.2880299,-2.294213,-16.912348,13.54834,-8.610401,16.618868,3.189102,-16.246651,-42.24728,59.44416,-73.147547
576,2292964780,3.5337067,22.998238,126.53548,-1.1465578,-1.3150377,-2.219188,-15.503415,13.571684,-8.123716,16.599759,3.167185,-16.283637,-42.50567,59.670355,-73.282942
577,2292981447,3.8777084,23.08648,127.06357,-1.0546532,-1.3914719,-2.167722,-13.186513,12.239864,-7.6129384,16.582181,3.143994,-16.319766,-42.725445,59.874353,-73.409824
578,2292998114,4.4141617,23.211685,127.78673,-1.0079556,-1.4700859,-2.0932648,-11.404667,11.239673,-6.589647,16.565382,3.119493,-16.354654,-42.915523,60.061681,-73.519651
579,2293014781,5.1402626,23.38002,128.69997,-1.008811,-1.5478818,-1.9923888,-10.251218,10.688996,-5.0200977,16.548568,3.093695,-16.38786,-43.086377,60.239831,-73.603319
580,2293031448,6.1129684,23.504066,129.85815,-0.9978466,-1.6683052,-1.9041244,-8.577135,9.112753,-3.2131603,16.531937,3.06589,-16.419595,-43.229329,60.39171,-73.656872
581,2293048115,7.3445587,23.606865,131.27827,-0.9948292,-1.8218908,-1.818325,-6.6988816,6.866115,-1.0486956,16.515357,3.035525,-16.4499,-43.340977,60.506145,-73.67435
582,2293064782,8.185734,23.70588,132.25894,-0.99583817,-1.9210443,-1.7521013,-5.26541,5.39818,0.42883295,16.49876,3.003508,-16.479102,-43.428734,60.596115,-73.667203
583,2293081449,8.592537,23.791779,132.75284,-0.99518204,-1.9634101,-1.7122269,-4.2057266,4.6519895,1.0952775,16.482174,2.970784,-16.507639,-43.498829,60.673648,-73.648948
584,2293098116,8.889877,23.871544,133.11395,-1.0093355,-1.9846785,-1.6839758,-3.4334388,4.1701,1.5387356,16.465352,2.937706,-16.535705,-43.556053,60.74315,-73.623302
585,2293114783,8.904411,23.946518,133.15558,-1.0365553,-1.9621525,-1.6740324,-3.0959055,4.296092,1.4612439,16.448076,2.905003,-16.563606,-43.607651,60.814752,-73.598948
586,2293131450,9.0367775,23.98368,133.30823,-1.064271,-1.9584117,-1.6825291,-2.5336204,3.8046103,1.4056214,16.430338,2.872363,-16.591648,-43.649878,60.878162,-73.575521
587,2293148117,9.318535,23.981941,133.60692,-1.0945549,-1.9768643,-1.7094691,-1.735223,2.634442,1.4171919,16.412095,2.839415,-16.620139,-43.678798,60.922069,-73.551901
588,2293164784,9.402203,23.957542,133.67847,-1.1325531,-1.966955,-1.7616096,-1.1515825,1.6751796,0.96189386,16.393219,2.806632,-16.649499,-43.697991,60.949989,-73.535869
589,2293181451,9.374504,23.902267,133.61674,-1.176364,-1.9419477,-1.8399932,-0.64425975,0.65528077,0.14928764,16.373613,2.774266,-16.680166,-43.708729,60.96091,-73.533381
590,2293198118,9.44297,23.879524,133.66356,-1.2078962,-1.9324098,-1.8831569,-0.19788909,-0.12350549,-0.24199593,16.353481,2.742059,-16.711552,-43.712027,60.958852,-73.537414
591,2293214785,9.58231,23.895683,133.79414,-1.2257452,-1.9350173,-1.8872657,0.14201522,-0.5380644,-0.21717042,16.333052,2.709809,-16.743006,-43.70966,60.949884,-73.541034
592,2293231452,9.7515335,23.91388,133.95667,-1.2373123,-1.9441447,-1.8831848,0.4649297,-0.92556494,-0.081769675,16.31243,2.677407,-16.774392,-43.701911,60.934458,-73.542397
593,2293248119,9.994247,23.951347,134.20384,-1.2373934,-1.9665084,-1.8546973,0.76478803,-1.1782752,0.35341275,16.291807,2.644632,-16.805304,-43.689165,60.91482,-73.536507
594,2293264786,10.102333,23.974274,134.30235,-1.2389994,-1.971164,-1.8404403,0.91041505,-1.2515545,0.4918037,16.271157,2.611779,-16.835978,-43.673991,60.893961,-73.52831
595,2293281453,10.066551,23.978966,134.24254,-1.2425146,-1.9570253,-1.8436296,0.90787494,-1.1683565,0.29389367,16.250448,2.579162,-16.866705,-43.65886,60.874488,-73.523412
596,2293298120,10.023441,23.996895,134.18176,-1.2366972,-1.9448018,-1.8313344,0.8156196,-0.8510516,0.21037151,16.229836,2.546749,-16.897227,-43.645266,60.860304,-73.519906
597,2293314787,9.925362,24.020508,134.06757,-1.2240248,-1.927628,-1.8120995,0.6060196,-0.28725255,0.10631809,16.209436,2.514622,-16.927429,-43.635166,60.855516,-73.518134
598,2293331454,9.856728,24.029793,133.97385,-1.2161274,-1.9164915,-1.8001827,0.53820574,-0.10379578,0.04486534,16.189167,2.48268,-16.957432,-43.626196,60.853786,-73.517386
599,2293348121,9.836964,24.027023,133.92207,-1.2124758,-1.9143717,-1.7928282,0.6397816,-0.33740014,0.080269694,16.168959,2.450774,-16.987312,-43.615533,60.848163,-73.516048
600,2293364788,9.789768,24.016685,133.83826,-1.20895,-1.9110086,-1.7890923,0.7674669,-0.67434824,0.08509159,16.14881,2.418924,-17.01713,-43.602742,60.836924,-73.51463
601,2293381455,9.739853,23.994545,133.74533,-1.2082033,-1.9098151,-1.791702,0.99373305,-1.278696,0.088674724,16.128673,2.387094,-17.046992,-43.58618,60.815612,-73.513152
602,2293398122,9.669468,23.979813,133.63809,-1.2001162,-1.9095125,-1.7843308,1.1863049,-1.7665259,0.16080347,16.108671,2.355269,-17.076731,-43.566408,60.78617,-73.510472
603,2293414789,9.570381,23.973373,133.50931,-1.1839781,-1.9091723,-1.7664621,1.3339459,-2.1055045,0.29211557,16.088938,2.323449,-17.106172,-43.544176,60.751078,-73.505603
604,2293431456,9.471973,23.962555,133.3812,-1.1668682,-1.9123981,-1.7481878,1.5661505,-2.6249368,0.47569513,16.06949,2.291576,-17.135308,-43.518073,60.707329,-73.497675
605,2293448123,9.368725,23.95176,133.2515,-1.1463928,-1.9188299,-1.7257947,1.856038,-3.240045,0.7264315,16.050383,2.259596,-17.164071,-43.487139,60.653328,-73.485568
606,2293464790,9.2394905,23.934761,133.08673,-1.1308165,-1.9227171,-1.7147332,2.0437636,-3.6331933,0.8849747,16.031536,2.227551,-17.19265,-43.453076,60.592775,-73.470818
607,2293481457,9.0868225,23.90992,132.88808,-1.1215811,-1.9242313,-1.7172854,2.1333818,-3.8142955,0.9410421,16.012843,2.19548,-17.221271,-43.41752,60.529203,-73.455134
608,2293498124,8.916885,23.883553,132.67036,-1.1129503,-1.9259813,-1.7233154,2.1850376,-3.8753505,0.98336977,15.994294,2.16338,-17.249993,-43.381103,60.464614,-73.438745
609,2293514791,8.725567,23.85382,132.4263,-1.1073675,-1.9267032,-1.737248,2.1611228,-3.738411,0.9711763,15.975838,2.131268,-17.278947,-43.345084,60.402307,-73.422559
610,2293531458,8.52985,23.821526,132.17906,-1.101572,-1.9304898,-1.7525127,2.1894126,-3.6671112,0.99386466,15.957478,2.099093,-17.308156,-43.308594,60.341188,-73.405995
611,2293548125,8.330975,23.787407,131.93105,-1.0950785,-1.937782,-1.7682161,2.2786822,-3.6704154,1.0618165,15.939227,2.066797,-17.337626,-43.270616,60.280014,-73.388298
612,2293564792,8.11768,23.749573,131.66542,-1.0916576,-1.9456232,-1.7914776,2.3355322,-3.5509984,1.097286,15.921033,2.03437,-17.367484,-43.23169,60.220831,-73.37001
613,2293581459,7.8940964,23.708397,131.388,-1.0906181,-1.955051,-1.8208797,2.389495,-3.3640866,1.1214149,15.902856,2.001786,-17.397832,-43.191865,60.164763,-73.35132
614,2293598126,7.746868,23.677689,131.19093,-1.0906982,-1.9578412,-1.8370949,2.387298,-3.1181598,1.149134,15.884678,1.969155,-17.42845,-43.152077,60.112794,-73.332168
615,2293614793,7.684162,23.658592,131.08243,-1.092411,-1.9529285,-1.8392828,2.3144855,-2.7906036,1.1726893,15.866471,1.936606,-17.459105,-43.113502,60.066284,-73.312623
616,2293631460,7.6688423,23.644928,131.02411,-1.0959969,-1.945008,-1.8356936,2.218152,-2.4143927,1.2002304,15.848204,1.904189,-17.4897,-43.076533,60.026044,-73.292619
617,2293648127,7.7262535,23.640617,131.04288,-1.1013832,-1.9316947,-1.8212059,2.0813036,-1.9849445,1.2333374,15.829848,1.871994,-17.520053,-43.041845,59.992962,-73.272063
618,2293664794,7.8047333,23.637566,131.08302,-1.1102934,-1.917191,-1.8087262,1.9136192,-1.4437904,1.2464515,15.811343,1.840041,-17.550198,-43.009951,59.968899,-73.251289
619,2293681461,7.9033623,23.63552,131.14375,-1.1229553,-1.9018383,-1.7989398,1.7189578,-0.7905151,1.2397741,15.792627,1.808344,-17.58018,-42.981302,59.955724,-73.230626
620,2293698128,8.071514,23.642036,131.27788,-1.1386127,-1.8814137,-1.7809765,1.4773315,-0.04762681,1.2267494,15.77365,1.776987,-17.609863,-42.95668,59.95493,-73.21018
621,2293714795,8.3004,23.65564,131.47595,-1.1578007,-1.8567467,-1.7574959,1.1908191,0.79941934,1.2017734,15.754353,1.746041,-17.639155,-42.936833,59.968254,-73.19015
622,2293731462,8.472408,23.659744,131.61867,-1.1715059,-1.8451993,-1.7390523,0.98144305,1.2800354,1.1718857,15.734828,1.715288,-17.668139,-42.920476,59.989588,-73.170619
623,2293748129,8.58424,23.653908,131.70311,-1.1789007,-1.847863,-1.7252288,0.8575152,1.3477787,1.1383986,15.71518,1.68449,-17.696893,-42.906184,60.012051,-73.151646
624,2293764796,8.68763,23.645226,131.78163,-1.1847429,-1.8570392,-1.7127262,0.76228726,1.2361033,1.0935578,15.695434,1.653539,-17.725438,-42.893479,60.032653,-73.13342
625,2293781463,8.75259,23.629448,131.82402,-1.1865463,-1.87747,-1.7040529,0.72901046,0.81110984,1.0390316,15.675658,1.622248,-17.753839,-42.881329,60.046171,-73.116103
626,2293798130,8.863159,23.618507,131.91655,-1.1895447,-1.8979983,-1.6901526,0.6826229,0.339558,0.974067,15.655832,1.590615,-17.782008,-42.869952,60.05183,-73.099869
627,2293814797,9.025246,23.61319,132.06543,-1.1941566,-1.9180703,-1.670578,0.61881316,-0.16405894,0.8974214,15.635929,1.558647,-17.809851,-42.859638,60.049096,-73.084912
628,2293831464,9.17205,23.603958,132.20276,-1.1956139,-1.9474287,-1.6518805,0.6041616,-0.95299,0.810506,15.616002,1.52619,-17.837382,-42.849569,60.033213,-73.071404
629,2293848131,9.3222885,23.593468,132.34787,-1.1950169,-1.9838474,-1.6320523,0.62352,-1.9763066,0.7126225,15.596085,1.493126,-17.864583,-42.839177,60.000275,-73.059527
630,2293864798,9.385742,23.587944,132.39954,-1.1935911,-2.003275,-1.622317,0.61666155,-2.6020508,0.5812957,15.576192,1.459738,-17.891622,-42.828899,59.956907,-73.049839
631,2293881465,9.345291,23.586868,132.3396,-1.1907701,-2.0046756,-1.6245029,0.5872402,-2.8065567,0.41415295,15.556346,1.426327,-17.918697,-42.819112,59.910131,-73.042936
632,2293898132,9.25618,23.589142,132.22911,-1.1866474,-1.9980156,-1.631912,0.55467737,-2.8599865,0.22086929,15.536569,1.393027,-17.945896,-42.809867,59.862465,-73.039255
633,2293914799,9.08987,23.596237,132.03642,-1.1813059,-1.9768753,-1.6479559,0.50545096,-2.5968945,-0.005254209,15.516881,1.360079,-17.973362,-42.801443,59.819183,-73.039343
634,2293931466,8.881691,23.602226,131.80327,-1.1727657,-1.9578352,-1.6678121,0.49298966,-2.455496,-0.25188333,15.497335,1.327448,-18.001159,-42.793227,59.778258,-73.043541
635,2293948133,8.633743,23.606972,131.53217,-1.1608696,-1.9416909,-1.691134,0.52070105,-2.4612932,-0.51896197,15.477987,1.295086,-18.029345,-42.784549,59.737236,-73.05219
636,2293964800,8.30151,23.614677,131.17284,-1.1465445,-1.9145792,-1.7234668,0.5516063,-2.2543435,-0.81897795,15.458878,1.263176,-18.058069,-42.775356,59.699664,-73.06584
637,2293981467,7.890217,23.624146,130.73178,-1.1292448,-1.8798864,-1.7639866,0.59821963,-1.9275535,-1.1500305,15.440057,1.231845,-18.087469,-42.765386,59.667538,-73.085007
638,2293998134,7.621155,23.634918,130.44029,-1.1167355,-1.8575673,-1.7907944,0.61627245,-1.7109821,-1.330531,15.421445,1.200886,-18.117316,-42.755115,59.639022,-73.107183
639,2294014801,7.5076714,23.647423,130.31184,-1.1097584,-1.8477519,-1.802707,0.59812105,-1.5814217,-1.3442072,15.402949,1.17009,-18.147361,-42.745146,59.612665,-73.129586
640,2294031468,7.446434,23.661041,130.23924,-1.1041594,-1.8431759,-1.8097346,0.5741699,-1.4914991,-1.2755094,15.384546,1.13937,-18.177523,-42.735577,59.587807,-73.150844
641,2294048135,7.4967804,23.675766,130.28438,-1.102087,-1.8489244,-1.8060467,0.5313364,-1.4919606,-1.072784,15.366178,1.108555,-18.207624,-42.726721,59.562941,-73.168724
642,2294064802,7.516514,23.693024,130.29773,-1.0991421,-1.8496785,-1.8059747,0.48707294,-1.3554386,-0.8444221,15.347859,1.077727,-18.237724,-42.718603,59.54035,-73.182798
643,2294081469,7.4964485,23.712791,130.26971,-1.0949631,-1.8447285,-1.8104243,0.44389892,-1.0731052,-0.5950811,15.32961,1.046982,-18.267898,-42.711205,59.522465,-73.192716
644,2294098136,7.5586967,23.734428,130.3283,-1.0936155,-1.846035,-1.807234,0.38158226,-0.7981036,-0.22402209,15.311383,1.016215,-18.298019,-42.704845,59.509163,-73.19645
645,2294114803,7.673397,23.758217,130.442,-1.0941753,-1.8503578,-1.799424,0.3037747,-0.479666,0.2484146,15.293147,0.985376,-18.328009,-42.699782,59.501169,-73.19231
646,2294131470,7.756893,23.769165,130.51918,-1.0973129,-1.8557789,-1.7941098,0.2726729,-0.29548323,0.6394602,15.274858,0.954446,-18.357911,-42.695237,59.496244,-73.181652
647,2294148137,7.8173866,23.765694,130.56796,-1.1036959,-1.8635795,-1.7903737,0.29119766,-0.27747756,0.9467679,15.256463,0.923386,-18.387751,-42.690384,59.491619,-73.165873
648,2294164804,7.8753777,23.755104,130.61153,-1.112463,-1.8725064,-1.7867948,0.33207226,-0.30456632,1.2458477,15.237922,0.892178,-18.417531,-42.684849,59.486543,-73.145109
649,2294181471,7.9128036,23.733032,130.62965,-1.1240501,-1.8824744,-1.7848399,0.41178334,-0.4300412,1.490888,15.219188,0.860803,-18.447278,-42.677986,59.479376,-73.120261
650,2294198138,8.010464,23.707993,130.7094,-1.1391726,-1.8977752,-1.7771728,0.4892956,-0.58877885,1.8176228,15.200202,0.829173,-18.476898,-42.669831,59.469563,-73.089967
651,2294214805,8.172497,23.680313,130.85504,-1.1579399,-1.9185083,-1.7634339,0.5622647,-0.7719461,2.2349858,15.180903,0.797198,-18.506289,-42.66046,59.456697,-73.052717
652,2294231472,8.344959,23.641853,131.00775,-1.180521,-1.9426332,-1.7483537,0.66538453,-1.0597066,2.637467,15.161228,0.764821,-18.535428,-42.64937,59.439035,-73.008759
653,2294248139,8.546501,23.594147,131.18736,-1.2072182,-1.9711981,-1.730222,0.7901279,-1.4394431,3.0552988,15.141108,0.731968,-18.564265,-42.636201,59.415044,-72.957837
654,2294264806,8.680164,23.552963,131.29716,-1.2227917,-1.9936934,-1.7186781,0.89858043,-1.7088338,3.3021145,15.120728,0.69874,-18.59291,-42.621225,59.386563,-72.902802
655,2294281473,8.731651,23.518532,131.32225,-1.2258978,-2.0090673,-1.7150507,0.9916085,-1.8619556,3.3467636,15.100296,0.665256,-18.621494,-42.604698,59.35553,-72.847023
656,2294298140,8.760757,23.484169,131.32303,-1.2240467,-2.0231588,-1.7134812,1.0816435,-1.9885935,3.2976801,15.079895,0.631537,-18.650052,-42.586671,59.322387,-72.792062
657,2294314807,8.739117,23.45382,131.27097,-1.2129822,-2.0330667,-1.7167513,1.1594228,-2.0372314,3.09733,15.059679,0.597653,-18.678665,-42.567347,59.288433,-72.74044
658,2294331474,8.710407,23.415878,131.20822,-1.2017136,-2.044486,-1.7203493,1.2561489,-2.1468697,2.826677,15.03965,0.563578,-18.707337,-42.546411,59.252652,-72.693329
659,2294348141,8.679058,23.36953,131.13905,-1.1907883,-2.0579393,-1.7238135,1.3732804,-2.3273685,2.4902492,15.019804,0.529279,-18.736067,-42.523523,59.213863,-72.651825
660,2294364808,8.598068,23.3238,131.017,-1.1719446,-2.0680804,-1.7318506,1.4875795,-2.4665227,1.9940118,15.000272,0.494811,-18.764931,-42.49873,59.172754,-72.618591
661,2294381475,8.476078,23.27607,130.85022,-1.1469746,-2.0761218,-1.7435434,1.6058203,-2.595059,1.3509512,14.981156,0.460209,-18.79399,-42.471966,59.129503,-72.596075
662,2294398142,8.397732,23.238503,130.73112,-1.1336527,-2.0779593,-1.7504735,1.6974188,-2.6766133,0.93429875,14.962262,0.425576,-18.823165,-42.443676,59.084893,-72.580503
663,2294414809,8.363674,23.213303,130.66103,-1.1325369,-2.0723846,-1.7525517,1.7566324,-2.6939216,0.76368773,14.943386,0.391036,-18.852374,-42.414399,59.039994,-72.567775
664,2294431476,8.338451,23.19297,130.60039,-1.1363087,-2.0620465,-1.753241,1.8024901,-2.6851006,0.6671189,14.924448,0.356669,-18.881595,-42.384357,58.995242,-72.556656
665,2294448143,8.342918,23.18129,130.57217,-1.1496038,-2.0454328,-1.7504413,1.8254019,-2.6354315,0.7434622,14.905288,0.322578,-18.910769,-42.353934,58.951318,-72.544265
666,2294464810,8.315174,23.173485,130.51,-1.1598663,-2.0234795,-1.750284,1.8369421,-2.5379653,0.7472695,14.885957,0.288853,-18.93994,-42.323318,58.909019,-72.531811
667,2294481477,8.250813,23.169197,130.40904,-1.166419,-1.9961083,-1.7531707,1.8379103,-2.3934984,0.66228235,14.866517,0.255585,-18.96916,-42.292686,58.869127,-72.520773
668,2294498144,8.197739,23.174377,130.3213,-1.1794958,-1.9613032,-1.7543106,1.8135611,-2.1906238,0.69546837,14.846859,0.222897,-18.998399,-42.26246,58.832617,-72.509182
669,2294514811,8.1419525,23.188255,130.23178,-1.1964493,-1.9190056,-1.7550642,1.7656404,-1.9259934,0.79450023,14.826918,0.190914,-19.02765,-42.233033,58.800517,-72.49594
670,2294531478,8.092102,23.189247,130.14531,-1.2050352,-1.8944225,-1.7546346,1.750193,-1.7688314,0.83427304,14.806834,0.15934,-19.056894,-42.203863,58.771036,-72.482035
671,2294548145,8.054356,23.17633,130.06824,-1.2053232,-1.8895464,-1.7523892,1.7698811,-1.7314799,0.8294208,14.786745,0.127848,-19.0861,-42.174365,58.742178,-72.468211
672,2294564812,8.014591,23.159538,129.98764,-1.201333,-1.8922293,-1.749654,1.7985793,-1.7295749,0.8047782,14.766723,0.096311,-19.115261,-42.144389,58.713352,-72.454798
673,2294581479,7.9766426,23.133194,129.90646,-1.1899595,-1.9094317,-1.7460439,1.8509308,-1.8088248,0.7337192,14.74689,0.064487,-19.144362,-42.11354,58.683205,-72.442569
674,2294598146,7.9468803,23.111694,129.83432,-1.1809645,-1.9257686,-1.7408409,1.8897825,-1.8662915,0.74238384,14.727207,0.032391,-19.173376,-42.082044,58.6521,-72.430196
675,2294614813,7.924446,23.096062,129.77054,-1.1747103,-1.9403079,-1.7340949,1.9124492,-1.8943325,0.8362154,14.707628,5.3e-05,-19.202278,-42.05017,58.620528,-72.416259
676,2294631480,7.909935,23.074348,129.71336,-1.1636724,-1.9668412,-1.7257696,1.9498223,-1.9836367,0.9321199,14.688233,-0.032728,-19.231041,-42.017673,58.587467,-72.400724
677,2294648147,7.9048996,23.049706,129.66507,-1.1498852,-2.0022576,-1.7156706,1.9937927,-2.1123848,1.058836,14.669068,-0.066099,-19.259636,-41.984443,58.552261,-72.383077
678,2294664814,7.9339447,23.028984,129.65329,-1.1344347,-2.01418,-1.7075129,1.9776236,-2.0821056,1.216043,14.650161,-0.099669,-19.288095,-41.951483,58.517559,-72.36281
679,2294681481,8.00061,23.01136,129.6816,-1.1164961,-2.0013306,-1.7015601,1.8983694,-1.8850341,1.397021,14.631553,-0.133025,-19.316454,-41.919844,58.486142,-72.339526
680,2294698148,8.095085,22.995735,129.73933,-1.0968885,-1.9770575,-1.695858,1.7818137,-1.6003629,1.624037,14.613272,-0.165976,-19.344718,-41.890147,58.459469,-72.312459
681,2294714815,8.225342,22.98359,129.83531,-1.0756216,-1.9327734,-1.6913898,1.6098219,-1.1750932,1.8967822,14.595345,-0.198189,-19.372908,-41.863317,58.439884,-72.280846
682,2294731482,8.377792,22.967964,129.95366,-1.0500116,-1.8909185,-1.6859508,1.4284087,-0.74689114,2.1966224,14.577845,-0.229704,-19.401007,-41.83951,58.427436,-72.244236
683,2294748149,8.552994,22.948647,130.0949,-1.0199776,-1.8525939,-1.6793382,1.2390693,-0.32157463,2.5274065,14.560845,-0.260581,-19.428996,-41.818859,58.422076,-72.202113
684,2294764816,8.765686,22.930283,130.27576,-0.98675346,-1.799155,-1.6734786,1.0026916,0.21595947,2.8993616,14.544399,-0.290567,-19.456887,-41.802147,58.425675,-72.15379
685,2294781483,9.014259,22.911346,130.49413,-0.949667,-1.7352152,-1.6678804,0.728186,0.838031,3.3104904,14.528571,-0.319487,-19.484685,-41.790011,58.439642,-72.098615
686,2294798150,9.276154,22.871445,130.73224,-0.93195724,-1.6863625,-1.660131,0.4829681,1.1739806,3.8711874,14.513038,-0.347593,-19.512354,-41.781962,58.459208,-72.034095
687,2294814817,9.552296,22.808914,130.99178,-0.9359789,-1.6526787,-1.650233,0.26814723,1.2019148,4.594725,14.497438,-0.375138,-19.539858,-41.777493,58.47924,-71.957516
688,2294831484,9.853554,22.732155,131.28125,-0.9502611,-1.6250517,-1.6389872,0.05716169,1.0785944,5.4293814,14.4816,-0.402222,-19.567174,-41.77654,58.497217,-71.867026
689,2294848151,10.175152,22.63527,131.59738,-0.98145676,-1.6099858,-1.6257777,-0.1327542,0.702338,6.4083023,14.465242,-0.429055,-19.59427,-41.778753,58.508923,-71.760221
690,2294864818,10.536087,22.53106,131.95705,-1.0164309,-1.5876429,-1.612458,-0.3519743,0.31832176,7.4743104,14.448301,-0.455516,-19.621144,-41.784619,58.514228,-71.635649
691,2294881485,10.938652,22.419762,132.3626,-1.0545139,-1.5571365,-1.5990925,-0.60326034,-0.06320923,8.626514,14.430726,-0.481468,-19.647796,-41.794673,58.513175,-71.491874
692,2294898152,11.370277,22.289566,132.80394,-1.1082611,-1.5338907,-1.5842254,-0.8469394,-0.6548629,9.924648,14.412255,-0.507033,-19.6742,-41.808789,58.502261,-71.326463
693,2294914819,11.836067,22.142708,133.286,-1.1751995,-1.5137179,-1.5682361,-1.0938519,-1.4085276,11.359825,14.392668,-0.532262,-19.700337,-41.82702,58.478786,-71.137133
694,2294931486,12.224091,21.992447,133.70232,-1.2188683,-1.5075772,-1.5574346,-1.5023631,-1.9234492,12.285969,14.372354,-0.557388,-19.726294,-41.852059,58.446729,-70.932367
695,2294948153,12.522324,21.83812,134.04205,-1.2375946,-1.518498,-1.5522804,-2.0839458,-2.1901531,12.648239,14.351727,-0.582696,-19.752165,-41.886791,58.410226,-70.721563
696,2294964820,12.787613,21.674469,134.35951,-1.2472429,-1.5385823,-1.5500646,-2.7718852,-2.3690345,12.746698,14.33094,-0.608339,-19.777999,-41.932989,58.370742,-70.509118
697,2294981487,12.98774,21.504395,134.62444,-1.2381458,-1.571629,-1.5525589,-3.610815,-2.3564813,12.399168,14.310304,-0.634533,-19.803875,-41.993169,58.331467,-70.302465
698,2294998154,13.185287,21.316406,134.89716,-1.2350245,-1.6155019,-1.555743,-4.499842,-2.4447436,11.996523,14.28972,-0.661458,-19.829804,-42.068166,58.290721,-70.102523
699,2295014821,13.383743,21.109451,135.18138,-1.2392855,-1.6700702,-1.5594742,-5.435837,-2.6494021,11.556801,14.269065,-0.689293,-19.855795,-42.158763,58.246564,-69.90991
700,2295031488,13.522865,20.891365,135.42004,-1.2302656,-1.7401197,-1.567358,-6.5096207,-2.7364755,10.721493,14.248561,-0.718295,-19.881918,-42.267257,58.200956,-69.731218
701,2295048155,13.61454,20.659256,135.62483,-1.2131329,-1.8256447,-1.5786369,-7.7024875,-2.768044,9.565334,14.228342,-0.748722,-19.908229,-42.395632,58.154822,-69.571796
702,2295064822,13.644615,20.483704,135.76111,-1.1994438,-1.8797169,-1.5918148,-8.544248,-2.7960649,8.456915,14.208351,-0.780051,-19.934759,-42.538036,58.108221,-69.430847
703,2295081489,13.601639,20.372429,135.81606,-1.1875963,-1.8988402,-1.6073112,-9.001186,-2.7963226,7.376987,14.188558,-0.811698,-19.961548,-42.688056,58.061616,-69.307897
704,2295098156,13.497978,20.290108,135.81207,-1.1754503,-1.9055872,-1.625442,-9.28391,-2.785373,6.191519,14.168967,-0.843458,-19.988639,-42.842788,58.015193,-69.204705
705,2295114823,13.324936,20.257172,135.73497,-1.1653547,-1.8871138,-1.6460236,-9.262008,-2.7685513,4.9826484,14.149544,-0.87491,-20.016073,-42.997155,57.96905,-69.121661
706,2295131490,13.072296,20.234657,135.58777,-1.1450872,-1.8722756,-1.6710289,-9.233087,-2.6540737,3.4306738,14.130459,-0.906115,-20.043923,-43.15104,57.924815,-69.064483
707,2295148157,12.736977,20.22065,135.36841,-1.1140509,-1.8628943,-1.700664,-9.2109785,-2.4390707,1.5110217,14.111891,-0.937163,-20.072267,-43.304556,57.884164,-69.039299
708,2295164824,12.313492,20.25319,135.06004,-1.08004,-1.8333516,-1.733921,-8.931164,-2.170323,-0.55564535,14.09389,-0.967719,-20.101166,-43.453409,57.847992,-69.04856
709,2295181491,11.796249,20.32508,134.65994,-1.0401945,-1.7895606,-1.7713598,-8.451852,-1.825487,-2.8466027,14.076553,-0.997545,-20.130689,-43.594273,57.817567,-69.096003
710,2295198158,11.378975,20.393143,134.36124,-1.016161,-1.7588184,-1.7984047,-8.132118,-1.5265241,-4.6692047,14.059617,-1.026859,-20.160662,-43.729808,57.792125,-69.173823
711,2295214825,11.076736,20.459396,134.1774,-1.0106974,-1.7401996,-1.8136013,-7.968498,-1.2862456,-5.9354124,14.042772,-1.055862,-20.190889,-43.862616,57.770688,-69.272747
712,2295231492,10.791267,20.540848,134.01236,-1.0114079,-1.7244287,-1.8242965,-7.824972,-1.0282043,-7.0306826,14.025915,-1.084602,-20.221294,-43.993032,57.753551,-69.389925
