PacketCounter,SampleTimeFine,Euler_X,Euler_Y,Euler_Z,Acc_X,Acc_Y,Acc_Z,Gyr_X,Gyr_Y,Gyr_Z,Velo_X,Velo_Y,Velo_Z,ANG_X,ANG_Y,ANG_Z
0,4133193785,302.16022,39.422455,264.3782,-4.2741785,1.4906337,-5.2477455,-2.9091897,9.228467,-0.49889088,0.0,0.0,0.0,0.0,0.0,0.0
1,4133210452,302.16763,39.247982,264.38663,-3.9753795,1.4996903,-5.531232,-3.0297081,11.891441,-0.40812755,-0.066256,0.024995,-0.092187,-0.050495,0.198191,-0.006802
2,4133227119,302.17548,39.063698,264.39484,-3.6516995,1.5098976,-5.8393126,-3.1609476,14.702675,-0.29956603,-0.127118,0.05016,-0.189509,-0.103177,0.443236,-0.011795
3,4133243786,302.18365,38.872242,264.40265,-3.3075147,1.5210953,-6.167653,-3.3019412,17.6218,-0.17302692,-0.182243,0.075512,-0.292303,-0.158209,0.736933,-0.014679
4,4133260453,302.19434,38.619675,264.4143,-2.8524728,1.5363338,-6.605276,-3.4736552,21.48024,-0.027352333,-0.229784,0.101118,-0.402391,-0.216103,1.094937,-0.015135
5,4133277120,302.20703,38.317646,264.42883,-2.3050256,1.5550411,-7.1341,-3.6720362,26.098314,0.13877237,-0.268201,0.127035,-0.521293,-0.277304,1.529909,-0.012822
6,4133293787,302.19366,37.9578,264.47247,-2.003127,1.5719793,-7.3934603,-3.8820922,29.367208,0.030318141,-0.301586,0.153235,-0.644517,-0.342006,2.019362,-0.012317
7,4133310454,302.15155,37.530926,264.54852,-1.9669266,1.5871317,-7.360713,-4.10581,31.198935,-0.3819995,-0.334368,0.179687,-0.767196,-0.410436,2.539344,-0.018684
8,4133327121,302.0937,37.04709,264.6441,-2.0476303,1.6026928,-7.19551,-4.3483377,32.4835,-0.9585893,-0.368495,0.206399,-0.887121,-0.482908,3.080736,-0.03466
9,4133343788,302.01202,36.500267,264.76712,-2.3371382,1.6173824,-6.799288,-4.606943,32.66203,-1.784549,-0.407447,0.233355,-1.000442,-0.55969,3.625103,-0.064402
10,4133360455,301.92328,35.879,264.90384,-2.614377,1.6351497,-6.405736,-4.896778,33.19124,-2.6898246,-0.45102,0.260607,-1.107204,-0.641303,4.17829,-0.109232
11,4133377122,301.82812,35.181076,265.0539,-2.8681626,1.6562867,-6.026472,-5.2193804,34.14813,-3.6676052,-0.498823,0.288212,-1.207645,-0.728293,4.747425,-0.170359
12,4133393789,301.71085,34.404667,265.23145,-3.289474,1.6777924,-5.4580784,-5.565648,34.323185,-4.880271,-0.553648,0.316175,-1.298613,-0.821054,5.319478,-0.251697
13,4133410456,301.57446,33.54481,265.43433,-3.8337536,1.7005742,-4.7473125,-5.939648,34.019073,-6.2968254,-0.617544,0.344518,-1.377735,-0.920048,5.886463,-0.356644
14,4133427123,301.43738,32.91755,265.58472,-4.178674,1.707181,-4.2697363,-6.6082892,32.52967,-6.9971104,-0.687189,0.372971,-1.448897,-1.030186,6.428624,-0.473263
15,4133443790,301.2988,32.551964,265.67737,-4.3187475,1.695505,-4.0341063,-7.59888,29.618896,-6.914007,-0.759168,0.401229,-1.516132,-1.156834,6.922272,-0.588496
16,4133460457,301.1516,32.294033,265.74792,-4.378552,1.6743706,-3.891803,-8.790314,25.806448,-6.463784,-0.832144,0.429135,-1.580995,-1.303339,7.352379,-0.696226
17,4133477124,300.9999,32.232983,265.77512,-4.275241,1.6386265,-3.940107,-10.260819,20.826866,-5.391263,-0.903398,0.456445,-1.646663,-1.474353,7.699493,-0.78608
18,4133493791,300.82834,32.183372,265.80835,-4.247855,1.5975742,-3.9054253,-11.856691,14.752111,-4.274441,-0.974196,0.483071,-1.711753,-1.671965,7.945362,-0.857321
19,4133510458,300.63562,32.1351,265.8504,-4.308473,1.5516137,-3.7737596,-13.57398,7.573224,-3.1410491,-1.046004,0.508931,-1.774649,-1.898198,8.071582,-0.909672
20,4133527125,300.4325,32.260384,265.85785,-4.267375,1.4913691,-3.7646682,-15.56182,-1.017236,-1.4758928,-1.117127,0.533787,-1.837393,-2.157562,8.054628,-0.93427
21,4133543792,300.2152,32.523254,265.8407,-4.175217,1.4184778,-3.8204353,-17.793755,-11.048034,0.60771525,-1.186714,0.557428,-1.901067,-2.454125,7.870494,-0.924141
22,4133560459,299.95563,32.803013,265.87073,-4.1119556,1.3880591,-3.875849,-19.58274,-19.216864,1.5276092,-1.255247,0.580562,-1.965664,-2.780504,7.550213,-0.898681
23,4133577126,299.6517,33.114628,265.94894,-4.062007,1.4041066,-3.9522722,-20.88466,-25.286945,1.199666,-1.322947,0.603964,-2.031535,-3.128582,7.128764,-0.878687
24,4133593793,299.31354,33.495747,266.04764,-4.0213733,1.4414827,-4.042592,-22.010674,-30.879408,0.30135345,-1.38997,0.627989,-2.098912,-3.495427,6.614107,-0.873664
25,4133610460,298.93292,33.92325,266.18512,-4.005533,1.5154266,-4.1372986,-22.773554,-35.100323,-1.5949562,-1.456729,0.653246,-2.167867,-3.874986,6.029102,-0.900247
26,4133627127,298.52808,34.517464,266.30804,-3.9182181,1.5913568,-4.3325977,-23.616198,-39.99353,-3.4317582,-1.522033,0.679769,-2.240077,-4.268589,5.362543,-0.957443
27,4133643794,298.09888,35.288853,266.4136,-3.7565088,1.6675315,-4.6319523,-24.562735,-45.703766,-5.157772,-1.584641,0.707561,-2.317276,-4.677968,4.600814,-1.043406
28,4133660461,297.62857,36.16286,266.544,-3.5795727,1.7747065,-4.982546,-25.22813,-50.439915,-7.675434,-1.644301,0.737139,-2.400318,-5.098437,3.760149,-1.17133
29,4133677128,297.12012,37.170513,266.6878,-3.36552,1.9060471,-5.4074907,-25.702236,-54.632828,-10.771177,-1.700393,0.768906,-2.490443,-5.526808,2.849602,-1.35085
30,4133693795,296.69348,38.170307,266.77374,-3.230247,2.0085583,-5.7180405,-25.826641,-58.45162,-12.41556,-1.75423,0.802382,-2.585744,-5.957252,1.875408,-1.557776
31,4133710462,296.35815,39.144917,266.7996,-3.1896744,2.081441,-5.893278,-25.529295,-61.663235,-12.528873,-1.807391,0.837073,-2.683965,-6.38274,0.847687,-1.766591
32,4133727129,296.0589,40.18733,266.7912,-3.1724377,2.1456656,-6.041007,-24.93714,-64.455444,-11.933307,-1.860265,0.872834,-2.784648,-6.798359,-0.22657,-1.965479
33,4133743796,295.82928,41.258923,266.72937,-3.2118,2.187743,-6.108467,-23.981817,-66.78194,-10.088467,-1.913795,0.909296,-2.886456,-7.198056,-1.339602,-2.13362
34,4133760463,295.5946,42.429928,266.66608,-3.254775,2.2469964,-6.1940603,-22.644836,-68.06559,-8.413122,-1.968041,0.946746,-2.98969,-7.57547,-2.474028,-2.273839
35,4133777130,295.3512,43.710842,266.60294,-3.295578,2.3256297,-6.307122,-20.917622,-68.26257,-6.972254,-2.022967,0.985506,-3.094809,-7.924097,-3.611738,-2.390043
36,4133793797,295.16626,45.03466,266.49707,-3.3898535,2.3926797,-6.352743,-18.73524,-67.572685,-4.5871477,-2.079465,1.025384,-3.200688,-8.236351,-4.737949,-2.466495
37,4133810464,295.0251,46.41841,266.35864,-3.5266852,2.456635,-6.351674,-16.077778,-65.82735,-1.5469804,-2.138243,1.066328,-3.306549,-8.504314,-5.835071,-2.492278
38,4133827131,294.88318,47.646904,266.20605,-3.631834,2.5147364,-6.4033527,-14.280583,-64.1212,0.4794324,-2.198774,1.10824,-3.413272,-8.742324,-6.903758,-2.484287
39,4133843798,294.74634,48.689392,266.03506,-3.706787,2.5629501,-6.5036354,-13.451122,-62.524857,1.4833081,-2.260554,1.150956,-3.521666,-8.966509,-7.945839,-2.459565
40,4133860465,294.6274,49.65841,265.84302,-3.780529,2.6083088,-6.618127,-12.931838,-60.354332,2.0683057,-2.323563,1.194428,-3.631968,-9.18204,-8.951745,-2.425093
41,4133877132,294.51788,50.488388,265.63278,-3.8355503,2.6488519,-6.7697935,-13.090302,-57.879032,1.8097539,-2.387489,1.238576,-3.744798,-9.400212,-9.916396,-2.39493
42,4133893799,294.4632,51.28817,265.3811,-3.929628,2.6781716,-6.8763466,-13.118834,-54.44942,1.9952682,-2.452983,1.283212,-3.859404,-9.618859,-10.823886,-2.361676
43,4133910466,294.46698,52.061752,265.08627,-4.066927,2.6962786,-6.9325705,-12.964278,-49.963535,2.684245,-2.520765,1.32815,-3.974947,-9.83493,-11.656612,-2.316939
44,4133927133,294.50116,52.693523,264.7614,-4.204826,2.704166,-6.997506,-13.35099,-44.94929,2.8737812,-2.590845,1.373219,-4.091572,-10.057447,-12.405767,-2.269043
45,4133943800,294.5773,53.201393,264.40045,-4.3567247,2.7000532,-7.05221,-14.113376,-39.232918,2.8364668,-2.663457,1.41822,-4.209109,-10.29267,-13.059649,-2.221769
46,4133960467,294.64047,53.6766,264.1598,-4.4556003,2.7332149,-7.190443,-14.646922,-33.28166,2.7673492,-2.737717,1.463774,-4.32895,-10.536785,-13.614343,-2.175647
47,4133977134,294.6839,54.106483,264.0557,-4.4904227,2.807987,-7.4273834,-14.99587,-27.188005,2.563154,-2.812557,1.510574,-4.45274,-10.786716,-14.067476,-2.132928
48,4133993801,294.7432,54.45333,264.00974,-4.502596,2.8994489,-7.7049303,-15.345739,-20.59052,2.3137946,-2.8876,1.558898,-4.581156,-11.042478,-14.410651,-2.094365
49,4134010468,294.80328,54.732475,264.0667,-4.47189,3.0212603,-8.051209,-15.563533,-13.627922,2.036921,-2.962131,1.609252,-4.715343,-11.30187,-14.637783,-2.060416
50,4134027135,294.89124,54.852425,264.13892,-4.4272275,3.1448002,-8.425804,-16.19708,-6.1133904,1.353371,-3.035918,1.661665,-4.855773,-11.571821,-14.739673,-2.03786
51,4134043802,295.01105,54.80134,264.2215,-4.371163,3.268116,-8.8249855,-17.281036,1.9904042,0.25467402,-3.108771,1.716134,-5.002856,-11.859838,-14.7065,-2.033615
52,4134060469,295.13654,54.631794,264.39865,-4.270869,3.4174705,-9.29439,-18.442024,10.47143,-1.0684996,-3.179952,1.773092,-5.157762,-12.167205,-14.531976,-2.051423
53,4134077136,295.2741,54.317482,264.6538,-4.1316133,3.5870461,-9.826532,-19.80905,19.375216,-2.7069864,-3.248812,1.832876,-5.321538,-12.497356,-14.209056,-2.096539
54,4134093803,294.6516,53.91542,265.4102,-4.0090666,3.680099,-10.095623,-19.586872,27.938074,-3.8948162,-3.31563,1.894211,-5.489798,-12.823804,-13.743421,-2.161453
55,4134110470,293.18604,53.430695,266.72534,-3.9028668,3.6906362,-10.076496,-17.561054,36.04956,-4.551814,-3.380678,1.955722,-5.65774,-13.116488,-13.142595,-2.237317
56,4134127137,291.24274,52.8118,268.39337,-3.7888665,3.6605668,-9.91861,-14.671839,44.09573,-5.114376,-3.443826,2.016731,-5.82305,-13.361019,-12.407666,-2.322557
57,4134143804,288.59552,52.071136,270.54395,-3.6802454,3.5633597,-9.531187,-10.395651,51.841034,-5.370838,-3.505163,2.07612,-5.981903,-13.53428,-11.543649,-2.412071
58,4134160471,285.68036,51.178596,272.96057,-3.5349927,3.461761,-9.11455,-5.681506,59.675842,-5.725848,-3.56408,2.133816,-6.133812,-13.628972,-10.549052,-2.507502
59,4134177138,282.51178,50.123924,275.63977,-3.349505,3.3585873,-8.678343,-0.582571,67.60928,-6.219161,-3.619905,2.189792,-6.278451,-13.638682,-9.422231,-2.611155
60,4134193805,278.664,48.929047,278.81244,-3.1549864,3.199026,-8.041726,5.8497267,75.22391,-6.466609,-3.672488,2.243109,-6.41248,-13.541187,-8.168499,-2.718932
61,4134210472,274.21344,47.58248,282.44553,-2.9414048,2.9954364,-7.2436476,13.440367,82.58072,-6.5551825,-3.721511,2.293033,-6.533207,-13.317181,-6.792154,-2.828185
62,4134227139,273.8612,46.15995,282.65015,-2.7369537,2.8352556,-6.649873,20.032988,89.792366,-6.8929243,-3.767127,2.340287,-6.644038,-12.983298,-5.295615,-2.943067
63,4134243806,278.01593,44.66838,279.07184,-2.5474086,2.7192733,-6.2699375,25.569666,96.78845,-7.4654303,-3.809584,2.385608,-6.748537,-12.557137,-3.682474,-3.067491
64,4134260473,284.51044,43.060467,273.52234,-2.3518615,2.613544,-5.953702,30.981989,103.52898,-8.134653,-3.848782,2.429167,-6.847765,-12.040771,-1.956991,-3.203069
65,4134277140,294.678,41.356018,264.89276,-2.1589103,2.5401382,-5.7956276,35.719368,110.00411,-8.99672,-3.884764,2.471503,-6.944359,-11.445448,-0.123589,-3.353014
66,4134293807,305.6894,39.509098,255.49062,-1.9588566,2.4328895,-5.532527,41.311096,116.002266,-9.718109,-3.917412,2.512051,-7.036568,-10.75693,1.809782,-3.514982
67,4134310474,317.42413,37.51331,245.41331,-1.7500024,2.2880807,-5.149474,47.859413,121.48157,-10.279895,-3.946579,2.550186,-7.122393,-9.959273,3.834475,-3.686314
68,4134327141,332.4969,35.407375,232.50607,-1.5448227,2.157186,-4.8578806,54.141823,126.51097,-10.925493,-3.972326,2.586139,-7.203358,-9.056909,5.942991,-3.868406
69,4134343808,350.3751,33.179653,217.19943,-1.3413076,2.0258236,-4.6014547,60.494766,131.01384,-11.579956,-3.994681,2.619903,-7.280049,-8.048663,8.126555,-4.061405
70,4134360475,351.99835,31.043251,197.5159,-1.3274069,1.9239701,-4.318777,69.33511,133.21558,-12.799007,-4.016804,2.651969,-7.352029,-6.893078,10.346815,-4.274722
71,4134377142,335.8294,29.02406,172.89703,-1.5247431,1.8607883,-4.0300817,80.76504,132.90727,-14.664567,-4.042216,2.682982,-7.419197,-5.546994,12.561936,-4.519131
72,4134393809,310.51477,27.013412,144.47366,-1.8446097,1.8124032,-3.726793,93.885994,130.83284,-16.862083,-4.072959,2.713189,-7.48131,-3.982227,14.742483,-4.800166
73,4134410476,270.6922,25.074192,111.50833,-2.3428802,1.7893367,-3.3997333,109.35774,126.44795,-19.558458,-4.112007,2.743011,-7.537972,-2.159598,16.849949,-5.12614
74,4134427143,228.07333,23.09159,74.46203,-2.91541,1.7875504,-3.1394708,125.49269,120.73359,-22.4935,-4.160597,2.772804,-7.590297,-0.068053,18.862175,-5.501032
75,4134443810,183.16212,21.060333,33.253384,-3.5594397,1.806349,-2.9486187,142.24593,113.67948,-25.65108,-4.219921,2.80291,-7.639441,2.302712,20.756833,-5.92855
76,4134460477,125.297676,19.095345,-13.119446,-4.378932,1.8579763,-2.7769616,161.0513,104.27199,-29.314255,-4.292903,2.833876,-7.685724,4.9869,22.494699,-6.417121
77,4134477144,56.711258,17.17611,-64.71048,-5.356348,1.9426465,-2.6458251,181.58736,92.651276,-33.43759,-4.382175,2.866253,-7.729821,8.013356,24.038887,-6.974414
78,4134493811,8.899017,15.392036,-100.30533,-5.857395,1.9068036,-2.5177684,192.7016,84.58233,-35.520878,-4.479798,2.898033,-7.771784,11.225049,25.448592,-7.566429
79,4134510478,-16.594254,13.7726555,-118.03615,-5.8358407,1.7381697,-2.3871202,193.46317,80.45347,-35.35956,-4.577062,2.927002,-7.811569,14.449435,26.789483,-8.155755
80,4134527145,-33.34857,12.267937,-128.03606,-5.5822353,1.5103495,-2.2891347,188.91124,77.585686,-34.107174,-4.670099,2.952174,-7.849721,17.597956,28.082578,-8.724208
81,4134543812,-32.93596,10.913719,-124.32965,-4.9212456,1.180818,-2.214677,175.88792,77.54958,-31.061825,-4.75212,2.971854,-7.886632,20.529421,29.375071,-9.241905
82,4134560479,-36.62857,9.69574,-119.57167,-4.250927,0.84244704,-2.1752992,161.21536,76.66498,-27.745258,-4.822969,2.985895,-7.922887,23.216344,30.652821,-9.704326
83,4134577146,-45.55052,8.620285,-114.41551,-3.5916963,0.50064147,-2.176615,145.16658,74.71458,-24.228235,-4.882831,2.994239,-7.959164,25.635787,31.898064,-10.10813
84,4134593813,-41.768173,7.7333755,-97.207184,-2.5897484,0.071548104,-2.2067018,121.48606,74.90563,-19.122929,-4.925993,2.995431,-7.995942,27.660555,33.146491,-10.426845
85,4134610480,-29.660889,7.0410233,-70.39757,-1.3239889,-0.42626512,-2.2703571,91.45554,76.48345,-12.721766,-4.948059,2.988327,-8.033781,29.184814,34.421215,-10.638874
86,4134627147,-25.113617,6.263153,-56.303955,-0.5262823,-0.789248,-2.2572906,73.23693,74.35282,-8.372312,-4.95683,2.975173,-8.071403,30.40543,35.660429,-10.778413
87,4134643814,-27.276215,5.3876114,-55.379715,-0.21857452,-1.0091504,-2.155798,67.687065,68.44924,-6.1995516,-4.960473,2.958354,-8.107333,31.533548,36.80125,-10.881739
88,4134660481,-31.40921,4.5596695,-58.473877,-0.1028986,-1.1707059,-2.0222743,66.9512,60.703472,-4.7906027,-4.962188,2.938842,-8.141038,32.649401,37.812975,-10.961582
89,4134677148,-41.20082,3.7090454,-71.28102,-0.3701973,-1.2199336,-1.8251059,75.867195,49.81232,-5.0245504,-4.968358,2.91851,-8.171456,33.913854,38.64318,-11.045325
90,4134693815,-42.575912,3.0230484,-77.549164,-0.49856186,-1.2974449,-1.6281335,82.10771,39.58625,-4.5670547,-4.976667,2.896886,-8.198592,35.282316,39.302951,-11.121443
91,4134710482,-34.819504,2.5210648,-76.305115,-0.4605341,-1.410335,-1.4351931,84.99735,30.21329,-3.2883108,-4.984343,2.87338,-8.222512,36.698939,39.806506,-11.176248
92,4134727149,-27.89116,2.0534744,-80.43767,-0.68001366,-1.4416898,-1.1861324,94.87103,18.685663,-3.1066592,-4.995677,2.849352,-8.242281,38.280123,40.117934,-11.228026
93,4134743816,-18.626572,1.6653137,-86.41783,-1.0472336,-1.420513,-0.8934157,109.169174,5.810805,-3.5306327,-5.013131,2.825677,-8.257171,40.099609,40.214781,-11.28687
94,4134760483,-12.433075,1.3962936,-88.84592,-1.217308,-1.4363934,-0.7159741,115.41281,-4.0287676,-3.6235173,-5.033419,2.801737,-8.269104,42.023156,40.147635,-11.347262
95,4134777150,-10.825623,1.2350693,-88.72699,-1.2098761,-1.482598,-0.6605661,113.72795,-10.757186,-3.5411708,-5.053584,2.777027,-8.280113,43.918622,39.968349,-11.406282
96,4134793817,-8.933792,1.1970139,-86.18921,-1.1153784,-1.5352327,-0.65938807,108.35387,-15.889436,-3.4061592,-5.072174,2.75144,-8.291103,45.72452,39.703525,-11.463051
97,4134810484,-8.492783,1.2904892,-80.14075,-0.8524523,-1.6144825,-0.7545061,96.17771,-18.270712,-3.0344112,-5.086382,2.724532,-8.303678,47.327482,39.399013,-11.513625
98,4134827151,-8.761612,1.4617157,-76.96187,-0.73266125,-1.6366528,-0.83721805,87.17767,-21.20932,-3.477886,-5.098593,2.697254,-8.317632,48.780443,39.045524,-11.57159
99,4134843818,-9.356018,1.7137604,-76.76878,-0.7679634,-1.5976228,-0.90160275,81.80133,-24.808996,-4.781459,-5.111392,2.670627,-8.332659,50.143799,38.632041,-11.651281
100,4134860485,-12.199982,2.0812454,-75.540405,-0.73633957,-1.5549132,-1.0381718,72.45465,-26.405321,-6.289912,-5.123664,2.644712,-8.349962,51.351377,38.191952,-11.756113
101,4134877152,-17.14418,2.5547638,-74.67003,-0.70548344,-1.4895273,-1.2242835,61.269257,-26.658846,-8.24825,-5.135422,2.619887,-8.370367,52.372531,37.747638,-11.893584
102,4134893819,-19.709473,2.9648285,-73.18346,-0.6868725,-1.3908895,-1.3657947,52.85607,-27.909958,-9.961371,-5.14687,2.596706,-8.39313,53.253466,37.282472,-12.059607
103,4134910486,-19.87207,3.2985153,-70.651566,-0.65851784,-1.2630357,-1.4652393,46.79409,-30.033077,-11.315588,-5.157845,2.575655,-8.417551,54.033368,36.781921,-12.2482
104,4134927153,-19.753662,3.6296768,-68.575424,-0.6632948,-1.0965554,-1.5524061,42.376007,-32.332695,-12.831518,-5.1689,2.557379,-8.443424,54.739635,36.243043,-12.462059
105,4134943820,-18.294739,3.9105835,-66.65538,-0.6994133,-0.88893926,-1.604336,40.68139,-35.35301,-14.314042,-5.180557,2.542563,-8.470163,55.417658,35.653826,-12.700626
106,4134960487,-18.580185,4.2506943,-64.44469,-0.70390224,-0.65947676,-1.6996357,37.07798,-36.978207,-16.022722,-5.192289,2.531572,-8.49849,56.035624,35.037523,-12.967671
107,4134977154,-20.917831,4.6541977,-62.128067,-0.6802845,-0.40626585,-1.8417821,31.486765,-37.099846,-18.013918,-5.203627,2.524801,-8.529186,56.560403,34.419192,-13.267903
108,4134993821,-22.951248,5.023361,-59.703293,-0.65785503,-0.116862416,-1.9725127,27.125784,-37.206203,-19.995691,-5.214591,2.522853,-8.562061,57.012499,33.799089,-13.601165
109,4135010488,-25.43074,5.3790665,-57.136322,-0.6238861,0.20579994,-2.1088245,23.03042,-36.81968,-22.034027,-5.224989,2.526283,-8.597208,57.396339,33.185428,-13.968399
110,4135027155,-27.418549,5.6580353,-54.947815,-0.5560665,0.46978617,-2.1771502,17.692139,-35.075645,-23.323223,-5.234257,2.534113,-8.633494,57.691208,32.600834,-14.357119
111,4135043822,-28.59871,5.8384323,-53.17975,-0.45322514,0.6675411,-2.163417,11.3053,-32.025536,-23.73861,-5.241811,2.545239,-8.669551,57.87963,32.067075,-14.752762
112,4135060489,-29.991608,5.96064,-51.584244,-0.3160391,0.8407924,-2.113857,3.912262,-27.717634,-23.70155,-5.247078,2.559252,-8.704782,57.944834,31.605114,-15.147788
113,4135077156,-31.29332,5.9995804,-50.30426,-0.13706303,0.963582,-2.0053315,-4.8396373,-21.921543,-22.96116,-5.249362,2.575312,-8.738204,57.864173,31.239755,-15.530474
114,4135093823,-32.573868,5.9615326,-49.143326,0.06208229,1.0937455,-1.8649695,-13.20101,-15.480105,-21.91913,-5.248327,2.593541,-8.769287,57.644156,30.981753,-15.895793
115,4135110490,-33.939056,5.8431854,-48.095047,0.2832775,1.233798,-1.6946983,-21.172089,-8.364596,-20.586277,-5.243606,2.614104,-8.797532,57.291288,30.842343,-16.238898
116,4135127157,-35.093872,5.61454,-47.38745,0.5452461,1.331558,-1.4593179,-29.930365,0.0652286,-18.52467,-5.234519,2.636297,-8.821854,56.792449,30.84343,-16.547642
117,4135143824,-36.073944,5.271263,-46.991837,0.8452606,1.3981314,-1.1628544,-39.122276,9.665635,-15.796626,-5.220431,2.659599,-8.841235,56.140411,31.004524,-16.810919
118,4135160491,-37.155075,5.0309677,-46.385086,1.0249548,1.4091103,-0.89348507,-44.018707,15.947844,-13.712213,-5.203348,2.683084,-8.856126,55.406766,31.270321,-17.039456
119,4135177158,-38.307983,4.9050217,-45.560684,1.0718174,1.3537829,-0.6527884,-44.26181,18.548897,-12.31938,-5.185484,2.705647,-8.867006,54.669069,31.579469,-17.244779
120,4135193825,-39.42282,4.781891,-44.761185,1.0597382,1.2493631,-0.39956176,-41.82424,19.49825,-11.0173855,-5.167822,2.72647,-8.873665,53.971998,31.90444,-17.428402
121,4135210492,-40.550583,4.7174377,-43.85965,0.9446068,1.0851723,-0.15540361,-35.361076,17.531013,-10.142392,-5.152079,2.744556,-8.876255,53.382647,32.196624,-17.597442
122,4135227159,-41.489914,4.5697403,-43.23712,0.82510185,0.859374,0.14233899,-27.920639,15.443826,-8.790538,-5.138327,2.758879,-8.873883,52.917303,32.454021,-17.743951
123,4135243826,-42.21698,4.3252563,-42.928207,0.7063894,0.5700285,0.49929106,-19.586987,13.356187,-6.894065,-5.126554,2.768379,-8.865561,52.590853,32.676624,-17.858852
124,4135260493,-42.863297,4.100525,-42.64293,0.5000868,0.20623422,0.86703235,-7.6119933,8.73592,-5.183322,-5.118219,2.771816,-8.85111,52.463986,32.822223,-17.945241
125,4135277160,-43.374573,3.8625336,-42.472336,0.22571754,-0.23524392,1.2603823,7.445365,2.1174698,-3.456558,-5.114457,2.767895,-8.830104,52.588075,32.857514,-18.00285
126,4135293827,-43.51181,3.6653137,-42.472916,0.08221626,-0.49194264,1.4487889,17.542006,-1.0253423,-1.6703093,-5.113087,2.759696,-8.805958,52.880442,32.840425,-18.030688
127,4135310494,-43.25531,3.52771,-42.622543,0.07662487,-0.54184103,1.4036385,22.29887,-0.5296519,0.09304547,-5.11181,2.750665,-8.782564,53.25209,32.831597,-18.029137
128,4135327161,-42.66893,3.4006424,-42.9644,0.12677002,-0.51319623,1.2438407,25.208134,1.3222162,1.9533323,-5.109697,2.742112,-8.761833,53.672226,32.853634,-17.996581
129,4135343828,-41.678375,3.3034897,-43.5103,0.28495598,-0.33311677,0.9012732,24.129375,5.949506,3.8973837,-5.104948,2.73656,-8.746812,54.074382,32.952792,-17.931625
130,4135360495,-40.436142,3.231491,-44.16794,0.41153812,-0.15937042,0.49750644,24.540083,9.450041,5.722845,-5.098089,2.733904,-8.73852,54.483383,33.110293,-17.836244
131,4135377162,-38.932556,3.1823044,-44.94557,0.49922752,-0.0016175508,0.038267255,26.746252,11.598365,7.4312267,-5.089769,2.733877,-8.737882,54.929154,33.303599,-17.71239
132,4135393829,-37.017014,3.1768112,-45.901947,0.6627035,0.2830966,-0.5995867,26.166788,15.546491,9.103528,-5.078724,2.738595,-8.747875,55.365267,33.562707,-17.560665
133,4135410496,-34.70787,3.2153854,-47.022415,0.87281895,0.6630388,-1.3944685,23.94394,20.460073,10.691536,-5.064177,2.749646,-8.771116,55.764333,33.903708,-17.382473
134,4135427163,-32.751907,3.123001,-48.086212,0.9487238,0.86456454,-1.874013,23.752987,23.601254,11.631352,-5.048365,2.764055,-8.80235,56.160216,34.297062,-17.188617
135,4135443830,-31.193726,2.8876038,-49.079132,0.88703346,0.8810968,-2.011593,25.351688,25.08688,11.860244,-5.033581,2.77874,-8.835877,56.582744,34.715177,-16.990946
136,4135460497,-29.682343,2.5939102,-50.097565,0.7537861,0.8226235,-2.0196023,27.73852,25.64579,11.598463,-5.021018,2.79245,-8.869537,57.045053,35.142607,-16.797638
137,4135477164,-28.417542,2.1946793,-51.080627,0.50173855,0.6184333,-1.7711132,31.756556,24.612654,10.672377,-5.012656,2.802757,-8.899056,57.574329,35.552818,-16.619765
138,4135493831,-26.908813,1.797821,-52.178635,0.2656212,0.46594167,-1.5760562,34.052826,24.38078,9.417431,-5.008229,2.810523,-8.925324,58.141876,35.959164,-16.462808
139,4135510498,-25.123169,1.4107208,-53.398743,0.050741196,0.37571472,-1.4523435,34.47072,25.027033,7.8280687,-5.007383,2.816785,-8.94953,58.716388,36.376281,-16.33234
140,4135527165,-23.476715,0.9386902,-54.612244,-0.25109673,0.18907309,-1.1352448,35.352776,24.798374,5.5687437,-5.011568,2.819936,-8.968451,59.305601,36.789587,-16.239528
141,4135543832,-21.86493,0.40431213,-55.84935,-0.61235714,-0.05212128,-0.68889594,35.948288,24.199493,2.687932,-5.021774,2.819067,-8.979933,59.904739,37.192912,-16.194729
142,4135560499,-20.275879,-0.0015945435,-56.97081,-0.8167839,-0.19638216,-0.41209412,35.964584,23.548939,0.82014966,-5.035387,2.815794,-8.986801,60.504149,37.585394,-16.18106
143,4135577166,-18.763962,-0.27272034,-57.94368,-0.8565426,-0.24830234,-0.29867804,35.593796,22.678734,0.06683159,-5.049663,2.811656,-8.991779,61.097379,37.963373,-16.179946
144,4135593833,-17.26793,-0.48446655,-58.85083,-0.8155098,-0.25126314,-0.24829304,34.416466,21.783623,-0.32887506,-5.063255,2.807468,-8.995917,61.670987,38.326433,-16.185427
145,4135610500,-15.804352,-0.58636475,-59.64427,-0.63587284,-0.1678958,-0.33392918,32.3823,20.90049,0.07407421,-5.073853,2.80467,-9.001482,62.210692,38.674774,-16.184192
146,4135627167,-14.489868,-0.7132721,-60.366745,-0.47184277,-0.12707114,-0.31162047,30.216345,19.375845,0.21372837,-5.081717,2.802552,-9.006676,62.714298,38.997705,-16.18063
147,4135643834,-13.331253,-0.8711853,-61.01709,-0.32950878,-0.13313103,-0.16942763,27.855627,17.210407,0.024512172,-5.087209,2.800333,-9.0095,63.178558,39.284545,-16.180221
148,4135660501,-12.29451,-0.94893646,-61.526062,-0.081189156,-0.090185285,-0.08935714,24.880932,14.747628,0.41832453,-5.088562,2.79883,-9.010989,63.59324,39.530339,-16.173249
149,4135677168,-11.413422,-0.9740677,-61.89572,0.2421484,-0.025300026,-0.018201351,21.414429,11.841506,1.1737897,-5.084526,2.798408,-9.011292,63.950147,39.727697,-16.153686
150,4135693835,-10.557083,-1.0366516,-62.33133,0.41650295,-0.014475226,0.064845204,18.16469,9.294315,1.5293365,-5.077584,2.798167,-9.010211,64.252892,39.882602,-16.128197
151,4135710502,-9.722092,-1.1307373,-62.83571,0.43671894,-0.05425048,0.14172387,15.153738,7.2018223,1.533303,-5.070305,2.797263,-9.007849,64.505454,40.002632,-16.102642
152,4135727169,-9.00473,-1.2310867,-63.30519,0.38898468,-0.12731063,0.24005044,12.119049,5.0709343,1.4050293,-5.063822,2.795141,-9.003848,64.707438,40.087148,-16.079225
153,4135743836,-8.377777,-1.3582687,-63.788452,0.21492195,-0.2524798,0.3606571,9.250701,3.1240268,0.9706776,-5.06024,2.790933,-8.997837,64.861616,40.139215,-16.063047
154,4135760503,-7.922165,-1.4293747,-64.137924,0.07953453,-0.36032534,0.4456601,5.978962,0.9815051,0.91476834,-5.058914,2.784928,-8.990409,64.961265,40.155573,-16.047801
155,4135777170,-7.6575623,-1.4402542,-64.33716,-0.009529114,-0.44941604,0.49649793,2.2809124,-1.402898,1.272415,-5.059073,2.777438,-8.982134,64.99928,40.132191,-16.026594
156,4135793837,-7.527954,-1.4484482,-64.49663,-0.1848154,-0.57059085,0.541676,-1.3931799,-3.64956,1.5653017,-5.062153,2.767928,-8.973106,64.97606,40.071365,-16.000506
157,4135810504,-7.5603027,-1.4351349,-64.5791,-0.41196537,-0.70964026,0.5687372,-5.1612406,-5.8421288,1.9483932,-5.069019,2.756101,-8.963627,64.890039,39.973996,-15.968033
158,4135827171,-7.7931824,-1.3887253,-64.374664,-0.5087347,-0.7932842,0.55997807,-7.657583,-7.678619,2.0032399,-5.077498,2.74288,-8.954294,64.762413,39.846019,-15.934646
159,4135843838,-8.23114,-1.3132477,-63.870728,-0.4736271,-0.8200822,0.5145402,-8.683541,-9.071204,1.6424866,-5.085392,2.729212,-8.945718,64.617687,39.694832,-15.907271
160,4135860505,-8.882629,-1.2000198,-63.135452,-0.3698349,-0.814955,0.43076646,-8.952955,-10.211755,1.1778038,-5.091556,2.715629,-8.938539,64.468471,39.524636,-15.887641
161,4135877172,-9.763153,-1.046341,-62.108032,-0.15026474,-0.7584199,0.30245388,-8.048023,-10.989001,0.48110545,-5.09406,2.702989,-8.933498,64.334337,39.341486,-15.879623
162,4135893839,-10.851959,-0.8722,-60.928192,0.044506073,-0.7067909,0.1470412,-6.625337,-11.480174,-0.31922507,-5.093318,2.691209,-8.931047,64.223915,39.15015,-15.884943
163,4135910506,-12.158356,-0.67585754,-59.59424,0.20919514,-0.6616825,-0.037718892,-4.7054567,-11.679586,-1.1995463,-5.089831,2.680181,-8.931676,64.145491,38.95549,-15.904935
164,4135927173,-13.711792,-0.4444046,-57.978653,0.45460606,-0.577791,-0.26744282,-1.5682392,-11.434808,-2.3384643,-5.082254,2.670551,-8.936133,64.119354,38.76491,-15.943909
165,4135943840,-15.515442,-0.18099976,-56.10382,0.75182915,-0.46628666,-0.5404092,2.6836033,-10.7434635,-3.7107298,-5.069724,2.66278,-8.94514,64.164081,38.585852,-16.005754
166,4135960507,-16.734955,-0.006538391,-54.81163,0.9138813,-0.3955449,-0.69421864,5.1943874,-9.937361,-4.451662,-5.054493,2.656188,-8.95671,64.250654,38.420229,-16.079948
167,4135977174,-17.294907,0.06842041,-54.165634,0.93589497,-0.3663305,-0.7156606,5.8128195,-9.00624,-4.5069113,-5.038895,2.650082,-8.968638,64.347534,38.270125,-16.155063
168,4135993841,-17.594864,0.09892273,-53.77954,0.8868761,-0.35336173,-0.6812911,5.8538113,-7.769855,-4.272503,-5.024114,2.644193,-8.979993,64.445098,38.140627,-16.226271
169,4136010508,-17.398895,0.05054474,-53.887222,0.71733093,-0.37418234,-0.54578555,4.560008,-6.2968416,-3.5142915,-5.012158,2.637957,-8.989089,64.521098,38.03568,-16.284843
170,4136027175,-17.204834,-0.002380371,-53.96103,0.5652113,-0.3763392,-0.4095006,3.8171072,-4.3257637,-2.7776265,-5.002738,2.631685,-8.995914,64.584716,37.963584,-16.331137
171,4136043842,-17.03804,-0.05683899,-53.97444,0.43564034,-0.35737658,-0.27779925,3.7494392,-1.8177844,-2.093779,-4.995477,2.625729,-9.000544,64.647207,37.933288,-16.366033
172,4136060509,-16.438812,-0.1811142,-54.398468,0.21648121,-0.35840607,-0.060379267,2.768485,1.0538688,-0.986346,-4.991869,2.619756,-9.00155,64.693348,37.950852,-16.382472
173,4136077176,-15.503204,-0.36121368,-55.128998,-0.06443596,-0.36834002,0.22290707,1.276187,4.363753,0.43354714,-4.992943,2.613617,-8.997835,64.714618,38.023581,-16.375246
174,4136093843,-15.02211,-0.47844696,-55.500977,-0.22796345,-0.36580443,0.3832674,-0.123968124,6.613283,1.2521751,-4.996742,2.60752,-8.991447,64.712552,38.133802,-16.354376
175,4136110510,-15.003784,-0.53165436,-55.517517,-0.2710352,-0.35370445,0.41505098,-1.5808573,7.643886,1.4444128,-5.001259,2.601625,-8.984529,64.686204,38.2612,-16.330302
176,4136127177,-15.128342,-0.5694046,-55.432175,-0.26044464,-0.3347019,0.39554107,-3.1180718,8.223942,1.3716822,-5.0056,2.596047,-8.977937,64.634236,38.398266,-16.307441
177,4136143844,-15.593994,-0.5620804,-55.08136,-0.14973927,-0.30421782,0.27555585,-4.635042,7.9248266,0.7952282,-5.008096,2.590977,-8.973344,64.556985,38.530346,-16.294187
178,4136160511,-15.810333,-0.5987625,-54.983917,-0.0736084,-0.28547776,0.18948591,-6.8959713,7.5895395,0.37193108,-5.009323,2.586219,-8.970186,64.442052,38.656838,-16.287988
179,4136177178,-15.740143,-0.68527985,-55.17128,-0.038033485,-0.2791412,0.14455044,-9.935633,7.2688084,0.13354295,-5.009957,2.581567,-8.967777,64.276458,38.777985,-16.285762
180,4136193845,-15.842102,-0.75284576,-55.250565,0.06408882,-0.27004802,0.031655908,-13.313302,6.158174,-0.4531268,-5.008889,2.577066,-8.967249,64.05457,38.880621,-16.293314
181,4136210512,-15.985611,-0.82134247,-55.337418,0.2046957,-0.26332366,-0.12084377,-17.21336,4.4207063,-1.2514241,-5.005477,2.572677,-8.969263,63.767681,38.954299,-16.314171
182,4136227179,-16.079956,-0.88614655,-55.428406,0.28071594,-0.2643708,-0.2107637,-19.474209,3.3538682,-1.6512387,-5.000798,2.568271,-8.972776,63.443111,39.010197,-16.341692
183,4136243846,-16.168365,-0.93904114,-55.480286,0.29532623,-0.2724434,-0.24170971,-19.856379,2.9607058,-1.6600568,-4.995876,2.56373,-8.976804,63.112171,39.059542,-16.36936
184,4136260513,-16.201721,-0.99635315,-55.577225,0.27863026,-0.28885412,-0.243083,-19.525047,2.7172394,-1.4761689,-4.991232,2.558916,-8.980855,62.786754,39.104829,-16.393963
185,4136277180,-16.168167,-1.0547028,-55.70752,0.20530891,-0.31506538,-0.18997443,-17.865215,2.9430184,-0.9466902,-4.98781,2.553665,-8.984021,62.489,39.153879,-16.409741
186,4136293847,-16.232635,-1.1001053,-55.77791,0.16365528,-0.34428,-0.17009926,-16.033195,2.6558764,-0.56686306,-4.985082,2.547927,-8.986856,62.22178,39.198144,-16.419189
187,4136310514,-16.393524,-1.1334152,-55.793808,0.15691566,-0.3769667,-0.1866988,-14.11335,1.7900075,-0.35647964,-4.982467,2.541644,-8.989968,61.986558,39.227977,-16.42513
188,4136327181,-16.561401,-1.1580658,-55.789246,0.11977959,-0.41801393,-0.17517853,-10.982874,1.0958087,0.061008334,-4.980471,2.534677,-8.992888,61.80351,39.24624,-16.424113
189,4136343848,-16.771896,-1.1707993,-55.744034,0.070996284,-0.46635127,-0.15421712,-6.8706408,0.35195795,0.5810719,-4.979288,2.526904,-8.995458,61.688999,39.252106,-16.414428
190,4136360515,-16.961166,-1.1779938,-55.68454,0.046715736,-0.48236096,-0.14452529,-4.4027386,-0.2705692,0.8802568,-4.978509,2.518865,-8.997867,61.61562,39.247597,-16.399757
191,4136377182,-17.117783,-1.1794205,-55.61171,0.043167114,-0.4627483,-0.14090276,-3.668679,-0.67276496,0.9704531,-4.97779,2.511153,-9.000215,61.554475,39.236384,-16.383583
192,4136393849,-17.299362,-1.169075,-55.49611,0.0562706,-0.42558408,-0.14650261,-3.5600839,-1.0938197,0.9328363,-4.976852,2.50406,-9.002657,61.49514,39.218154,-16.368036
193,4136410516,-17.489029,-1.1478653,-55.341705,0.09446335,-0.3596784,-0.16535687,-4.761682,-1.4640684,0.68693,-4.975278,2.498065,-9.005413,61.415779,39.193753,-16.356587
194,4136427183,-17.700577,-1.112587,-55.142014,0.11973381,-0.28961575,-0.1685574,-5.445614,-1.7033873,0.51879346,-4.973282,2.493238,-9.008222,61.325019,39.165363,-16.34794
195,4136443850,-17.941467,-1.06176,-54.890427,0.13165951,-0.21646607,-0.15607393,-5.5072145,-1.826392,0.43530858,-4.971088,2.48963,-9.010823,61.233232,39.134923,-16.340685
196,4136460517,-18.191986,-0.9969635,-54.590607,0.15635777,-0.1179018,-0.14548671,-6.4426208,-1.8061868,0.22463548,-4.968482,2.487665,-9.013248,61.125855,39.10482,-16.336941
197,4136477184,-18.457367,-0.91669464,-54.237457,0.18599129,0.0013781786,-0.13065755,-7.864491,-1.62264,-0.054500937,-4.965382,2.487688,-9.015426,60.99478,39.077776,-16.337849
198,4136493851,-18.692566,-0.8767166,-53.98616,0.20633125,0.074377,-0.11403942,-8.705101,-1.3709344,-0.2702005,-4.961943,2.488928,-9.017327,60.849695,39.054927,-16.342352
199,4136510518,-18.890823,-0.8822861,-53.85051,0.21875763,0.09773785,-0.09731746,-9.0488405,-1.0425072,-0.4345473,-4.958297,2.490557,-9.018949,60.698881,39.037552,-16.349594
200,4136527185,-19.077805,-0.9055252,-53.751526,0.22457504,0.10035199,-0.07481086,-9.143644,-0.56887305,-0.5706949,-4.954554,2.49223,-9.020196,60.546487,39.028071,-16.359106
201,4136543852,-19.239899,-0.9621277,-53.73227,0.22034931,0.0642544,-0.047302008,-8.745597,0.036105797,-0.6481879,-4.950882,2.493301,-9.020984,60.400727,39.028673,-16.369909
202,4136560519,-19.401657,-1.0191574,-53.69893,0.22155476,0.03456509,-0.018064022,-8.863841,0.83912086,-0.80209184,-4.947189,2.493877,-9.021285,60.252996,39.042658,-16.383277
203,4136577186,-19.564728,-1.0745926,-53.644775,0.22825623,0.013638735,0.013637662,-9.536623,1.8587508,-1.035995,-4.943385,2.494104,-9.021058,60.094052,39.073637,-16.400544
204,4136593853,-19.704437,-1.158844,-53.654343,0.22974586,-0.036667824,0.04892242,-10.064749,3.059235,-1.257555,-4.939556,2.493493,-9.020243,59.926306,39.124624,-16.421503
205,4136610520,-19.82547,-1.2653122,-53.708145,0.22914124,-0.10709727,0.08737004,-10.670143,4.4655733,-1.4958286,-4.935737,2.491708,-9.018787,59.74847,39.19905,-16.446433
206,4136627187,-19.949646,-1.3433151,-53.709427,0.22900009,-0.14749503,0.115505576,-10.901276,5.291676,-1.6288781,-4.93192,2.48925,-9.016862,59.566782,39.287245,-16.473581
207,4136643854,-20.075043,-1.3922958,-53.660492,0.22835732,-0.15801847,0.13205087,-10.643709,5.4617043,-1.6349652,-4.928114,2.486616,-9.014661,59.389387,39.378273,-16.50083
208,4136660521,-20.193634,-1.4324112,-53.595078,0.22808838,-0.1564709,0.14311802,-10.270496,5.3700314,-1.5919209,-4.924313,2.484008,-9.012276,59.218212,39.467774,-16.527362
209,4136677188,-20.309769,-1.450882,-53.489853,0.22859097,-0.13026893,0.14480484,-9.638216,4.794463,-1.4624622,-4.920503,2.481837,-9.009863,59.057575,39.547682,-16.551736
210,4136693855,-20.403564,-1.485527,-53.423447,0.22529316,-0.118765354,0.14557719,-8.832239,4.193274,-1.292444,-4.916748,2.479858,-9.007437,58.910371,39.61757,-16.573277
211,4136710522,-20.473068,-1.5385895,-53.400177,0.21815014,-0.12383938,0.14573812,-7.879018,3.5941358,-1.0861726,-4.913112,2.477794,-9.005008,58.779054,39.677472,-16.59138
212,4136727189,-20.531204,-1.5805511,-53.362015,0.20970249,-0.11527932,0.13750088,-6.6061287,2.5707195,-0.7865735,-4.909617,2.475873,-9.002716,58.668952,39.720317,-16.60449
213,4136743856,-20.572784,-1.6197205,-53.32643,0.19892311,-0.10151553,0.12243366,-5.028279,1.2133571,-0.40138698,-4.906302,2.474181,-9.000675,58.585147,39.74054,-16.61118
214,4136760523,-20.61821,-1.6555023,-53.293915,0.19307137,-0.095618725,0.11363435,-3.9798021,0.42612517,-0.12469339,-4.903084,2.472587,-8.998781,58.518817,39.747642,-16.613258
215,4136777190,-20.67009,-1.6843948,-53.258377,0.19301796,-0.09534681,0.11117327,-3.5077777,0.23518799,0.034940243,-4.899867,2.470998,-8.996928,58.460354,39.751562,-16.612676
216,4136793857,-20.71457,-1.7123489,-53.232224,0.19454956,-0.10031319,0.10968065,-3.2197406,0.2662838,0.16661298,-4.896625,2.469326,-8.9951,58.406692,39.756,-16.609899
217,4136810524,-20.757187,-1.738205,-53.214188,0.19971561,-0.11325598,0.112392664,-3.337049,0.75377333,0.2197684,-4.893296,2.467438,-8.993227,58.351075,39.768563,-16.606236
218,4136827191,-20.788208,-1.7548523,-53.190018,0.20494938,-0.11880362,0.109368086,-3.331073,1.0557274,0.32388163,-4.88988,2.465458,-8.991404,58.295557,39.786158,-16.600838
219,4136843858,-20.806,-1.7623978,-53.16069,0.20990753,-0.11672354,0.09992552,-3.1656353,1.1358697,0.48806483,-4.886382,2.463513,-8.989739,58.242796,39.805089,-16.592704
220,4136860525,-20.820038,-1.7630081,-53.132095,0.21817589,-0.11685026,0.09166098,-3.2938888,1.5137845,0.60506904,-4.882746,2.461565,-8.988211,58.187898,39.830319,-16.58262
221,4136877192,-20.827866,-1.7549362,-53.101334,0.22901917,-0.11587417,0.08232546,-3.603622,2.0528321,0.7030746,-4.878929,2.459634,-8.986839,58.127838,39.864533,-16.570902
222,4136893859,-20.795578,-1.7595901,-53.10881,0.2345314,-0.11393201,0.07289851,-3.641535,2.384196,0.8115517,-4.87502,2.457735,-8.985624,58.067146,39.90427,-16.557376
223,4136910526,-20.720795,-1.7787857,-53.158813,0.23447323,-0.11190045,0.06429982,-3.4225233,2.5361793,0.9199165,-4.871112,2.45587,-8.984552,58.010104,39.94654,-16.542044
224,4136927193,-20.617691,-1.800827,-53.230087,0.23213959,-0.10727954,0.05444646,-3.0873847,2.591553,1.0331689,-4.867243,2.454082,-8.983645,57.958648,39.989733,-16.524825
225,4136943860,-20.476746,-1.8314896,-53.33409,0.22548199,-0.10019827,0.043820024,-2.526688,2.4651523,1.1553569,-4.863485,2.452412,-8.982915,57.916537,40.030819,-16.505569
226,4136960527,-20.319351,-1.8586807,-53.44954,0.22001457,-0.09311581,0.033646703,-2.1200256,2.5053086,1.2423086,-4.859818,2.45086,-8.982354,57.881203,40.072574,-16.484864
227,4136977194,-20.146133,-1.8812027,-53.574936,0.2160492,-0.085697055,0.023784757,-1.8842692,2.723842,1.2927032,-4.856217,2.449432,-8.981958,57.849799,40.117971,-16.463319
228,4136993861,-19.93779,-1.9100037,-53.731186,0.20908833,-0.076752424,0.014089823,-1.5397816,2.8777559,1.3305256,-4.852732,2.448153,-8.981723,57.824136,40.165934,-16.441144
229,4137010528,-19.698303,-1.9424286,-53.914093,0.20029831,-0.066664696,0.004832387,-1.1689334,3.0426505,1.3452773,-4.849394,2.447042,-8.981642,57.804654,40.216645,-16.418723
230,4137027195,-19.48555,-1.9711227,-54.07393,0.19441223,-0.059156537,-0.0022230148,-0.94194984,3.1493404,1.3637993,-4.846154,2.446056,-8.981679,57.788955,40.269134,-16.395993
231,4137043862,-19.302353,-1.9968109,-54.20897,0.19133472,-0.054479957,-0.006787181,-0.845603,3.1661475,1.3895396,-4.842965,2.445148,-8.981792,57.774862,40.321903,-16.372834
232,4137060529,-19.123596,-2.021225,-54.34047,0.1896162,-0.05110216,-0.009423852,-0.85813475,3.1796963,1.4011025,-4.839805,2.444296,-8.981949,57.76056,40.374898,-16.349482
233,4137077196,-18.964676,-2.0427399,-54.4554,0.19043064,-0.05007124,-0.009517312,-1.0213385,3.1648912,1.4053049,-4.836631,2.443461,-8.982108,57.743538,40.427646,-16.32606
234,4137093863,-18.786407,-2.0683289,-54.5885,0.18987846,-0.048708797,-0.008099318,-1.1665378,3.0995092,1.3913034,-4.833466,2.442649,-8.982243,57.724096,40.479304,-16.302872
235,4137110530,-18.586685,-2.0983047,-54.741806,0.18781662,-0.046917915,-0.0050702095,-1.2934899,2.98981,1.3560218,-4.830336,2.441867,-8.982328,57.702538,40.529134,-16.280272
236,4137127197,-18.398392,-2.1279678,-54.88701,0.18719101,-0.046978712,0.0007276535,-1.5231586,2.8238122,1.3099401,-4.827216,2.441084,-8.982316,57.677152,40.576198,-16.25844
237,4137143864,-18.21341,-2.1588974,-55.031464,0.18718433,-0.048366547,0.009209037,-1.8224249,2.5964592,1.2496521,-4.824096,2.440278,-8.982163,57.646778,40.619472,-16.237612
238,4137160531,-18.055145,-2.1831818,-55.15013,0.18780613,-0.047773004,0.015850544,-2.0644474,2.410106,1.2005259,-4.820966,2.439482,-8.981899,57.612371,40.65964,-16.217603
239,4137177198,-17.930496,-2.1996002,-55.236725,0.18941307,-0.045194626,0.020467877,-2.2512293,2.2693284,1.1660303,-4.817809,2.438729,-8.981558,57.574851,40.697462,-16.198169
240,4137193865,-17.823486,-2.2130508,-55.307877,0.19145298,-0.04188168,0.025259018,-2.421235,2.1200082,1.1313213,-4.814618,2.438031,-8.981137,57.534497,40.732795,-16.179314
241,4137210532,-17.742584,-2.2211838,-55.35495,0.19403553,-0.03700781,0.029071212,-2.5424354,1.9876875,1.1038147,-4.811384,2.437414,-8.980652,57.492123,40.765923,-16.160917
242,4137227199,-17.683548,-2.2274857,-55.38501,0.19795418,-0.033145666,0.035021782,-2.7240067,1.8101131,1.0699387,-4.808085,2.436862,-8.980068,57.446723,40.796092,-16.143085
243,4137243866,-17.646545,-2.232277,-55.398148,0.20321178,-0.030439496,0.04338324,-2.9698088,1.5804619,1.0285178,-4.804698,2.436355,-8.979345,57.397226,40.822433,-16.125943
244,4137260533,-17.64235,-2.2317429,-55.382553,0.20955753,-0.026919484,0.051657915,-3.1980684,1.3502089,0.9929148,-4.801205,2.435906,-8.978484,57.343925,40.844936,-16.109394
245,4137277200,-17.671356,-2.2265472,-55.338715,0.2171936,-0.02314949,0.06056583,-3.4317467,1.1044589,0.9603655,-4.797585,2.43552,-8.977475,57.286729,40.863344,-16.093388
246,4137293867,-17.669998,-2.227333,-55.3282,0.22282028,-0.022699118,0.07259679,-3.6607678,0.9394865,0.93768436,-4.793871,2.435142,-8.976265,57.225716,40.879002,-16.07776
247,4137310534,-17.634964,-2.2345047,-55.354248,0.22613907,-0.02571094,0.08772874,-3.8744128,0.8708434,0.9276938,-4.790102,2.434713,-8.974803,57.161142,40.893516,-16.062298
248,4137327201,-17.598038,-2.243393,-55.387054,0.22889519,-0.030910134,0.10531986,-4.092808,0.8425008,0.925714,-4.786287,2.434198,-8.973048,57.092929,40.907558,-16.046869
249,4137343868,-17.54274,-2.2567291,-55.442627,0.2301817,-0.039274216,0.12602377,-4.310139,0.88390374,0.93465894,-4.782451,2.433543,-8.970948,57.021093,40.92229,-16.031291
250,4137360535,-17.510574,-2.267334,-55.481003,0.23188114,-0.048267603,0.14784992,-4.5100794,0.9508333,0.9543733,-4.778586,2.432739,-8.968484,56.945925,40.938137,-16.015385
251,4137377202,-17.505157,-2.2747498,-55.49893,0.23414612,-0.05783546,0.17078543,-4.6927886,1.0405173,0.985319,-4.774684,2.431775,-8.965638,56.867712,40.955479,-15.998963
252,4137393869,-17.492218,-2.2849045,-55.529953,0.23525333,-0.07012606,0.19641113,-4.860092,1.2022349,1.0307612,-4.770763,2.430606,-8.962364,56.78671,40.975516,-15.981784
253,4137410536,-17.481232,-2.296257,-55.5652,0.2355957,-0.08466208,0.22435367,-5.0074177,1.4284178,1.0913899,-4.766836,2.429195,-8.958625,56.703253,40.999323,-15.963594
254,4137427203,-17.459335,-2.3052063,-55.601135,0.23600101,-0.09431791,0.23881745,-5.0896444,1.5998311,1.1416687,-4.762903,2.427623,-8.954645,56.618426,41.025987,-15.944566
255,4137443870,-17.421097,-2.3121414,-55.641632,0.23630047,-0.09868789,0.23840666,-5.10004,1.7135928,1.1803002,-4.758965,2.425978,-8.950672,56.533425,41.054547,-15.924894
256,4137460537,-17.37918,-2.3177338,-55.682343,0.23635197,-0.10085094,0.2302978,-5.0547676,1.8232054,1.220552,-4.755026,2.424297,-8.946834,56.449179,41.084934,-15.904551
257,4137477204,-17.328644,-2.3212204,-55.72354,0.23628902,-0.09886992,0.2099824,-4.938774,1.8987108,1.2559124,-4.751088,2.422649,-8.943334,56.366866,41.116579,-15.883619
258,4137493871,-17.268799,-2.3261871,-55.77559,0.23518181,-0.097494364,0.18699801,-4.7765365,2.0244207,1.3030574,-4.747168,2.421024,-8.940217,56.287257,41.150319,-15.861901
259,4137510538,-17.200073,-2.3327637,-55.838684,0.23296356,-0.09695411,0.1617055,-4.566216,2.206815,1.3636546,-4.743285,2.419408,-8.937522,56.211153,41.187099,-15.839173
260,4137527205,-17.117874,-2.3385468,-55.90851,0.23017883,-0.093177915,0.12525296,-4.280221,2.3793023,1.4241062,-4.739449,2.417855,-8.935434,56.139816,41.226754,-15.815438
261,4137543872,-17.02156,-2.3443222,-55.987656,0.22659111,-0.08712196,0.079405546,-3.9208426,2.5610154,1.4883456,-4.735672,2.416403,-8.934111,56.074469,41.269438,-15.790632
262,4137560539,-16.932571,-2.350792,-56.082336,0.22089767,-0.08583379,0.06062317,-3.913259,2.573512,1.5627441,-4.73199,2.414972,-8.933101,56.009248,41.31233,-15.764586
263,4137577206,-16.851456,-2.3577728,-56.193466,0.21298218,-0.089452386,0.07119691,-4.29471,2.3909395,1.6464605,-4.72844,2.413481,-8.931914,55.937669,41.352179,-15.737145
264,4137593873,-16.766861,-2.3655853,-56.32051,0.2032423,-0.095244765,0.09492242,-4.8648624,2.110378,1.7394037,-4.725053,2.411894,-8.930332,55.856588,41.387352,-15.708155
265,4137610540,-16.683945,-2.3743973,-56.465775,0.1912775,-0.10503137,0.14175463,-5.743801,1.6778601,1.8430539,-4.721865,2.410143,-8.927969,55.760858,41.415316,-15.677437
266,4137627207,-16.58844,-2.3832092,-56.62526,0.17791367,-0.11361289,0.18805325,-6.6761293,1.1798474,1.9508102,-4.7189,2.408249,-8.924835,55.649589,41.43498,-15.644923
267,4137643874,-16.478622,-2.392105,-56.799774,0.16311073,-0.120731235,0.23261893,-7.64952,0.6205242,2.062773,-4.716181,2.406237,-8.920958,55.522097,41.445322,-15.610543
268,4137660541,-16.365585,-2.4017563,-56.993927,0.1460619,-0.13053465,0.29600513,-8.899093,-0.093250915,2.1835456,-4.713747,2.404061,-8.916025,55.373779,41.443768,-15.574151
269,4137677208,-16.245697,-2.411995,-57.20764,0.12687111,-0.14192653,0.37346458,-10.375843,-0.9468883,2.311874,-4.711632,2.401696,-8.909801,55.200848,41.427987,-15.53562
270,4137693875,-16.262436,-2.3974075,-57.262924,0.11978817,-0.15523624,0.4217863,-11.067909,-1.6284902,2.3265696,-4.709636,2.399109,-8.902771,55.016383,41.400845,-15.496844
271,4137710542,-16.431519,-2.355484,-57.142822,0.12610722,-0.17102492,0.43952978,-10.90863,-2.123587,2.2157402,-4.707534,2.396259,-8.895446,54.834572,41.365452,-15.459915
272,4137727209,-16.68306,-2.2980423,-56.931152,0.13917542,-0.18842316,0.44414115,-10.345788,-2.5736215,2.035265,-4.705214,2.393119,-8.888044,54.662142,41.322558,-15.425994
273,4137743876,-17.058899,-2.2176895,-56.576904,0.16304874,-0.20770371,0.4242456,-9.101133,-2.8966677,1.7500334,-4.702497,2.389657,-8.880973,54.510456,41.27428,-15.396827
274,4137760543,-17.478973,-2.1292572,-56.184387,0.18925667,-0.22979295,0.4104706,-7.8246202,-3.30213,1.4308451,-4.699343,2.385827,-8.874132,54.380046,41.219245,-15.37298
275,4137777210,-17.940048,-2.0332413,-55.75798,0.21743107,-0.25472295,0.40431285,-6.5470967,-3.8038785,1.0801036,-4.695719,2.381582,-8.867393,54.270928,41.155847,-15.354978
276,4137793877,-18.520386,-1.915535,-55.19934,0.25546932,-0.28235495,0.38066792,-4.6979456,-4.227787,0.63030934,-4.691461,2.376876,-8.861049,54.192629,41.085384,-15.344473
277,4137810544,-19.205627,-1.778801,-54.527786,0.30178165,-0.3129654,0.34588063,-2.4056911,-4.6188617,0.09414601,-4.686431,2.37166,-8.855284,54.152534,41.008403,-15.342904
278,4137827211,-19.667053,-1.687149,-54.059418,0.33026218,-0.3243326,0.31607246,-0.9080844,-4.6967626,-0.24004364,-4.680927,2.366254,-8.850016,54.137399,40.930124,-15.346905
279,4137843878,-19.884445,-1.644783,-53.81035,0.33951187,-0.31428897,0.28954303,-0.24705696,-4.4100566,-0.35418487,-4.675268,2.361016,-8.84519,54.133281,40.856623,-15.352808
280,4137860545,-20.005524,-1.6228714,-53.641876,0.34096527,-0.2935238,0.26274514,0.08373308,-3.9192338,-0.37761664,-4.669585,2.356124,-8.840811,54.134677,40.791302,-15.359102
281,4137877212,-19.940933,-1.6389465,-53.63852,0.3276024,-0.25567532,0.23916173,-0.24090385,-3.1348474,-0.2318114,-4.664125,2.351863,-8.836825,54.130662,40.739055,-15.362966
282,4137893879,-19.904022,-1.6517792,-53.588715,0.31680965,-0.2135526,0.20264316,-0.3456831,-2.1719813,-0.10354328,-4.658845,2.348304,-8.833448,54.124901,40.702855,-15.364692
283,4137910546,-19.906326,-1.6592178,-53.480667,0.3095188,-0.16774726,0.15243948,-0.18575716,-1.0341572,-0.0027288198,-4.653686,2.345508,-8.830907,54.121805,40.685619,-15.364737
284,4137927213,-19.763367,-1.6972809,-53.49327,0.29094315,-0.10611427,0.09925389,-0.4777422,0.42147362,0.23267978,-4.648837,2.343739,-8.829253,54.113843,40.692644,-15.360859
285,4137943880,-19.518463,-1.7576828,-53.582687,0.26464653,-0.031044602,0.039387226,-1.0390573,2.1794126,0.5648848,-4.644426,2.343222,-8.828597,54.096525,40.728968,-15.351444
286,4137960547,-19.301712,-1.8138351,-53.710617,0.24962139,0.011841536,0.0067390203,-1.6140442,3.6932447,0.7931812,-4.640266,2.343419,-8.828485,54.069624,40.790522,-15.338224
287,4137977214,-19.099945,-1.8682938,-53.897797,0.24574757,0.01986742,0.0056596994,-2.2713742,4.9378276,0.9203892,-4.63617,2.34375,-8.828391,54.031768,40.872819,-15.322884
288,4137993881,-18.878128,-1.9286804,-54.1351,0.24631405,0.01322484,0.017448545,-3.0146072,6.1702847,1.0181227,-4.632065,2.34397,-8.8281,53.981525,40.975657,-15.305915
289,4138010548,-18.66359,-1.9893875,-54.420563,0.25605774,-0.020451307,0.05200827,-3.8031046,7.248632,1.0372779,-4.627797,2.343629,-8.827233,53.91814,41.096468,-15.288627
290,4138027215,-18.329865,-2.0759735,-54.825577,0.25998306,-0.05129361,0.092338085,-4.9787474,8.538201,1.1387691,-4.623464,2.342774,-8.825694,53.835161,41.238771,-15.269648
291,4138043882,-17.869034,-2.1901474,-55.35466,0.25735855,-0.07773459,0.13728607,-6.557707,10.066647,1.331388,-4.619175,2.341478,-8.823406,53.725866,41.406548,-15.247458
292,4138060549,-17.36412,-2.3151093,-55.97499,0.2596264,-0.12549818,0.20427573,-8.347184,11.532731,1.4945197,-4.614848,2.339386,-8.820001,53.586746,41.59876,-15.222549
293,4138077216,-16.784958,-2.4570007,-56.70575,0.26355934,-0.18852198,0.29012692,-10.430664,13.01725,1.6636789,-4.610455,2.336244,-8.815166,53.412902,41.815714,-15.194821
294,4138093883,-16.203476,-2.5854187,-57.395355,0.2640705,-0.22823155,0.35232174,-11.652376,13.849331,1.7790473,-4.606054,2.33244,-8.809294,53.218696,42.046536,-15.16517
295,4138110550,-15.632751,-2.6960602,-58.03012,0.26197243,-0.24434805,0.38950872,-11.8875885,13.922702,1.8212664,-4.601688,2.328368,-8.802802,53.02057,42.278581,-15.134816
296,4138127217,-15.014938,-2.8081436,-58.69902,0.25742817,-0.25130868,0.4201653,-11.747648,13.605925,1.8434956,-4.597398,2.32418,-8.795799,52.824776,42.505346,-15.104091
297,4138143884,-14.370392,-2.9129562,-59.36171,0.24934196,-0.23933184,0.43333948,-10.903719,12.691703,1.8250061,-4.593242,2.320191,-8.788577,52.643047,42.716874,-15.073674
298,4138160551,-13.674438,-3.0246735,-60.10295,0.24358177,-0.23777759,0.45868957,-9.983878,11.489267,1.7702405,-4.589182,2.316228,-8.780932,52.476649,42.908362,-15.04417
299,4138177218,-12.920502,-3.1449814,-60.932816,0.2402134,-0.24812925,0.49814725,-9.031119,10.010798,1.6818674,-4.585178,2.312093,-8.77263,52.32613,43.075209,-15.016139
300,4138193885,-12.137604,-3.2592316,-61.77568,0.23541355,-0.2474873,0.5277055,-7.4394827,7.9073076,1.5380229,-4.581254,2.307968,-8.763835,52.202139,43.206997,-14.990505
301,4138210552,-11.3190155,-3.3704224,-62.651443,0.23042583,-0.24213314,0.5538174,-5.3323126,5.227098,1.3382723,-4.577414,2.303932,-8.754605,52.113267,43.294115,-14.9682
302,4138227219,-10.761002,-3.4528656,-63.26288,0.22443676,-0.2345916,0.55579805,-4.117774,3.3216069,1.2066249,-4.573673,2.300022,-8.745342,52.044637,43.349475,-14.94809
303,4138243886,-10.498032,-3.501564,-63.56996,0.21700001,-0.22234464,0.5285476,-3.8430212,2.2600758,1.149582,-4.570056,2.296316,-8.736533,51.980587,43.387143,-14.92893
304,4138260553,-10.38681,-3.530304,-63.725555,0.20938396,-0.20843565,0.48608226,-3.913463,1.4191883,1.1061145,-4.566566,2.292842,-8.728432,51.915363,43.410796,-14.910495
305,4138277220,-10.515091,-3.5305557,-63.64,0.20129776,-0.19273984,0.42142582,-4.695786,1.1558943,1.1084422,-4.563211,2.28963,-8.721408,51.8371,43.430061,-14.892021
306,4138293887,-10.718567,-3.5131836,-63.466522,0.19217491,-0.16781354,0.34030044,-5.2070117,0.5756378,1.0775449,-4.560008,2.286833,-8.715736,51.750316,43.439655,-14.874062
307,4138310554,-10.99173,-3.4780807,-63.21083,0.1821289,-0.13355744,0.24301648,-5.39034,-0.38188058,1.0068309,-4.556973,2.284607,-8.711686,51.660477,43.43329,-14.857281
308,4138327221,-11.497818,-3.411499,-62.713135,0.17118263,-0.093265414,0.11996102,-6.0486197,-0.9661486,0.9626158,-4.55412,2.283053,-8.709687,51.559667,43.417188,-14.841237
309,4138343888,-12.208359,-3.314621,-61.999146,0.15922642,-0.045124292,-0.028392673,-6.9730067,-1.3690194,0.9272644,-4.551466,2.282301,-8.71016,51.44345,43.394371,-14.825783
310,4138360555,-12.6819,-3.2529602,-61.524353,0.14979553,-0.00091159344,-0.114718676,-7.372734,-1.8173958,0.8634492,-4.548969,2.282286,-8.712072,51.320571,43.364081,-14.811392
311,4138377222,-12.902344,-3.2300873,-61.30571,0.14320564,0.038274407,-0.13244247,-7.270072,-2.2361317,0.7755842,-4.546582,2.282924,-8.714279,51.199403,43.326812,-14.798466
312,4138393889,-13.0655365,-3.2147675,-61.138245,0.1377058,0.079561174,-0.12313306,-6.8986206,-2.643805,0.6690889,-4.544287,2.28425,-8.716331,51.084426,43.282749,-14.787315
313,4138410556,-13.057144,-3.224266,-61.139572,0.13428402,0.11983353,-0.06278229,-6.0635233,-3.071996,0.5357481,-4.542049,2.286247,-8.717377,50.983367,43.231549,-14.778386
314,4138427223,-13.183853,-3.2155685,-60.995407,0.13094616,0.16533828,-0.00513041,-5.4300156,-3.1949148,0.41308534,-4.539867,2.289003,-8.717463,50.892867,43.1783,-14.771501
315,4138443890,-13.466248,-3.185501,-60.683716,0.12757206,0.21689206,0.046616316,-5.0220423,-2.9987972,0.30200207,-4.537741,2.292618,-8.716686,50.809166,43.12832,-14.766468
316,4138460557,-13.655228,-3.1701279,-60.45984,0.12603092,0.26881814,0.1403408,-4.343467,-2.6604886,0.17717916,-4.53564,2.297098,-8.714347,50.736775,43.083979,-14.763515
317,4138477224,-13.8177185,-3.1600494,-60.254776,0.12593365,0.32260853,0.26516044,-3.5346704,-2.100333,0.046680868,-4.533541,2.302475,-8.709928,50.677864,43.048973,-14.762737
318,4138493891,-14.068909,-3.1276932,-59.999695,0.1176548,0.3508882,0.32065535,-3.2043276,-1.945779,0.03076458,-4.53158,2.308323,-8.704584,50.624459,43.016543,-14.762224
319,4138510558,-14.389816,-3.0748749,-59.718765,0.1004982,0.35013413,0.30357766,-3.3569732,-2.2649941,0.13934135,-4.529905,2.314159,-8.699524,50.568509,42.978793,-14.759902
320,4138527225,-14.771851,-3.0082092,-59.39714,0.07875919,0.334198,0.25457966,-3.8029785,-2.6961477,0.32201076,-4.528592,2.319729,-8.695281,50.505126,42.933857,-14.754535
321,4138543892,-15.238693,-2.9212418,-59.024582,0.04976654,0.2948798,0.14730167,-4.7027464,-3.4133568,0.61336887,-4.527763,2.324644,-8.692826,50.426747,42.876968,-14.744312
322,4138560559,-15.661453,-2.838913,-58.704346,0.019576073,0.2466104,0.052775383,-5.5748863,-4.0872383,0.93805486,-4.527437,2.328754,-8.691946,50.333832,42.808847,-14.728678
323,4138577226,-16.037064,-2.7620468,-58.438034,-0.011536598,0.18992525,-0.025458217,-6.408304,-4.684749,1.2943498,-4.527629,2.331919,-8.69237,50.227027,42.730768,-14.707106
324,4138593893,-16.448044,-2.672882,-58.16832,-0.04898262,0.110016644,-0.14555311,-7.585105,-5.520299,1.7516975,-4.528445,2.333753,-8.694796,50.100609,42.638763,-14.677911
325,4138610560,-16.866058,-2.5767517,-57.9187,-0.091584206,0.009339809,-0.29274714,-9.010527,-6.5229435,2.296701,-4.529971,2.333909,-8.699675,49.950434,42.530047,-14.639633
326,4138627227,-17.261642,-2.510437,-57.549896,-0.09584999,-0.06376362,-0.35298407,-8.837363,-6.866743,2.271504,-4.531568,2.332846,-8.705558,49.803145,42.415601,-14.601775
327,4138643894,-17.638596,-2.4758224,-57.044952,-0.058138847,-0.107049584,-0.3222673,-6.928192,-6.5129666,1.6201682,-4.532537,2.331062,-8.710929,49.687675,42.307052,-14.574772
328,4138660561,-17.98944,-2.4594803,-56.4881,0.0018568039,-0.14229333,-0.24458027,-4.0899353,-5.804745,0.6443298,-4.532506,2.32869,-8.715005,49.619509,42.210306,-14.564033
329,4138677228,-18.305939,-2.4716568,-55.840332,0.096447945,-0.15677238,-0.08947158,0.19566059,-4.520172,-0.8421663,-4.530899,2.326077,-8.716496,49.62277,42.13497,-14.578069
330,4138693895,-18.625381,-2.4867172,-55.16884,0.19913769,-0.1830827,0.061841607,4.757966,-3.2134855,-2.4402034,-4.52758,2.323026,-8.715465,49.702069,42.081412,-14.618739
331,4138710562,-18.944962,-2.5041504,-54.48117,0.30885887,-0.22333324,0.20620275,9.551853,-1.9097213,-4.132763,-4.522432,2.319304,-8.712028,49.861267,42.049583,-14.687618
332,4138727229,-19.237625,-2.5461426,-53.710068,0.44995308,-0.25042105,0.41086292,15.627747,-0.13776521,-6.2867384,-4.514933,2.31513,-8.70518,50.121729,42.047287,-14.792397
333,4138743896,-19.509048,-2.6079636,-52.870026,0.61744404,-0.27132475,0.65954345,22.763224,1.9912106,-8.826707,-4.504642,2.310608,-8.694188,50.501116,42.080474,-14.939509
334,4138760563,-19.716965,-2.6337814,-52.235428,0.71015644,-0.29888737,0.86067665,26.502653,2.9692981,-9.847045,-4.492806,2.305627,-8.679843,50.942827,42.129962,-15.103626
335,4138777230,-19.852554,-2.6213303,-51.82422,0.72162056,-0.33089876,1.0142876,26.55337,2.7089875,-9.210809,-4.480779,2.300112,-8.662938,51.385383,42.175112,-15.257139
336,4138793897,-19.93776,-2.5943527,-51.5166,0.69667435,-0.36590207,1.153469,24.883408,1.8497921,-7.7710257,-4.469168,2.294014,-8.643714,51.800106,42.205942,-15.386656
337,4138810564,-19.958206,-2.5381317,-51.388184,0.60760975,-0.40641308,1.2551863,20.267347,-0.020808637,-4.998945,-4.459041,2.28724,-8.622794,52.137895,42.205595,-15.469972
338,4138827231,-19.927292,-2.4917145,-51.26448,0.5198517,-0.43798792,1.3912817,15.576458,-1.9043225,-2.097616,-4.450377,2.27994,-8.599606,52.397503,42.173856,-15.504932
339,4138843898,-19.843964,-2.4572525,-51.137756,0.43661594,-0.4600637,1.565304,10.946415,-3.7577388,0.8775189,-4.4431,2.272272,-8.573518,52.579943,42.111227,-15.490307
340,4138860565,-19.68695,-2.4026566,-51.16237,0.30082893,-0.4816432,1.7220627,3.8596554,-6.4446483,4.9974318,-4.438086,2.264245,-8.544817,52.644271,42.003816,-15.407016
341,4138877232,-19.456543,-2.3361206,-51.304306,0.12553978,-0.499393,1.8770101,-5.115876,-9.768075,10.027322,-4.435994,2.255922,-8.513533,52.559006,41.841015,-15.239894
342,4138893899,-19.389908,-2.2409058,-51.295593,0.004611969,-0.5344068,1.9945321,-10.727722,-11.719877,12.902664,-4.435917,2.247015,-8.480291,52.380211,41.645684,-15.02485
343,4138910566,-19.505554,-2.1110535,-51.132248,-0.06072998,-0.58945596,2.0644455,-12.8118515,-12.221473,13.472217,-4.436929,2.237191,-8.445884,52.16668,41.441993,-14.800313
344,4138927233,-19.689835,-1.9596634,-50.92102,-0.106882095,-0.65204,2.1139276,-13.503856,-12.100103,13.04065,-4.43871,2.226324,-8.410652,51.941616,41.240325,-14.582969
345,4138943900,-20.008194,-1.7803497,-50.59372,-0.10994053,-0.72822094,2.1306813,-11.429327,-10.823283,10.784871,-4.440542,2.214187,-8.375141,51.751127,41.059937,-14.403221
346,4138960567,-20.315216,-1.5740738,-50.349777,-0.14013958,-0.80787945,2.120758,-10.330565,-9.794029,8.776576,-4.442878,2.200722,-8.339795,51.578951,40.896703,-14.256945
347,4138977234,-20.602219,-1.3406677,-50.200577,-0.20123863,-0.89004946,2.0849283,-10.400892,-9.08168,7.118883,-4.446232,2.185888,-8.305046,51.405603,40.745342,-14.138297
348,4138993901,-20.999298,-1.0731812,-49.98964,-0.23803425,-0.9851359,2.0082548,-8.593325,-7.5248237,4.0599623,-4.450199,2.169469,-8.271575,51.262381,40.619928,-14.070631
349,4139010568,-21.477081,-0.7707977,-49.760117,-0.26560402,-1.0910963,1.8907732,-5.691864,-5.412838,0.02203989,-4.454626,2.151284,-8.240062,51.167517,40.529714,-14.070264
350,4139027235,-21.961365,-0.53899384,-49.466187,-0.27662182,-1.1485826,1.817358,-5.1397314,-4.3826613,-2.4385586,-4.459236,2.132141,-8.209773,51.081855,40.45667,-14.110907
351,4139043902,-22.463852,-0.38620758,-49.08438,-0.26360893,-1.1531986,1.7926078,-6.8919816,-4.4449677,-3.3049538,-4.463629,2.112921,-8.179896,50.966989,40.382587,-14.16599
352,4139060569,-23.002426,-0.2611847,-48.66559,-0.24013233,-1.1316348,1.7749386,-9.841436,-5.014481,-3.517269,-4.467631,2.09406,-8.150314,50.802965,40.299012,-14.224611
353,4139077236,-23.563385,-0.19301605,-48.19072,-0.20196342,-1.0673765,1.7865222,-14.851197,-6.5099034,-2.4255726,-4.470997,2.07627,-8.120539,50.555445,40.190514,-14.265037
354,4139093903,-24.226242,-0.11781311,-47.646057,-0.13891506,-0.9973129,1.7727699,-19.125078,-7.672346,-1.9865725,-4.473312,2.059648,-8.090993,50.236694,40.062642,-14.298147
355,4139110570,-24.996918,-0.031600952,-47.032547,-0.05099106,-0.9231125,1.7292455,-22.554625,-8.44721,-2.2941465,-4.474162,2.044263,-8.062172,49.860784,39.921855,-14.336383
356,4139127237,-25.827423,0.00818634,-46.33766,0.061365128,-0.8116294,1.701763,-27.266985,-9.820105,-1.8215566,-4.473139,2.030736,-8.033809,49.406334,39.758187,-14.366742
357,4139143904,-26.737823,0.014518738,-45.555862,0.20116043,-0.6700001,1.6782029,-32.67397,-11.527184,-0.9846151,-4.469786,2.019569,-8.005839,48.861768,39.566067,-14.383152
358,4139160571,-27.630783,0.055625916,-44.897217,0.3883276,-0.6054355,1.5497444,-35.800014,-12.229108,-0.71993995,-4.463314,2.009478,-7.98001,48.265101,39.362249,-14.395151
359,4139177238,-28.494476,0.12998962,-44.376648,0.62650776,-0.6238123,1.3109318,-36.59555,-11.911716,-0.93679786,-4.452872,1.999081,-7.958161,47.655175,39.16372,-14.410764
360,4139193905,-29.391785,0.2131195,-43.88823,0.90974903,-0.6788149,1.0044136,-36.059128,-11.028389,-1.4746814,-4.43771,1.987767,-7.941421,47.05419,38.979914,-14.435342
361,4139210572,-30.296051,0.32143402,-43.48825,1.2452517,-0.7994541,0.6003609,-33.40287,-9.229577,-2.5473914,-4.416956,1.974443,-7.931415,46.497475,38.826088,-14.477799
362,4139227239,-31.255646,0.39964294,-43.049057,1.6228876,-0.91444314,0.17230725,-30.902998,-7.548901,-3.2143905,-4.389908,1.959202,-7.928543,45.982425,38.700273,-14.531372
363,4139243906,-32.27745,0.44444275,-42.5605,2.044218,-1.0202578,-0.2774688,-28.622509,-6.0200243,-3.4515703,-4.355838,1.942198,-7.933167,45.505383,38.599939,-14.588898
364,4139260573,-33.31508,0.49660492,-42.13452,2.522027,-1.1778892,-0.8123777,-24.730122,-3.8223085,-3.9028118,-4.313804,1.922567,-7.946707,45.093214,38.536234,-14.653945
365,4139277240,-34.38005,0.54371643,-41.74356,3.0560112,-1.3729275,-1.4183757,-19.676043,-1.1645795,-4.366433,-4.26287,1.899685,-7.970347,44.76528,38.516824,-14.726719
366,4139293907,-35.25038,0.5813141,-41.29567,3.2962875,-1.4203295,-1.792603,-15.512871,0.55925643,-4.696885,-4.207932,1.876013,-8.000224,44.506732,38.526145,-14.805
367,4139310574,-35.897095,0.6131973,-40.79663,3.2103271,-1.3097895,-1.9135737,-12.197443,1.3154557,-4.9438095,-4.154427,1.854183,-8.032117,44.303441,38.548069,-14.887397
368,4139327241,-36.431824,0.6322861,-40.271927,2.9634037,-1.1192731,-1.9153094,-9.0383215,1.6263739,-5.031191,-4.105037,1.835528,-8.064039,44.152802,38.575175,-14.97125
369,4139343908,-36.787796,0.6382446,-39.70038,2.45574,-0.7983166,-1.7136812,-6.536665,1.125608,-4.9293795,-4.064108,1.822223,-8.0926,44.043858,38.593935,-15.053406
370,4139360575,-37.081635,0.643219,-39.16368,1.893961,-0.47017515,-1.50139,-2.9769986,0.8461579,-4.8893948,-4.032542,1.814387,-8.117623,43.994241,38.608038,-15.134896
371,4139377242,-37.31732,0.6464386,-38.665543,1.2873306,-0.14016795,-1.2869256,1.7275229,0.83047193,-4.9011087,-4.011086,1.812051,-8.139072,44.023033,38.621879,-15.216581
372,4139393909,-37.37433,0.6414566,-38.14833,0.4426384,0.29782885,-0.8991022,6.30884,0.2450087,-4.8119917,-4.003709,1.817015,-8.154057,44.12818,38.625962,-15.296781
373,4139410576,-37.272217,0.63061523,-37.630234,-0.601305,0.8194243,-0.3753699,11.144501,-0.69867474,-4.669675,-4.013731,1.830672,-8.160313,44.313922,38.614317,-15.374609
374,4139427243,-37.30757,0.59669495,-37.15129,-1.2667828,1.1573181,-0.05017233,14.545311,-0.87254655,-4.6515474,-4.034844,1.849961,-8.161149,44.556344,38.599775,-15.452135
375,4139443910,-37.48848,0.53741455,-36.710007,-1.5260124,1.2996337,0.068374634,16.200727,-0.27189052,-4.7597485,-4.060278,1.871622,-8.160009,44.826356,38.595243,-15.531464
376,4139460577,-37.682297,0.46234894,-36.300934,-1.6301589,1.3574045,0.11634064,17.16893,0.70815426,-4.942362,-4.087447,1.894245,-8.15807,45.112505,38.607046,-15.613837
377,4139477244,-37.964157,0.36647797,-35.934723,-1.4252625,1.2591232,0.007490158,16.924881,2.3560157,-5.2472525,-4.111201,1.91523,-8.157945,45.394586,38.646313,-15.701291
378,4139493911,-38.123642,0.2574463,-35.574554,-1.3014984,1.1888322,-0.015657544,16.120352,3.7921455,-5.5229235,-4.132893,1.935044,-8.158206,45.663259,38.709515,-15.79334
379,4139510578,-38.14511,0.13576508,-35.22107,-1.2804518,1.1553168,0.06050396,14.805759,4.979797,-5.7666054,-4.154234,1.954299,-8.157198,45.910022,38.792512,-15.88945
380,4139527245,-38.19536,-0.006980896,-34.90262,-1.0342875,1.0043973,0.041887045,12.168392,6.604323,-6.096793,-4.171472,1.971039,-8.1565,46.112829,38.902584,-15.991063
381,4139543912,-38.227036,-0.16944885,-34.612686,-0.64402294,0.773592,-0.01960826,8.312173,8.481656,-6.4837723,-4.182206,1.983932,-8.156827,46.251365,39.043945,-16.099126
382,4139560579,-38.151794,-0.32509613,-34.43341,-0.45437813,0.64832276,0.003053546,5.794647,9.669319,-6.3495655,-4.189779,1.994737,-8.156776,46.347942,39.2051,-16.204952
383,4139577246,-37.97966,-0.4727478,-34.377502,-0.45600128,0.62619376,0.09868705,4.7125044,10.156033,-5.650874,-4.197379,2.005174,-8.155131,46.426484,39.374367,-16.299133
384,4139593913,-37.718338,-0.624382,-34.40323,-0.53815174,0.64330935,0.24238026,3.8841448,10.26181,-4.640088,-4.206348,2.015896,-8.151091,46.49122,39.545397,-16.376468
385,4139610580,-37.347397,-0.77305603,-34.53627,-0.78459454,0.7455065,0.46324056,3.9658651,9.740107,-3.1548645,-4.219425,2.028321,-8.14337,46.557318,39.707732,-16.429049
386,4139627247,-36.957184,-0.936676,-34.739304,-0.9080839,0.78319633,0.63774854,3.2218065,9.316532,-1.5614424,-4.23456,2.041374,-8.132741,46.611015,39.863008,-16.455073
387,4139643914,-36.54796,-1.1164169,-35.011948,-0.8953037,0.7490758,0.7622828,1.5203342,9.014484,0.12620759,-4.249482,2.053859,-8.120036,46.636354,40.013249,-16.45297
388,4139660581,-36.0571,-1.2974701,-35.397537,-0.95873165,0.75590456,0.9221747,0.27322245,8.256536,2.2370121,-4.265461,2.066457,-8.104666,46.640908,40.150858,-16.415686
389,4139677248,-35.50273,-1.4836884,-35.891052,-1.0358562,0.77123773,1.090805,-0.9064169,7.1889567,4.7015123,-4.282725,2.079311,-8.086486,46.625801,40.270674,-16.337327
390,4139693915,-35.125854,-1.5827789,-36.116043,-1.0112686,0.7365469,1.2259723,-0.6261239,5.625466,6.0185213,-4.299579,2.091587,-8.066053,46.615366,40.364432,-16.237018
391,4139710582,-34.944107,-1.5833511,-36.042984,-0.89647293,0.658623,1.3319399,1.4270539,3.4692836,6.085602,-4.31452,2.102564,-8.043854,46.63915,40.422253,-16.135591
392,4139727249,-34.85672,-1.5310669,-35.84816,-0.70148754,0.5422974,1.409387,4.334794,0.89754874,5.5687914,-4.326211,2.111602,-8.020364,46.711397,40.437212,-16.042778
393,4139743916,-34.931778,-1.3983994,-35.426987,-0.39863396,0.37401724,1.4477429,8.554175,-2.1722696,4.0535903,-4.332855,2.117836,-7.996235,46.853967,40.401008,-15.975218
394,4139760583,-35.013107,-1.2342911,-35.011093,-0.107821465,0.21606809,1.4931611,13.632746,-5.7998414,2.4999156,-4.334652,2.121437,-7.971349,47.081179,40.304344,-15.933553
395,4139777250,-35.096054,-1.0404129,-34.61284,0.17104721,0.06880009,1.5447502,19.541214,-9.993101,0.95243853,-4.331801,2.122584,-7.945603,47.406866,40.137792,-15.917679
396,4139793917,-35.320404,-0.7667465,-34.02391,0.52202797,-0.110404015,1.5697782,26.941732,-14.811469,-1.4357204,-4.323101,2.120744,-7.91944,47.855895,39.890934,-15.941608
397,4139810584,-35.65718,-0.42155457,-33.290123,0.9214401,-0.308869,1.5768383,35.779747,-20.286137,-4.4758387,-4.307744,2.115596,-7.893159,48.452224,39.552832,-16.016205
398,4139827251,-35.937393,-0.15688324,-32.533318,1.248498,-0.38017237,1.4797608,40.89122,-23.130625,-6.620986,-4.286936,2.10926,-7.868496,49.133744,39.167322,-16.126555
399,4139843918,-36.166153,0.020874023,-31.734238,1.5008669,-0.3139614,1.2653471,41.89805,-23.041487,-7.8399935,-4.261922,2.104027,-7.847407,49.832045,38.783297,-16.257222
400,4139860585,-36.408096,0.18006134,-30.861237,1.71982,-0.17014086,0.9789081,41.23922,-21.600212,-8.751286,-4.233258,2.101191,-7.831092,50.519365,38.423293,-16.403077
401,4139877252,-36.624054,0.28102875,-29.936378,1.8732777,0.09271705,0.5937847,37.49788,-17.87533,-8.957783,-4.202037,2.102736,-7.821196,51.14433,38.125371,-16.552373
402,4139893919,-36.954803,0.42752075,-28.82911,2.0556288,0.37860733,0.14857078,33.872932,-13.793474,-9.594289,-4.167777,2.109046,-7.81872,51.708879,37.89548,-16.712278
403,4139910586,-37.410843,0.626503,-27.528809,2.2697706,0.6849346,-0.355852,30.552904,-9.451729,-10.723322,-4.129947,2.120462,-7.824651,52.218094,37.737951,-16.891
404,4139927253,-37.89174,0.7926178,-26.113617,2.4403677,1.0973283,-0.96402264,24.699015,-3.0529118,-11.442752,-4.089274,2.138751,-7.840718,52.629744,37.687069,-17.081713
405,4139943920,-38.43077,0.9483795,-24.54992,2.586338,1.5980759,-1.6704144,16.959446,5.0345664,-11.995688,-4.046168,2.165386,-7.868558,52.912401,37.770978,-17.281641
406,4139960587,-38.71118,0.9536896,-23.548996,2.6180325,1.8744117,-2.111019,11.339035,10.92797,-11.873707,-4.002534,2.196626,-7.903742,53.101385,37.953111,-17.479536
407,4139977254,-38.691544,0.78334045,-23.186356,2.515994,1.9079602,-2.2576797,7.8314095,14.517591,-10.912741,-3.960601,2.228425,-7.94137,53.231908,38.195071,-17.661415
408,4139993921,-38.545944,0.51773834,-23.100143,2.333661,1.836251,-2.280322,4.9403877,17.43238,-9.512636,-3.921707,2.259029,-7.979375,53.314248,38.485611,-17.819959
409,4140010588,-38.181305,0.112464905,-23.49427,2.0411425,1.574341,-2.0779335,3.662447,18.670465,-7.489421,-3.887688,2.285268,-8.014007,53.375289,38.796785,-17.944783
410,4140027255,-37.75804,-0.3741989,-23.97274,1.6678648,1.328331,-1.875004,0.90167093,20.99754,-4.8981266,-3.85989,2.307407,-8.045257,53.390317,39.146744,-18.026418
411,4140043922,-37.28653,-0.94018555,-24.512962,1.213913,1.1087533,-1.6834395,-3.5126085,24.579132,-1.7441905,-3.839658,2.325886,-8.073314,53.331774,39.556396,-18.055488
412,4140060589,-36.6024,-1.6567612,-25.495903,0.6353216,0.738305,-1.3017411,-7.208491,27.188501,2.1823647,-3.829069,2.338191,-8.09501,53.211632,40.009538,-18.019115
413,4140077256,-35.735413,-2.5157776,-26.846085,-0.06550121,0.25869536,-0.7743337,-10.862466,29.421192,6.8930635,-3.830161,2.342503,-8.107916,53.030591,40.499891,-17.904231
414,4140093923,-34.65724,-3.1132736,-28.264404,-0.57651615,-0.05141568,-0.40845394,-14.243561,30.68941,10.318819,-3.83977,2.341646,-8.114724,52.793198,41.011381,-17.732251
415,4140110590,-33.336258,-3.4229279,-29.782951,-0.87656975,-0.18884778,-0.2050426,-17.055798,30.654785,12.311929,-3.854379,2.338499,-8.118141,52.508935,41.522294,-17.527052
416,4140127257,-31.798523,-3.6338654,-31.504738,-1.1149178,-0.25921822,-0.045081735,-19.877296,29.989365,13.881088,-3.872961,2.334179,-8.118892,52.177647,42.022117,-17.295701
417,4140143924,-30.02211,-3.636757,-33.371246,-1.2071505,-0.19143617,-0.005153537,-22.565037,28.431728,14.465551,-3.89308,2.330988,-8.118978,51.801563,42.495979,-17.054608
418,4140160591,-27.972412,-3.6885757,-35.668976,-1.3498087,-0.19538486,0.1493597,-24.653366,25.740992,15.343193,-3.915577,2.327732,-8.116489,51.390674,42.924996,-16.798888
419,4140177258,-25.639236,-3.805313,-38.42447,-1.5559101,-0.28162682,0.43229997,-26.161467,21.916365,16.602114,-3.941509,2.323038,-8.109284,50.95465,43.290269,-16.522186
420,4140193925,-23.01152,-3.7638245,-41.45752,-1.6543512,-0.2852434,0.6632272,-27.169783,16.803509,17.119728,-3.969082,2.318284,-8.09823,50.50182,43.570327,-16.236857
421,4140210592,-20.071518,-3.6173935,-44.842422,-1.6862383,-0.25093448,0.8938057,-27.560234,10.306437,17.163681,-3.997186,2.314102,-8.083333,50.042483,43.742101,-15.950796
422,4140227259,-17.943665,-3.5541153,-47.378998,-1.7250257,-0.25233376,1.0943445,-28.132902,6.0127764,16.96246,-4.025936,2.309896,-8.065094,49.573601,43.842314,-15.668088
423,4140243926,-16.729965,-3.5618362,-48.936676,-1.7542825,-0.27670145,1.2412341,-28.92626,4.193696,16.381126,-4.055174,2.305284,-8.044407,49.091497,43.912209,-15.395069
424,4140260593,-15.881287,-3.5849915,-50.14087,-1.7649503,-0.31940448,1.3845086,-29.446596,3.0410795,15.476899,-4.08459,2.299961,-8.021332,48.60072,43.962894,-15.137121
425,4140277260,-15.714172,-3.6662064,-50.64795,-1.7692375,-0.3954283,1.509894,-29.884214,3.5262313,14.255163,-4.114077,2.293371,-7.996167,48.10265,44.021665,-14.899535
426,4140293927,-15.565216,-3.6364899,-51.11914,-1.6786795,-0.4190972,1.5895513,-29.77112,3.4814777,12.281255,-4.142055,2.286386,-7.969674,47.606465,44.07969,-14.694847
427,4140310594,-15.397232,-3.4866257,-51.59604,-1.487834,-0.38825238,1.6254346,-29.03084,2.7425349,9.523363,-4.166852,2.279915,-7.942583,47.122618,44.125399,-14.536124
428,4140327261,-15.82309,-3.3340836,-51.441315,-1.2476254,-0.35699284,1.6168946,-28.036959,3.2268035,6.1736116,-4.187646,2.273965,-7.915635,46.655335,44.179179,-14.43323
429,4140343928,-16.712952,-3.1401749,-50.782883,-0.93592167,-0.30629253,1.5565071,-26.661694,4.4740868,2.1118565,-4.203245,2.26886,-7.889693,46.210973,44.253747,-14.398032
430,4140360595,-17.080765,-3.0605392,-50.841873,-0.61819935,-0.31837273,1.5098777,-27.35384,5.18233,-0.32188046,-4.213548,2.263554,-7.864528,45.755076,44.340119,-14.403397
431,4140377262,-16.921326,-3.1216812,-51.639954,-0.3026228,-0.40593386,1.4794327,-30.393934,5.485771,-0.90278685,-4.218592,2.256788,-7.839871,45.24851,44.431549,-14.418443
432,4140393929,-16.626617,-3.2215958,-52.670532,0.06051922,-0.5160458,1.4263171,-34.529877,5.706812,-0.84054494,-4.217583,2.248187,-7.816099,44.673012,44.526663,-14.432452
433,4140410596,-15.951218,-3.4067764,-54.242508,0.45432281,-0.6727114,1.3659912,-40.474373,5.5684943,0.5199489,-4.210011,2.236975,-7.793332,43.998439,44.619471,-14.423786
434,4140427263,-15.640213,-3.6147995,-55.467606,0.9082918,-0.8418801,1.2582575,-46.878265,6.324498,1.8447655,-4.194873,2.222944,-7.772361,43.217135,44.724879,-14.39304
435,4140443930,-15.740143,-3.8383255,-56.289307,1.4293985,-1.019461,1.0969994,-53.670547,8.042593,3.0409698,-4.17105,2.205953,-7.754078,42.322626,44.858922,-14.342357
436,4140460597,-15.677032,-4.150238,-57.40796,1.9900379,-1.243678,0.9136311,-62.171043,9.891388,5.351117,-4.137883,2.185225,-7.738851,41.286442,45.023778,-14.253172
437,4140477264,-15.61618,-4.538475,-58.62822,2.5988522,-1.5076765,0.69732356,-72.12913,12.16317,8.505756,-4.094569,2.160097,-7.727229,40.08429,45.226497,-14.111409
438,4140493931,-15.295319,-4.7422028,-59.886475,2.9991093,-1.6485933,0.49080092,-76.193985,13.410373,10.432991,-4.044584,2.13262,-7.719049,38.81439,45.450003,-13.937526
439,4140510598,-14.622711,-4.747818,-61.258835,3.1618853,-1.656298,0.30082226,-73.8333,13.42041,11.110433,-3.991886,2.105015,-7.714035,37.583835,45.673677,-13.752352
440,4140527265,-13.8376465,-4.672333,-62.64009,3.2144527,-1.6037005,0.09834039,-68.36917,13.099063,11.356371,-3.938312,2.078287,-7.712396,36.444349,45.891995,-13.563079
441,4140543932,-12.846329,-4.4462433,-64.035965,3.0817394,-1.446493,-0.10428369,-57.76478,12.025381,10.6482115,-3.88695,2.054179,-7.714134,35.481603,46.092418,-13.385609
442,4140560599,-11.658356,-4.2401123,-65.65765,2.90726,-1.2886037,-0.3269745,-46.635292,10.850144,10.523818,-3.838496,2.032702,-7.719584,34.704348,46.273254,-13.210212
443,4140577266,-10.284195,-4.064049,-67.50412,2.6973677,-1.1354617,-0.57257676,-35.20223,9.644763,11.072123,-3.79354,2.013778,-7.729127,34.117644,46.434,-13.025677
444,4140593933,-8.629028,-3.7730331,-69.48259,2.3118572,-0.89631534,-0.8204994,-19.353176,7.712569,11.0892105,-3.755009,1.998839,-7.742802,33.795091,46.562543,-12.840857
445,4140610600,-6.6873474,-3.4025803,-71.64253,1.7767534,-0.5920577,-1.0752702,0.0068745613,5.185918,10.909576,-3.725396,1.988971,-7.760723,33.795206,46.648975,-12.659031
446,4140627267,-5.528717,-3.2028122,-72.85791,1.3282652,-0.35055268,-1.2121358,13.784361,3.169562,9.933572,-3.703258,1.983128,-7.780925,34.024945,46.701801,-12.493471
447,4140643934,-5.233917,-3.1794662,-73.01491,0.96647835,-0.17165017,-1.2151878,21.671425,1.6604065,7.956353,-3.68715,1.980267,-7.801178,34.386135,46.729474,-12.360865
448,4140660601,-5.285553,-3.2376938,-72.68303,0.59216785,-0.0076807737,-1.1455388,27.422602,0.20851801,5.487156,-3.677281,1.980139,-7.82027,34.843178,46.732949,-12.269412
449,4140677268,-5.9764557,-3.4428482,-71.54204,0.262681,0.10949117,-0.96559143,28.654257,-0.91794956,2.308611,-3.672903,1.981964,-7.836363,35.320749,46.71765,-12.230935
450,4140693935,-6.6573334,-3.612259,-70.21913,-0.20169544,0.2790436,-0.7417481,31.784521,-2.5454206,-1.5425022,-3.676265,1.986615,-7.848725,35.850491,46.675226,-12.256643
451,4140710602,-7.2868347,-3.7380142,-68.75084,-0.8146038,0.5064012,-0.4758252,37.154427,-4.732478,-6.0528336,-3.689842,1.995055,-7.856655,36.469731,46.596351,-12.357524
452,4140727269,-8.444778,-3.9677963,-66.53778,-1.4405804,0.7155987,-0.099527836,39.516068,-6.850868,-11.454181,-3.713852,2.006982,-7.858314,37.128332,46.48217,-12.548427
453,4140743936,-9.998459,-4.264023,-63.700455,-2.1212769,0.92828774,0.37622523,40.215927,-9.089005,-17.762465,-3.749207,2.022453,-7.852044,37.798597,46.330687,-12.844468
454,4140760603,-11.29332,-4.4123077,-61.388123,-2.5746765,1.0888672,0.69473547,41.222794,-11.211837,-21.231663,-3.792118,2.040601,-7.840465,38.485644,46.143823,-13.198329
455,4140777270,-12.347183,-4.4102554,-59.62126,-2.7581024,1.1828859,0.8424424,42.04966,-13.128946,-21.549738,-3.838086,2.060316,-7.826424,39.186472,45.925007,-13.557491
456,4140793937,-13.388306,-4.3344727,-57.922745,-2.8343883,1.2513659,0.93612856,42.638405,-15.087761,-20.515778,-3.885326,2.081172,-7.810822,39.897112,45.673544,-13.899421
457,4140810604,-14.260559,-4.1295547,-56.583267,-2.7187004,1.2756745,0.90751374,43.319946,-17.004858,-17.08609,-3.930638,2.102433,-7.795697,40.619111,45.39013,-14.184189
458,4140827271,-15.500748,-3.9593658,-54.765335,-2.5422277,1.2684418,0.92685854,41.548096,-18.869518,-13.50456,-3.973008,2.123574,-7.780249,41.311579,45.075638,-14.409265
459,4140843938,-17.139923,-3.8305588,-52.415527,-2.3138385,1.2311928,1.0049069,37.210762,-20.698355,-9.897618,-4.011572,2.144094,-7.763501,41.931758,44.730665,-14.574225
460,4140860605,-18.784485,-3.6137161,-50.19359,-1.8903809,1.1398395,0.99809253,31.776178,-22.419123,-4.2208033,-4.043078,2.163091,-7.746866,42.461361,44.357013,-14.644572
461,4140877272,-20.555176,-3.3427505,-47.915222,-1.2951059,0.9954605,0.94242334,24.631968,-24.027008,3.0822942,-4.064663,2.179682,-7.731159,42.871894,43.956563,-14.5932
462,4140893939,-21.92714,-3.0372543,-45.894165,-0.8429661,0.87311596,0.942829,21.313372,-25.59603,7.346095,-4.078712,2.194234,-7.715445,43.227117,43.529963,-14.470765
463,4140910606,-22.806152,-2.6825638,-44.24034,-0.53986454,0.774455,0.9908364,22.447906,-27.111544,8.405506,-4.08771,2.207142,-7.698931,43.601249,43.078104,-14.330673
464,4140927273,-23.525711,-2.2912827,-42.67964,-0.24665451,0.6625273,1.0603054,24.935392,-28.526443,8.198887,-4.091821,2.218184,-7.681259,44.016839,42.602663,-14.194025
465,4140943940,-23.924622,-1.8633881,-41.32614,-0.04187107,0.55559194,1.1748265,30.340387,-29.848083,5.501398,-4.092519,2.227444,-7.661679,44.522512,42.105195,-14.102335
466,4140960607,-24.209854,-1.3518982,-40.164764,0.30029297,0.40166336,1.236032,35.76716,-31.010805,3.5791955,-4.087514,2.234138,-7.641078,45.118631,41.588348,-14.042682
467,4140977274,-24.40004,-0.7548218,-39.187103,0.7970791,0.19550681,1.2395228,40.9685,-31.99816,2.6064744,-4.074229,2.237396,-7.620419,45.801439,41.055045,-13.999241
468,4140993941,-24.243881,-0.093170166,-38.512375,1.2718477,-0.022641778,1.2529197,48.763687,-32.839863,-0.09855473,-4.053032,2.237019,-7.599537,46.614167,40.507714,-14.000884
469,4141010608,-23.776855,0.6452484,-38.149017,1.7760258,-0.26538038,1.254144,58.560936,-33.511497,-3.8520005,-4.023432,2.232596,-7.578635,47.590183,39.949189,-14.065084
470,4141027275,-23.898972,1.0895615,-37.229492,2.1651354,-0.3862406,1.0985043,62.56141,-31.651007,-6.648014,-3.987346,2.226159,-7.560327,48.632873,39.421672,-14.175884
471,4141043942,-24.653381,1.2027359,-35.702347,2.4048414,-0.36627614,0.77729625,60.404915,-27.008917,-8.634945,-3.947265,2.220054,-7.547372,49.639622,38.971523,-14.3198
472,4141060609,-25.628052,1.1693878,-33.99797,2.5997343,-0.28363943,0.34164834,55.41163,-20.662514,-10.314578,-3.903936,2.215327,-7.541678,50.563149,38.627148,-14.49171
473,4141077276,-27.059525,0.8838501,-31.88816,2.7027988,-0.09502995,-0.24977708,45.501236,-11.916162,-11.228601,-3.858889,2.213743,-7.545841,51.321503,38.428545,-14.678853
474,4141093943,-28.352112,0.5563431,-29.92035,2.7556133,0.12384051,-0.898226,35.921555,-2.1116705,-13.252235,-3.812962,2.215807,-7.560811,51.920196,38.39335,-14.899724
475,4141110610,-29.465775,0.198349,-28.13916,2.7634258,0.36880618,-1.6031566,26.94182,8.718635,-16.464804,-3.766905,2.221954,-7.58753,52.369226,38.538661,-15.174137
476,4141127277,-30.898682,-0.38985443,-26.079384,2.6614733,0.71719086,-2.4523058,14.136204,21.890392,-19.565456,-3.722547,2.233907,-7.628402,52.604829,38.903501,-15.500228
477,4141143944,-32.522964,-1.1681061,-23.861755,2.4555912,1.1553147,-3.4285715,-1.4197512,37.1759,-22.970886,-3.68162,2.253162,-7.685545,52.581166,39.523099,-15.883076
478,4141160611,-32.9469,-1.7751923,-23.090782,2.2337866,1.3943692,-3.9489138,-12.889656,46.935215,-23.88198,-3.64439,2.276401,-7.75136,52.366338,40.305353,-16.281109
479,4141177278,-32.092316,-2.2065353,-23.871971,1.9905033,1.4183408,-3.9681718,-20.186514,50.61994,-21.886724,-3.611215,2.30004,-7.817496,52.029896,41.149019,-16.645888
480,4141193945,-30.52629,-2.6111298,-25.536049,1.6831551,1.3566997,-3.7515805,-25.850481,51.720047,-18.600712,-3.583162,2.322652,-7.880022,51.599055,42.01102,-16.9559
481,4141210612,-27.865982,-2.8984375,-28.530296,1.3291607,1.1319312,-3.1362174,-28.124708,48.126724,-13.18861,-3.561009,2.341518,-7.932292,51.13031,42.813132,-17.17571
482,4141227279,-25.037476,-3.335579,-31.820908,0.8560438,0.9337561,-2.4853535,-32.158997,44.654835,-6.9371567,-3.546742,2.357081,-7.973715,50.594327,43.557379,-17.291329
483,4141243946,-22.073303,-3.9400177,-35.373535,0.25406456,0.7731037,-1.8158453,-38.190544,41.551796,0.063022256,-3.542508,2.369966,-8.003979,49.957818,44.249909,-17.290279
484,4141260613,-18.169266,-4.5037766,-40.10707,-0.4300499,0.48810643,-0.80094576,-42.149673,34.55031,9.215895,-3.549675,2.378101,-8.017328,49.255323,44.825747,-17.136681
485,4141277280,-13.503479,-5.086235,-45.826828,-1.2165871,0.11803222,0.4888761,-45.117676,24.606936,20.291475,-3.569951,2.380068,-8.00918,48.503362,45.235863,-16.79849
486,4141293947,-9.980209,-5.501877,-50.265625,-1.7855587,-0.12716246,1.3068277,-47.513435,18.385324,27.101206,-3.59971,2.377949,-7.9874,47.711471,45.542285,-16.346803
487,4141310614,-7.67276,-5.707878,-53.33542,-2.1029272,-0.2484101,1.6268035,-48.865173,15.930327,29.266893,-3.634759,2.373809,-7.960287,46.897051,45.80779,-15.859021
488,4141327281,-5.7874146,-5.8327255,-55.996567,-2.3366504,-0.3197583,1.760237,-49.682854,14.665063,29.59905,-3.673703,2.36848,-7.93095,46.069003,46.052208,-15.365703
489,4141343948,-4.8270645,-5.8158875,-57.652298,-2.3957047,-0.288612,1.5114028,-49.917244,16.264593,26.423351,-3.713631,2.36367,-7.90576,45.237049,46.323285,-14.925314
490,4141360615,-3.4582596,-5.712715,-59.88481,-2.458899,-0.31972706,1.405317,-48.22828,15.675051,23.724367,-3.754613,2.358341,-7.882338,44.433244,46.584536,-14.529908
491,4141377282,-1.6110611,-5.528496,-62.782166,-2.53831,-0.42089593,1.470621,-44.57141,12.610207,21.728931,-3.796918,2.351326,-7.857828,43.690387,46.794706,-14.167759
492,4141393949,-0.38439178,-5.1783447,-65.042755,-2.4638062,-0.46571732,1.277616,-39.500275,10.988639,16.989605,-3.837981,2.343564,-7.836534,43.032049,46.97785,-13.884599
493,4141410616,0.4997406,-4.6692963,-66.99965,-2.2707734,-0.4894576,0.93679476,-32.667976,9.708703,10.322498,-3.875827,2.335406,-7.820921,42.487583,47.139662,-13.712557
494,4141427283,1.4347687,-4.3875427,-68.87285,-2.0760717,-0.5478389,0.857941,-29.084352,8.317363,6.0408297,-3.910428,2.326275,-7.806622,42.002844,47.278285,-13.611877
495,4141443950,2.314499,-4.353279,-70.51358,-1.864707,-0.6315839,1.0269378,-29.22061,7.2266016,4.0966377,-3.941506,2.315749,-7.789506,41.515834,47.398728,-13.5436
496,4141460617,3.1306686,-4.3830566,-72.03235,-1.6007733,-0.7385664,1.3232503,-30.40904,5.8888345,2.9627523,-3.968186,2.30344,-7.767452,41.009017,47.496875,-13.494221
497,4141477284,3.9451065,-4.5782547,-73.432755,-1.3064575,-0.8805417,1.8465437,-34.03428,4.304806,3.7030401,-3.98996,2.288764,-7.736676,40.441779,47.568622,-13.432504
498,4141493951,4.2324295,-4.6875916,-74.238525,-0.86547947,-0.9925505,2.2467034,-37.27407,3.72639,2.8854475,-4.004385,2.272221,-7.699231,39.820544,47.630728,-13.384413
499,4141510618,3.9666595,-4.692444,-74.42688,-0.2677555,-1.0735871,2.5100465,-39.900368,4.1480923,0.33252966,-4.008848,2.254328,-7.657397,39.155538,47.699863,-13.378871
500,4141527285,3.4427948,-4.8038483,-74.21225,0.41491222,-1.1653844,2.894287,-44.524475,4.9857354,-1.3619943,-4.001933,2.234905,-7.609159,38.413463,47.782959,-13.401571
501,4141543952,2.5317001,-4.9670258,-73.470184,1.2125111,-1.2539688,3.3244445,-50.556503,6.5275354,-2.9469128,-3.981724,2.214006,-7.553752,37.570855,47.891751,-13.450686
502,4141560619,2.052658,-5.022003,-73.03937,1.8091345,-1.3048595,3.4408526,-53.67591,7.3588676,-3.2877476,-3.951572,2.192258,-7.496404,36.676256,48.014399,-13.505482
503,4141577286,2.0979538,-4.9794617,-72.994354,2.169674,-1.3182083,3.235446,-53.824127,7.334246,-1.9747977,-3.915411,2.170288,-7.44248,35.779187,48.136636,-13.538395
504,4141593953,2.1740417,-4.8778763,-72.82703,2.4677744,-1.2998697,2.82447,-52.672073,7.3604307,-0.061035514,-3.874281,2.148624,-7.395405,34.901319,48.25931,-13.539412
505,4141610620,2.5068054,-4.679863,-72.75731,2.6139755,-1.2402111,2.1108706,-49.118248,7.063903,2.8628654,-3.830715,2.127954,-7.360224,34.082682,48.377042,-13.491698
506,4141627287,2.676773,-4.5305862,-72.32367,2.77874,-1.169748,1.3677717,-46.342644,7.1357346,6.803049,-3.784403,2.108458,-7.337428,33.310305,48.495971,-13.378314
507,4141643954,2.635292,-4.4349594,-71.46481,2.9757261,-1.087777,0.6001963,-44.510757,7.6818967,11.716839,-3.734808,2.090328,-7.327425,32.568459,48.624003,-13.183033
508,4141660621,2.7839355,-4.2899017,-70.5898,3.041089,-0.96990216,-0.41535592,-41.10408,8.053644,17.996767,-3.684123,2.074163,-7.334348,31.883391,48.75823,-12.883087
509,4141677288,3.0288925,-4.126663,-69.58632,3.0094872,-0.82133484,-1.6268146,-36.799843,8.421466,25.679453,-3.633965,2.060474,-7.361462,31.27006,48.898588,-12.455096
510,4141693955,3.723381,-3.9983597,-57.72682,2.9191456,-0.73731005,-2.3293378,-31.861994,8.651059,29.316818,-3.585313,2.048185,-7.400284,30.739027,49.042772,-11.966482
511,4141710622,4.960724,-3.8996124,-33.955017,2.7483997,-0.72372127,-2.4831905,-26.004532,8.648582,28.477194,-3.539506,2.036123,-7.441671,30.305618,49.186915,-11.491862
512,4141727289,6.51622,-3.827568,-3.2029266,2.498454,-0.7384411,-2.3888915,-19.553524,8.599907,25.795916,-3.497865,2.023816,-7.481486,29.979726,49.330247,-11.06193
513,4141743956,8.514816,-3.7952347,37.640965,2.1693945,-0.80746996,-1.8544409,-12.484665,8.440785,19.770262,-3.461708,2.010358,-7.512393,29.771648,49.470927,-10.732426
514,4141760623,10.853127,-3.7455063,82.35458,1.6933613,-0.8677372,-1.3522558,-3.9819498,8.115604,13.67957,-3.433485,1.995896,-7.534931,29.705282,49.606187,-10.504433
515,4141777290,13.532982,-3.6789017,130.73611,1.0627556,-0.9160235,-0.9039967,5.9740915,7.6298623,7.724304,-3.415772,1.980629,-7.549998,29.80485,49.733351,-10.375695
516,4141793957,16.731041,-3.63546,188.74622,0.3055296,-1.0066396,-0.104720354,17.03743,6.9448586,-1.0522554,-3.41068,1.963852,-7.551743,30.088807,49.849099,-10.393233
517,4141810624,20.443268,-3.6041641,255.27968,-0.59882164,-1.1268295,0.9511087,29.413744,6.041178,-11.988613,-3.42066,1.945072,-7.535891,30.579036,49.949785,-10.593043
518,4141827291,22.409973,-3.641327,289.95694,-1.2637949,-1.0975245,1.5821387,38.076286,4.5919647,-18.867783,-3.441723,1.92678,-7.509522,31.213641,50.026318,-10.907506
519,4141843958,22.445938,-3.7577667,289.65536,-1.6538043,-0.9081173,1.777046,42.528694,2.541888,-21.493391,-3.469286,1.911645,-7.479905,31.922453,50.068683,-11.265729
520,4141860625,21.627869,-3.9202728,272.7876,-1.9703703,-0.63478446,1.7994004,45.31006,0.01717873,-22.394756,-3.502126,1.901065,-7.449915,32.677621,50.068969,-11.638975
521,4141877292,19.326408,-4.146866,228.08104,-2.1063805,-0.22845984,1.4742485,44.996895,-3.0933797,-19.944458,-3.537232,1.897257,-7.425344,33.427569,50.017413,-11.971383
522,4141893959,16.910934,-4.4178085,180.57724,-2.2856421,0.1929388,1.3085741,44.42681,-6.625719,-18.541471,-3.575326,1.900473,-7.403534,34.168016,49.906984,-12.280408
523,4141910626,14.457191,-4.7325516,131.45,-2.5250397,0.6243604,1.3282526,43.769997,-10.59349,-18.411455,-3.61741,1.910879,-7.381396,34.897516,49.730426,-12.587266
524,4141927293,10.724144,-5.1182327,58.144436,-2.619482,1.1681496,1.1317376,40.340965,-15.192795,-15.961286,-3.661068,1.930348,-7.362534,35.569865,49.477213,-12.853287
525,4141943960,5.982765,-5.5725937,-34.480057,-2.6153936,1.8011134,0.8267356,34.691483,-20.410662,-12.109909,-3.704658,1.960367,-7.348755,36.148056,49.137035,-13.055119
526,4141960627,2.4248047,-5.79261,-92.601364,-2.5472336,2.1424112,0.73625785,31.740316,-24.490328,-9.473973,-3.747112,1.996074,-7.336484,36.677061,48.728863,-13.213019
527,4141977294,0.085487366,-5.7533646,-114.18596,-2.388227,2.1681135,0.843443,31.562368,-27.299242,-7.8485765,-3.786916,2.032209,-7.322427,37.2031,48.273876,-13.343829
528,4141993961,-1.9107819,-5.597687,-121.79741,-2.1495547,2.043209,1.068572,32.142464,-29.67382,-6.596099,-3.822742,2.066262,-7.304617,37.738808,47.779312,-13.453764
529,4142010628,-3.006279,-5.2408905,-101.26515,-1.8289075,1.6630504,1.4894581,34.72216,-31.13077,-6.3109055,-3.853224,2.09398,-7.279793,38.317511,47.260466,-13.558946
530,4142027295,-4.8171616,-4.8667984,-90.12602,-1.3503323,1.2757415,1.8148172,35.690826,-32.763508,-4.517377,-3.87573,2.115242,-7.249546,38.912358,46.714408,-13.634236
531,4142043962,-7.435852,-4.4849854,-90.40262,-0.7066002,0.8923534,2.0358908,34.822624,-34.637653,-1.1112521,-3.887507,2.130115,-7.215614,39.492735,46.137114,-13.652757
532,4142060629,-9.587479,-3.9284058,-71.18176,0.072854996,0.2963031,2.3631997,34.951767,-35.7838,2.2005134,-3.886293,2.135053,-7.176227,40.075264,45.540717,-13.616082
533,4142077296,-11.621582,-3.2330017,-40.32115,1.0105524,-0.4635508,2.7352233,35.284653,-36.424316,5.9693365,-3.86945,2.127327,-7.13064,40.663342,44.933645,-13.516593
534,4142093963,-13.654251,-2.7273254,-24.373878,1.6816435,-0.8935989,2.8064287,35.448967,-36.05573,7.4791822,-3.841423,2.112434,-7.083866,41.254158,44.332716,-13.39194
535,4142110630,-15.543091,-2.4192505,-21.969185,2.047308,-0.9754609,2.5648603,35.739037,-34.4839,6.2905693,-3.807301,2.096176,-7.041118,41.849809,43.757984,-13.287097
536,4142127297,-17.470734,-2.1745453,-25.69268,2.3290186,-0.9124845,2.1298,35.779823,-32.073853,4.0814905,-3.768484,2.080968,-7.005621,42.446139,43.22342,-13.219072
537,4142143964,-19.423386,-2.077797,-41.815247,2.4092007,-0.57429636,1.4068737,35.55954,-28.621326,0.0368917,-3.728331,2.071396,-6.982173,43.038798,42.746398,-13.218457
538,4142160631,-21.006912,-1.8916473,-46.754715,2.5337124,-0.3071139,0.65021116,35.998672,-24.140879,-4.6998806,-3.686102,2.066277,-6.971336,43.638776,42.34405,-13.296788
539,4142177298,-22.217636,-1.6025925,-39.5157,2.7211905,-0.12845874,-0.13491762,37.093483,-18.611057,-10.025137,-3.640749,2.064136,-6.973585,44.257001,42.033866,-13.463874
540,4142193965,-23.22313,-1.400589,-36.973114,2.7465076,0.24701911,-1.1603796,38.402687,-11.807139,-17.249083,-3.594974,2.068253,-6.992925,44.897046,41.83708,-13.751359
541,4142210632,-23.927246,-1.2347565,-33.964264,2.660737,0.7474996,-2.3779747,40.136597,-3.6884525,-26.163954,-3.550628,2.080711,-7.032558,45.565989,41.775606,-14.187425
542,4142227299,-24.26796,-1.250534,-31.737862,2.5892706,1.0418849,-3.0952547,38.793053,3.1929636,-30.717106,-3.507473,2.098076,-7.084146,46.21254,41.828822,-14.699377
543,4142243966,-24.230942,-1.4865341,-32.16957,2.5117998,1.1344355,-3.2726915,34.007446,8.661697,-30.530085,-3.46561,2.116983,-7.138691,46.779331,41.973184,-15.208212
544,4142260633,-23.758392,-1.8409271,-30.972916,2.3998146,1.1348116,-3.2077434,27.593855,13.992512,-28.359617,-3.425613,2.135897,-7.192153,47.239229,42.206393,-15.680872
545,4142277300,-22.814331,-2.363762,-28.889519,2.276348,0.96047586,-2.7118714,18.55755,18.501999,-22.564863,-3.387674,2.151905,-7.237351,47.548522,42.51476,-16.056953
546,4142293967,-21.458237,-3.021408,-29.427559,2.0080595,0.8793937,-2.2470417,8.809486,23.782394,-17.01403,-3.354206,2.166562,-7.274802,47.695347,42.911133,-16.34052
547,4142310634,-19.658875,-3.8121796,-32.254005,1.5854206,0.90305495,-1.834964,-1.5284691,29.957626,-11.925957,-3.327782,2.181613,-7.305385,47.669873,43.410427,-16.539286
548,4142327301,-17.336548,-4.801712,-36.323364,1.08922,0.8283009,-1.0791335,-14.297046,35.650505,-3.9381883,-3.309628,2.195418,-7.323371,47.431589,44.004602,-16.604922
549,4142343968,-14.480347,-5.9886703,-42.35707,0.48596478,0.71220374,-0.07213557,-29.12549,41.205494,6.1601048,-3.301529,2.207288,-7.324573,46.946164,44.69136,-16.502254
550,4142360635,-11.957321,-6.7667007,-46.4691,-0.026141167,0.6149453,0.56653917,-39.547592,44.120144,12.620484,-3.301965,2.217537,-7.315131,46.287037,45.426696,-16.291913
551,4142377302,-9.826691,-7.0909805,-48.36209,-0.4235592,0.51876485,0.8306352,-45.19748,43.9524,15.335058,-3.309024,2.226183,-7.301287,45.533746,46.159236,-16.036329
552,4142393969,-7.6535645,-7.2522736,-50.46591,-0.827548,0.4342267,0.95575595,-48.91043,42.094475,16.522095,-3.322816,2.23342,-7.285358,44.718572,46.860811,-15.760961
553,4142410636,-5.669861,-7.0846252,-51.8033,-1.1830645,0.37180936,0.7844124,-48.93725,37.750874,14.698295,-3.342534,2.239617,-7.272284,43.902951,47.489992,-15.515989
554,4142427303,-3.3191986,-6.9619827,-54.27852,-1.5906506,0.2434389,0.78538936,-49.52362,31.998503,14.09793,-3.369045,2.243674,-7.259194,43.077557,48.0233,-15.281024
555,4142443970,-0.55722046,-6.9077225,-58.19864,-2.0622182,0.04817474,0.982973,-50.88807,24.865032,14.928652,-3.403415,2.244477,-7.242811,42.229423,48.437717,-15.032213
556,4142460637,2.1415863,-6.59037,-61.844986,-2.5006409,-0.16270578,1.0104043,-49.38157,15.053006,13.811479,-3.445092,2.241765,-7.225971,41.406397,48.6886,-14.802022
557,4142477304,4.8992233,-6.0864944,-65.705475,-2.9284096,-0.40870476,0.9681433,-45.86461,2.7103822,11.637515,-3.493899,2.234953,-7.209835,40.641987,48.733773,-14.608063
558,4142493971,6.7761383,-5.796776,-68.47241,-3.135149,-0.5730529,1.0508134,-44.38546,-5.1478705,10.303922,-3.546151,2.225402,-7.192321,39.902229,48.647975,-14.436331
559,4142510638,7.614029,-5.714157,-69.821,-3.0853162,-0.6405014,1.2338983,-44.837227,-8.078274,9.575152,-3.597573,2.214727,-7.171756,39.154942,48.513337,-14.276745
560,4142527305,7.932785,-5.69648,-70.73486,-2.8914704,-0.6808398,1.4940133,-45.837326,-9.367935,9.144841,-3.645764,2.20338,-7.146856,38.390987,48.357205,-14.124331
561,4142543972,7.4375153,-5.8410797,-70.78537,-2.4869013,-0.6606704,1.8740276,-48.35852,-7.126112,9.420706,-3.687212,2.192369,-7.115622,37.585012,48.238436,-13.967319
562,4142560639,6.546173,-5.8260956,-70.404526,-1.968102,-0.6344937,2.1667762,-49.048424,-5.8442516,8.407328,-3.720014,2.181794,-7.079509,36.767538,48.141032,-13.827197
563,4142577306,5.2722397,-5.633705,-69.65352,-1.3369236,-0.6077633,2.367692,-47.72371,-5.808719,6.0350065,-3.742296,2.171665,-7.040047,35.972143,48.04422,-13.726614
564,4142593973,3.1275558,-5.5040207,-67.919205,-0.4813633,-0.5238762,2.6146169,-46.846344,-3.1431515,3.6142306,-3.750319,2.162934,-6.99647,35.191371,47.991834,-13.666377
565,4142610640,0.17330933,-5.3657455,-65.27489,0.5850258,-0.39388025,2.8629484,-45.66877,1.2141935,0.69870764,-3.740569,2.156369,-6.948754,34.430225,48.012071,-13.654732
566,4142627307,-1.627533,-5.233925,-64.05948,1.3454847,-0.36870658,2.9131482,-45.4338,3.3669856,-0.48809862,-3.718144,2.150224,-6.900202,33.672995,48.068187,-13.662867
567,4142643974,-2.174408,-5.1360016,-64.386215,1.7704458,-0.45455217,2.7577262,-46.52574,3.4541092,0.39283597,-3.688637,2.142648,-6.85424,32.897566,48.125755,-13.65632
568,4142660641,-2.3810654,-5.0140076,-65.17085,2.101387,-0.5865395,2.457593,-47.822815,2.7177112,1.9643986,-3.653614,2.132872,-6.81328,32.100519,48.17105,-13.62358
569,4142677308,-1.7303238,-4.8785706,-67.02634,2.2005997,-0.804405,1.9566772,-49.743263,0.22786073,4.881873,-3.616937,2.119465,-6.780669,31.271465,48.174848,-13.542215
570,4142693975,-1.5204086,-4.7798386,-68.421326,2.404976,-1.0059265,1.404731,-52.170372,-0.7321632,8.183782,-3.576854,2.1027,-6.757257,30.401959,48.162645,-13.405819
571,4142710642,-1.8418732,-4.7140427,-69.248566,2.7370825,-1.1853162,0.8019443,-55.033394,0.00032524765,11.773878,-3.531236,2.082945,-6.743891,29.484736,48.16265,-13.209588
572,4142727309,-1.6077728,-4.666855,-70.791626,2.910839,-1.4277073,0.021546006,-58.778046,0.030819118,16.718672,-3.482722,2.05915,-6.743532,28.505102,48.163164,-12.930943
573,4142743976,-1.0985336,-4.649193,-72.71974,2.9979105,-1.7116927,-0.90994287,-63.39634,0.0845893,22.833277,-3.432757,2.030622,-6.758698,27.448496,48.164574,-12.550388
574,4142760643,-0.73999786,-4.5685883,-74.06932,3.0224266,-1.8633696,-1.499249,-63.118103,0.20120957,25.661201,-3.382383,1.999566,-6.783685,26.396528,48.167927,-12.122701
575,4142777310,-0.43495178,-4.4175415,-74.90794,2.9484673,-1.8762625,-1.7160547,-57.46673,0.13365981,24.933268,-3.333242,1.968295,-6.812286,25.438749,48.170155,-11.707147
576,4142793977,-0.16843414,-4.2490463,-75.469086,2.8105202,-1.818117,-1.7784412,-49.17943,0.38455713,22.653385,-3.2864,1.937993,-6.841927,24.619092,48.176564,-11.329591
577,4142810644,-0.015853882,-4.0388107,-75.52957,2.601717,-1.6424078,-1.5518656,-36.645874,0.9092252,17.614714,-3.243038,1.91062,-6.867791,24.008327,48.191718,-11.036012
578,4142827311,0.5468521,-3.8364105,-75.972,2.2325697,-1.4717084,-1.360956,-23.313057,1.0960896,12.6815195,-3.205829,1.886092,-6.890474,23.619776,48.209986,-10.824653
579,4142843978,1.5392761,-3.6476288,-76.82858,1.697978,-1.3108214,-1.2222204,-9.363846,0.98645914,8.010507,-3.177529,1.864245,-6.910844,23.463712,48.226427,-10.691145
580,4142860645,2.6506958,-3.4276733,-77.47777,1.0300751,-1.0577112,-0.8554838,8.353634,0.83965766,1.1179821,-3.160361,1.846616,-6.925102,23.602939,48.240421,-10.672512
581,4142877312,4.0039673,-3.1880112,-78.11151,0.20381927,-0.7368853,-0.32626748,29.165892,0.5321918,-7.413742,-3.156964,1.834335,-6.93054,24.089037,48.249291,-10.796074
582,4142893979,4.587204,-3.094429,-78.06819,-0.42742252,-0.44695103,0.008942127,43.227158,0.13530177,-13.144441,-3.164088,1.826886,-6.930391,24.80949,48.251546,-11.015148
583,4142910646,4.280014,-3.1582031,-77.216125,-0.8327751,-0.18361092,0.1539787,50.01631,-0.33941036,-15.975011,-3.177968,1.823826,-6.927825,25.643095,48.245889,-11.281398
584,4142927313,3.655426,-3.3097687,-76.00221,-1.2023888,0.08471137,0.23701215,53.775757,-1.0219132,-17.636349,-3.198008,1.825238,-6.923875,26.539358,48.228857,-11.575337
585,4142943980,2.425354,-3.5954666,-74.22038,-1.4401779,0.3349067,0.17032897,51.84993,-1.9046482,-16.976768,-3.222011,1.83082,-6.921036,27.403523,48.197113,-11.858283
586,4142960647,1.1053238,-3.9101791,-72.0916,-1.7497792,0.6529915,0.2378912,50.80478,-2.9486706,-17.238485,-3.251174,1.841703,-6.917071,28.250269,48.147968,-12.145591
587,4142977314,-0.26055145,-4.2504883,-69.64049,-2.1493154,1.0437019,0.45506,50.968605,-4.181614,-18.57974,-3.286996,1.859098,-6.909487,29.099746,48.078274,-12.455253
588,4142993981,-2.1837845,-4.7107315,-66.56705,-2.454978,1.4457228,0.60781735,46.743034,-5.6291428,-18.39657,-3.327912,1.883193,-6.899357,29.878797,47.984455,-12.761863
589,4143010648,-4.560417,-5.2712936,-62.906998,-2.7109318,1.8785291,0.7585784,39.46019,-7.29838,-17.368423,-3.373094,1.914502,-6.886714,30.536467,47.862815,-13.051337
590,4143027315,-6.4513397,-5.5681534,-59.976135,-2.824378,2.1074953,0.95016456,35.55591,-9.51528,-16.252731,-3.420167,1.949627,-6.870878,31.129065,47.704227,-13.322216
591,4143043982,-7.842163,-5.578987,-57.847214,-2.760188,2.1025834,1.1632049,34.895836,-12.325933,-14.791225,-3.46617,1.98467,-6.851491,31.710662,47.498795,-13.568736
592,4143060649,-9.116867,-5.4641953,-55.908386,-2.5896645,1.9879369,1.4216684,35.265984,-15.594872,-13.068514,-3.509331,2.017802,-6.827797,32.298428,47.23888,-13.786545
593,4143077316,-10.0383,-5.1244583,-54.509155,-2.2760925,1.6942308,1.731867,38.22989,-19.426277,-11.189902,-3.547266,2.046039,-6.798933,32.935593,46.915109,-13.973043
594,4143093983,-11.288528,-4.797531,-52.798767,-1.8253422,1.341425,2.0160117,38.516945,-23.666195,-8.01603,-3.577688,2.068396,-6.765333,33.577542,46.520672,-14.106644
595,4143110650,-12.909622,-4.4952316,-50.720566,-1.2354803,0.93579847,2.275534,35.848656,-28.322277,-3.5015566,-3.598279,2.083993,-6.727407,34.17502,46.048634,-14.165003
596,4143127317,-14.363739,-4.0115585,-48.998367,-0.46534634,0.35405838,2.5537338,34.1352,-33.574852,1.7373061,-3.606035,2.089894,-6.684845,34.74394,45.489053,-14.136048
597,4143143984,-15.800049,-3.3942032,-47.45166,0.49043941,-0.38241673,2.8343368,32.2125,-39.408432,7.9780064,-3.597861,2.08352,-6.637606,35.280815,44.832246,-14.003081
598,4143160651,-17.343811,-2.9224472,-45.46582,1.1789331,-0.79436314,2.8453214,31.06051,-41.979176,10.922897,-3.578212,2.070281,-6.590184,35.79849,44.132593,-13.821033
599,4143177318,-18.944016,-2.5949326,-43.075195,1.5682259,-0.85458076,2.5616279,31.201101,-40.933567,10.116945,-3.552075,2.056038,-6.54749,36.318508,43.450367,-13.652417
600,4143193985,-20.644516,-2.3088455,-40.45224,1.8822985,-0.7788408,2.0981913,31.345995,-38.07729,7.807164,-3.520703,2.043057,-6.51252,36.840941,42.815746,-13.522298
601,4143210652,-22.462753,-2.1333923,-37.453445,1.9990978,-0.43830955,1.3754345,31.881773,-32.314785,2.7715802,-3.487385,2.035752,-6.489596,37.372304,42.277166,-13.476105
602,4143227319,-24.191635,-1.8496017,-34.622665,2.1996708,-0.14667666,0.56090087,33.211174,-25.921486,-2.6359143,-3.450724,2.033307,-6.480248,37.925824,41.845141,-13.520037
603,4143243986,-25.829727,-1.4454498,-31.983986,2.5047474,0.07792443,-0.34243608,35.25847,-18.99741,-8.260077,-3.408978,2.034606,-6.485955,38.513465,41.528518,-13.657705
604,4143260653,-27.49031,-1.0875854,-29.150276,2.6692896,0.5037878,-1.4921601,38.19284,-9.417387,-16.36388,-3.36449,2.043002,-6.510824,39.150012,41.371562,-13.930436
605,4143277320,-29.126938,-0.7280197,-26.241493,2.7531815,1.0660497,-2.8594205,42.11936,2.3918834,-26.4871,-3.318604,2.060769,-6.558481,39.852001,41.411427,-14.371888
606,4143293987,-29.826782,-0.6471863,-24.647423,2.794365,1.3948094,-3.659919,41.961975,11.360531,-31.693306,-3.272031,2.084016,-6.61948,40.551367,41.600769,-14.90011
607,4143310654,-29.50116,-0.89281464,-24.47197,2.7630587,1.4894841,-3.8405755,37.30213,17.315355,-31.634193,-3.22598,2.108841,-6.68349,41.173069,41.889358,-15.427347
608,4143327321,-28.539322,-1.300293,-25.152466,2.6792803,1.483293,-3.7566478,30.641771,22.419212,-29.315863,-3.181325,2.133563,-6.746101,41.683765,42.263012,-15.915945
609,4143343988,-26.672394,-1.9563904,-27.085968,2.5415106,1.282788,-3.192921,20.579536,25.353027,-22.880625,-3.138966,2.154943,-6.799316,42.026757,42.685562,-16.297289
610,4143360655,-24.448502,-2.7424545,-29.382042,2.2633867,1.1736765,-2.651088,10.096315,29.674887,-16.962837,-3.101243,2.174504,-6.843501,42.195029,43.180143,-16.580003
611,4143377322,-21.8759,-3.6517563,-32.022324,1.8393993,1.1694425,-2.1573367,-0.6171851,35.597954,-11.807913,-3.070586,2.193995,-6.879457,42.184743,43.773442,-16.776802
612,4143393989,-18.42984,-4.8245087,-35.81604,1.3054333,1.0485982,-1.2717626,-14.278932,40.226524,-3.488694,-3.048829,2.211472,-6.900653,41.946761,44.443884,-16.834947
613,4143410656,-14.202515,-6.241997,-40.60434,0.63772583,0.8719454,-0.094962955,-30.287542,44.32233,7.0435057,-3.0382,2.226004,-6.902236,41.441969,45.18259,-16.717555
614,4143427323,-10.796936,-7.1437683,-44.524445,0.08076668,0.7337652,0.6480866,-41.57315,46.24902,13.964108,-3.036854,2.238233,-6.891435,40.749083,45.953407,-16.48482
615,4143443990,-8.283752,-7.4799194,-47.52037,-0.34401226,0.61688006,0.94768137,-47.81932,45.46947,17.222214,-3.042588,2.248514,-6.87564,39.952094,46.711232,-16.197783
616,4143460657,-5.946701,-7.602936,-50.39177,-0.7739687,0.5179679,1.0848492,-51.99082,43.250248,18.961143,-3.055487,2.257147,-6.857559,39.08558,47.432069,-15.881764
617,4143477324,-4.2066345,-7.30632,-52.658722,-1.1434746,0.45615476,0.87482816,-52.19993,38.99104,17.693548,-3.074545,2.26475,-6.842979,38.215581,48.08192,-15.586872
618,4143493991,-1.9670715,-7.073082,-55.65184,-1.5918694,0.31893975,0.8589546,-53.26467,32.86986,17.848106,-3.101076,2.270066,-6.828663,37.327836,48.629751,-15.289404
619,4143510658,0.8426361,-6.931793,-59.456253,-2.1336408,0.103928626,1.0660214,-55.422104,24.893509,19.63175,-3.136637,2.271798,-6.810896,36.404134,49.044643,-14.962208
620,4143527325,3.3175964,-6.461426,-63.004776,-2.644114,-0.11816561,1.0699962,-54.625114,14.371829,19.570158,-3.180706,2.269829,-6.793063,35.493715,49.284173,-14.636039
621,4143543992,5.693413,-5.7610245,-66.587555,-3.1548195,-0.37213326,0.9869216,-51.858093,1.2600055,18.5986,-3.233286,2.263627,-6.776614,34.629413,49.305173,-14.326062
622,4143560659,7.4652786,-5.357582,-69.35513,-3.3941236,-0.5633826,1.0571591,-50.753914,-6.9180007,17.66369,-3.289855,2.254237,-6.758995,33.783514,49.189873,-14.031667
623,4143577326,8.464806,-5.2449646,-71.089874,-3.3177147,-0.6765741,1.2533543,-51.122665,-9.60673,16.430437,-3.34515,2.242961,-6.738106,32.93147,49.029761,-13.757826
624,4143593993,9.082748,-5.236023,-72.38576,-3.0737052,-0.77470386,1.541031,-51.864746,-10.469601,15.073591,-3.396378,2.230049,-6.712422,32.067058,48.855268,-13.506599
625,4143610660,9.132446,-5.4604874,-72.95465,-2.577262,-0.8300922,1.9738551,-53.82383,-7.4567127,13.728856,-3.439332,2.216214,-6.679524,31.169994,48.730989,-13.277785
626,4143627327,8.667145,-5.4993744,-73.012085,-1.9539418,-0.87956476,2.3030634,-53.78341,-5.192527,10.924031,-3.471898,2.201555,-6.64114,30.273604,48.644447,-13.095718
627,4143643994,7.687851,-5.3306885,-72.572586,-1.2078257,-0.9281043,2.5227203,-51.57612,-3.9868212,6.6186304,-3.492028,2.186087,-6.599095,29.414002,48.578,-12.985407
628,4143660661,5.980156,-5.270813,-71.249725,-0.19602299,-0.9329196,2.800334,-49.477417,0.24848871,1.6174138,-3.495295,2.170538,-6.552423,28.589378,48.582141,-12.95845
629,4143677328,3.5289536,-5.2280807,-69.05925,1.062501,-0.9015126,3.0823922,-46.76188,6.553566,-4.4269333,-3.477587,2.155513,-6.50105,27.810013,48.691367,-13.032232
630,4143693995,2.0966797,-5.1584244,-68.18001,1.9146204,-0.9127971,3.1477244,-45.32012,9.827735,-7.3825693,-3.445677,2.1403,-6.448588,27.054678,48.855163,-13.155275
631,4143710662,1.7960052,-5.092819,-68.73738,2.322219,-0.96739066,2.9897978,-45.56411,10.131969,-6.7982197,-3.406973,2.124177,-6.398758,26.295276,49.024029,-13.268579
632,4143727329,1.7559509,-4.9877396,-69.679474,2.5882435,-1.0318857,2.673387,-46.07132,9.272077,-4.895673,-3.363836,2.106979,-6.354202,25.527421,49.178564,-13.350174
633,4143743996,2.445198,-4.839775,-71.58197,2.5379086,-1.1256953,2.1368823,-47.42768,5.9926124,-0.50226736,-3.321538,2.088217,-6.318587,24.73696,49.278441,-13.358545
634,4143760663,2.7547226,-4.753731,-73.04617,2.5955572,-1.1918098,1.5501622,-49.085266,4.332978,4.174464,-3.278279,2.068354,-6.292751,23.918872,49.350657,-13.288971
635,4143777330,2.598343,-4.727661,-73.96687,2.788476,-1.2260832,0.91345865,-50.94143,4.5026917,8.973128,-3.231804,2.047919,-6.277527,23.069848,49.425702,-13.139419
636,4143793997,2.9275513,-4.708374,-75.52995,2.7544584,-1.2727185,0.084999084,-53.7976,3.447287,16.034906,-3.185896,2.026707,-6.27611,22.173221,49.483157,-12.872171
637,4143810664,3.5013428,-4.7185745,-77.431274,2.5828733,-1.3187896,-0.90481997,-57.550842,2.0481102,24.922354,-3.142848,2.004727,-6.29119,21.21404,49.517292,-12.456798
638,4143827331,3.9323502,-4.66938,-78.752594,2.4520016,-1.3319985,-1.5145516,-56.479782,1.1356497,29.194904,-3.101981,1.982527,-6.316433,20.27271,49.536219,-11.970216
639,4143843998,4.3064117,-4.5495605,-79.55409,2.330737,-1.3138672,-1.710917,-50.157074,0.45019072,28.533796,-3.063135,1.960629,-6.344948,19.436759,49.543722,-11.494653
640,4143860665,4.6472855,-4.418686,-80.06502,2.191886,-1.2701851,-1.7321961,-41.232903,0.21871628,25.721096,-3.026604,1.939459,-6.373818,18.749544,49.547367,-11.065968
641,4143877332,4.886551,-4.252594,-80.0715,2.069067,-1.1927546,-1.4305334,-28.125399,0.59015566,19.033152,-2.99212,1.91958,-6.39766,18.280787,49.557203,-10.748749
642,4143893999,5.489105,-4.0886536,-80.40161,1.7629595,-1.1104163,-1.162766,-14.342411,0.31794095,12.774488,-2.962737,1.901073,-6.417039,18.041747,49.562502,-10.535841
643,4143910666,6.474411,-3.933136,-81.085724,1.2631569,-1.0231584,-0.9466584,-0.0671525,-0.5895245,7.17148,-2.941684,1.88402,-6.432817,18.040628,49.552677,-10.416316
644,4143927333,7.566498,-3.7472687,-81.53638,0.69152164,-0.90925145,-0.47408724,17.851255,-1.3964547,-1.4219644,-2.930159,1.868866,-6.440718,18.338149,49.529403,-10.440015
645,4143944000,8.8754425,-3.5400162,-81.93309,0.00024986267,-0.7741722,0.18315613,38.720627,-2.365426,-12.122889,-2.930155,1.855963,-6.437665,18.983493,49.489979,-10.642063
646,4143960667,9.17363,-3.4522705,-81.47009,-0.55258656,-0.59726393,0.5954402,52.31877,-3.6775444,-18.924395,-2.939365,1.846009,-6.427741,19.855473,49.428687,-10.95747
647,4143977334,8.3209305,-3.4930649,-80.00319,-0.9339609,-0.37342334,0.76328176,58.07486,-5.2942576,-21.717773,-2.954931,1.839785,-6.41502,20.823387,49.340449,-11.319433
648,4143994001,6.981476,-3.602478,-78.03697,-1.3038273,-0.11549556,0.8455796,60.38572,-7.325417,-22.77359,-2.976661,1.83786,-6.400927,21.829816,49.218359,-11.698993
649,4144010668,4.8041306,-3.819458,-75.32318,-1.58956,0.1836549,0.7350691,56.47682,-9.823261,-20.536587,-3.003154,1.840921,-6.388676,22.771096,49.054638,-12.041269
650,4144027335,2.4367218,-4.0548325,-72.1729,-1.9155364,0.5190548,0.7659218,53.11965,-12.485072,-19.462362,-3.03508,1.849572,-6.375911,23.656424,48.846553,-12.365642
651,4144044002,-0.07430267,-4.3052444,-68.61162,-2.296523,0.8908904,0.95599014,50.63688,-15.33855,-19.754957,-3.073355,1.86442,-6.359978,24.500372,48.590911,-12.694891
652,4144060669,-3.3650513,-4.650032,-64.25487,-2.607871,1.3087721,1.0491914,43.210785,-18.59297,-17.857094,-3.11682,1.886233,-6.342491,25.220552,48.281028,-12.992509
653,4144077336,-7.308792,-5.0721893,-59.153442,-2.8767486,1.7727275,1.118228,32.19993,-22.203087,-14.698281,-3.164766,1.915778,-6.323854,25.757217,47.910977,-13.23748
654,4144094003,-10.146591,-5.243988,-55.282715,-2.9434214,2.0184639,1.2434891,26.962774,-24.880514,-12.318422,-3.213823,1.949419,-6.303129,26.206597,47.496302,-13.442787
655,4144110670,-11.80159,-5.144127,-52.76822,-2.7726288,2.0214994,1.4036437,27.61904,-26.526854,-10.468348,-3.260033,1.983111,-6.279735,26.666914,47.054188,-13.617259
656,4144127337,-13.032089,-4.916931,-50.695465,-2.455264,1.9067804,1.6113899,30.587,-27.72729,-8.793059,-3.300954,2.014891,-6.252879,27.176697,46.592067,-13.76381
657,4144144004,-13.37262,-4.472275,-49.598816,-1.9369817,1.5990098,1.8817811,38.256004,-28.12215,-7.7293367,-3.333237,2.041541,-6.221516,27.814297,46.123364,-13.892632
658,4144160671,-14.01622,-4.021988,-48.220993,-1.2773733,1.2537354,2.1037521,43.596634,-28.535887,-5.138487,-3.354527,2.062437,-6.186453,28.540908,45.647766,-13.978273
659,4144177338,-15.0295105,-3.5759811,-46.486435,-0.4754734,0.8779745,2.2770395,46.248047,-29.007986,-0.93835664,-3.362452,2.07707,-6.148502,29.311709,45.1643,-13.993912
660,4144194005,-15.416428,-2.9488602,-45.487076,0.55236435,0.32614285,2.4685159,51.73951,-28.806814,3.4698353,-3.353246,2.082506,-6.10736,30.174034,44.684186,-13.936081
661,4144210672,-15.425964,-2.1825104,-44.963806,1.8010702,-0.37253845,2.6544266,58.570847,-28.09448,8.569029,-3.323228,2.076297,-6.06312,31.150215,44.215945,-13.793264
662,4144227339,-15.934753,-1.7195358,-43.783615,2.6376638,-0.75784636,2.5831845,60.913376,-26.021935,10.817474,-3.279267,2.063666,-6.020067,32.165438,43.782246,-13.612973
663,4144244006,-16.898544,-1.577774,-41.98517,3.0176287,-0.8062918,2.2341058,58.847183,-22.39065,9.736456,-3.228973,2.050228,-5.982832,33.146224,43.409069,-13.450699
664,4144260673,-18.06401,-1.5739746,-39.941788,3.2429667,-0.71879673,1.7070404,54.09516,-17.68698,7.350627,-3.174924,2.038248,-5.954381,34.04781,43.114286,-13.328189
665,4144277340,-19.637405,-1.8256073,-37.383987,3.1414366,-0.37210035,0.9287473,45.174973,-11.616855,2.6232824,-3.122567,2.032046,-5.938902,34.800726,42.920672,-13.284468
666,4144294007,-20.845718,-2.0252228,-35.26274,3.1099615,-0.07444608,0.060650587,36.876297,-4.450359,-2.743673,-3.070734,2.030805,-5.937891,35.415331,42.846499,-13.330196
667,4144310674,-21.653809,-2.157547,-33.62886,3.1738977,0.15741217,-0.8953259,29.334066,3.8250213,-8.619956,-3.017836,2.033429,-5.952813,35.904232,42.910249,-13.473862
668,4144327341,-22.614273,-2.4778442,-31.790176,2.9854307,0.5842615,-2.0879824,18.876427,13.6396055,-16.788216,-2.968079,2.043167,-5.987613,36.218839,43.137576,-13.753666
669,4144344008,-23.556473,-2.9227676,-29.958992,2.6267262,1.142525,-3.4895895,6.4788284,24.982527,-26.927538,-2.9243,2.062209,-6.045773,36.326819,43.553951,-14.202458
670,4144360675,-23.49501,-3.3140106,-29.527153,2.3374014,1.4545481,-4.262041,-3.4349432,32.502167,-31.926506,-2.885343,2.086451,-6.116807,36.26957,44.095654,-14.734566
671,4144377342,-22.384674,-3.6680298,-30.566994,2.0925016,1.5176396,-4.34494,-10.877825,35.76285,-31.364567,-2.850468,2.111745,-6.189223,36.088273,44.691702,-15.257309
672,4144394009,-20.56247,-4.0289536,-32.582375,1.8296204,1.4693141,-4.1189356,-17.295662,37.316307,-28.425663,-2.819974,2.136234,-6.257872,35.800012,45.31364,-15.73107
673,4144410676,-17.752747,-4.3577576,-35.963943,1.5991516,1.2132456,-3.3521984,-21.557873,35.67382,-21.18648,-2.793321,2.156455,-6.313742,35.440714,45.908204,-16.084178
674,4144427343,-14.655197,-4.827423,-39.748947,1.1682196,1.0378075,-2.5745833,-27.239172,34.088367,-14.255384,-2.773851,2.173752,-6.356652,34.986728,46.476343,-16.321768
675,4144444010,-11.27713,-5.4466476,-43.925095,0.5229225,0.95622605,-1.8124926,-34.46919,32.74203,-7.8842907,-2.765136,2.189689,-6.38686,34.412242,47.022044,-16.453173
676,4144460677,-7.0161743,-6.09935,-49.331787,-0.18385506,0.742695,-0.5961149,-40.4935,28.693895,1.9051563,-2.7682,2.202067,-6.396795,33.73735,47.500276,-16.42142
677,4144477344,-1.9982986,-6.8252716,-55.796036,-1.0073662,0.45804065,0.96976596,-46.054054,22.589846,14.173519,-2.784989,2.209701,-6.380632,32.969782,47.876773,-16.185195
678,4144494011,1.3591385,-7.27742,-60.360733,-1.593195,0.26148164,1.9583807,-50.339622,18.349472,21.64295,-2.811542,2.214059,-6.347992,32.130788,48.182598,-15.824479
679,4144510678,2.9042664,-7.410553,-62.85794,-1.894094,0.14131457,2.3452523,-52.922546,15.927337,24.133812,-2.84311,2.216414,-6.308904,31.248746,48.448054,-15.422249
680,4144527345,3.7065964,-7.417572,-64.58827,-2.1198378,0.06323874,2.5051134,-54.665443,13.848936,24.488197,-2.878441,2.217468,-6.267152,30.337655,48.67887,-15.014112
681,4144544012,3.1051254,-7.1969147,-64.75166,-2.168119,0.0645448,2.197579,-55.219574,13.066665,20.809824,-2.914576,2.218544,-6.230526,29.417329,48.896648,-14.667282
682,4144560679,2.6803436,-6.921364,-65.31505,-2.21074,-0.0064656734,2.0903466,-54.289352,10.483353,18.38286,-2.951422,2.218436,-6.195687,28.512506,49.071371,-14.360901
683,4144577346,2.5112305,-6.6028137,-66.38197,-2.263754,-0.15430641,2.219119,-51.867943,5.9073477,17.459314,-2.989151,2.215864,-6.158702,27.64804,49.169827,-14.069912
684,4144594013,1.2272263,-6.063423,-66.2722,-2.150835,-0.27256,2.0457802,-47.73713,1.6566237,13.772813,-3.024998,2.211321,-6.124606,26.852421,49.197437,-13.840365
685,4144610680,-0.854393,-5.3355103,-65.38721,-1.9065142,-0.3937186,1.7116916,-41.771523,-2.9652083,8.42416,-3.056773,2.204759,-6.096078,26.156229,49.148017,-13.699962
686,4144627347,-1.8214645,-4.9263687,-64.81337,-1.693892,-0.509835,1.5705472,-39.680626,-5.685307,5.3059425,-3.085005,2.196262,-6.069902,25.494885,49.053262,-13.61153
687,4144644014,-1.6773453,-4.8573,-64.424515,-1.5006866,-0.6089548,1.5899506,-41.91903,-6.024976,4.2605267,-3.110016,2.186113,-6.043403,24.796235,48.952846,-13.540521
688,4144660681,-1.1317444,-4.9052734,-63.954132,-1.26828,-0.71774113,1.6968755,-45.64325,-5.5508866,4.1716685,-3.131154,2.174151,-6.015122,24.035514,48.860331,-13.470993
689,4144677348,0.29177856,-5.203392,-63.626266,-1.0310087,-0.8313842,1.9711252,-52.41697,-3.5452511,5.977991,-3.148337,2.160295,-5.98227,23.161898,48.801243,-13.37136
690,4144694015,1.1051254,-5.407013,-62.34665,-0.64556885,-0.9266349,2.0668483,-58.812286,-0.7574748,6.285017,-3.159096,2.144851,-5.947823,22.181693,48.788618,-13.26661
691,4144710682,1.2274628,-5.4949265,-60.04985,-0.09976864,-1.005293,1.9719684,-64.590836,2.726884,4.9580536,-3.160759,2.128096,-5.914957,21.105179,48.834066,-13.183976
692,4144727349,1.7972412,-5.752632,-57.441757,0.5107813,-1.0742503,1.9228182,-72.823326,7.9459624,4.4676685,-3.152246,2.110192,-5.88291,19.891457,48.966499,-13.109515
693,4144744016,2.4897003,-6.1067963,-54.26082,1.2218418,-1.1284944,1.8434143,-82.7995,14.780455,4.081566,-3.131882,2.091384,-5.852186,18.511465,49.21284,-13.041489
694,4144760683,3.0782852,-6.230942,-50.75772,1.7774782,-1.1678711,1.665637,-86.06989,18.341944,4.2386446,-3.102257,2.071919,-5.824425,17.076967,49.518539,-12.970845
695,4144777350,3.6703644,-6.12883,-47.004257,2.145463,-1.1915232,1.4049304,-82.21081,18.346718,5.253808,-3.066499,2.05206,-5.801009,15.706787,49.824318,-12.883282
696,4144794017,4.1462784,-5.9055557,-42.671936,2.4750452,-1.1951123,1.0374275,-74.74832,17.073378,6.408704,-3.025248,2.032141,-5.783719,14.460982,50.108874,-12.77647
697,4144810684,4.4763947,-5.479027,-37.826187,2.6930027,-1.1774288,0.54686123,-61.39894,13.216812,7.8985195,-2.980365,2.012517,-5.774605,13.437666,50.329154,-12.644828
698,4144827351,5.077919,-5.1115265,-32.462547,2.929245,-1.1402828,0.030736446,-47.840492,9.914994,10.109006,-2.931544,1.993512,-5.774093,12.640324,50.494404,-12.476345
699,4144844018,5.9482727,-4.8129196,-26.529,3.1958027,-1.0819138,-0.516178,-34.32544,7.3732057,13.004004,-2.878281,1.97548,-5.782696,12.068233,50.617291,-12.259612
700,4144860685,6.8618927,-4.3824844,-20.069557,3.3634005,-0.9993273,-1.158468,-16.012445,2.9036536,16.583744,-2.822224,1.958825,-5.802004,11.801359,50.665685,-11.983216
701,4144877352,7.909836,-3.8750534,-13.060814,3.4586926,-0.89166355,-1.8791399,5.9638977,-2.8323376,20.944902,-2.764579,1.943964,-5.833323,11.900757,50.618479,-11.634134
702,4144894019,8.501846,-3.5632172,-10.145142,3.333704,-0.7786727,-2.2715833,21.622112,-6.7514815,22.251152,-2.709017,1.930986,-5.871183,12.261126,50.505954,-11.263281
703,4144910686,8.565628,-3.450386,-11.796959,2.9526634,-0.6609756,-2.3026242,30.635218,-8.90435,20.161148,-2.659806,1.91997,-5.90956,12.771713,50.357548,-10.927262
704,4144927353,8.4487915,-3.4453354,-15.816261,2.3992262,-0.527611,-2.1529846,37.00753,-10.31709,16.571495,-2.619819,1.911176,-5.945443,13.388505,50.185596,-10.65107
705,4144944020,7.984329,-3.6196518,-23.549377,1.6212845,-0.38330996,-1.7074151,38.110382,-10.228155,10.410194,-2.592798,1.904788,-5.9739,14.023678,50.015127,-10.477567
706,4144960687,7.4541245,-3.7627106,-32.314713,0.667675,-0.21390629,-1.2218792,41.05681,-11.122851,3.8962214,-2.58167,1.901223,-5.994265,14.707958,49.829746,-10.41263
707,4144977354,6.8862457,-3.8681946,-42.00827,-0.4644556,-0.017591238,-0.7062018,46.188866,-13.113061,-2.8366747,-2.589411,1.90093,-6.006035,15.477772,49.611195,-10.459908
708,4144994021,5.9938126,-4.1040573,-55.198273,-1.8522801,0.19504273,0.07147956,47.685974,-14.3224125,-11.845377,-2.620282,1.904181,-6.004844,16.272538,49.372488,-10.657331
709,4145010688,4.83477,-4.4281235,-71.398834,-3.4940553,0.42769647,1.0628715,47.020065,-15.284255,-22.691692,-2.678516,1.911309,-5.987129,17.056206,49.11775,-11.035526
