PacketCounter,SampleTimeFine,Euler_X,Euler_Y,Euler_Z,Acc_X,Acc_Y,Acc_Z,Gyr_X,Gyr_Y,Gyr_Z,Velo_X,Velo_Y,Velo_Z,ANG_X,ANG_Y,ANG_Z
0,4133127117,239.06372,-45.5784,-114.7106,6.3814335,0.47356355,-4.8360214,-1.1404247,-11.109874,5.7954617,0.0,0.0,0.0,0.0,0.0,0.0
1,4133143784,238.90125,-45.386658,-114.82388,6.2653704,0.5153595,-5.0869374,-1.6483016,-12.669163,6.628065,0.104423,0.008589,-0.084782,-0.027472,-0.211153,0.110468
2,4133160451,238.72957,-45.184204,-114.944214,6.1413965,0.5598414,-5.360497,-2.168795,-14.301017,7.5071416,0.20678,0.01792,-0.174124,-0.063619,-0.449503,0.235587
3,4133177118,238.55116,-44.97393,-115.06995,6.011788,0.6063328,-5.6527386,-2.69095,-15.978013,8.419593,0.306976,0.028026,-0.268336,-0.108468,-0.715803,0.375914
4,4133193785,238.31593,-44.69653,-115.23427,5.831462,0.6680129,-6.044063,-3.427228,-18.247383,9.631255,0.404167,0.03916,-0.36907,-0.165588,-1.019926,0.536435
5,4133210452,238.03473,-44.364815,-115.43005,5.6099367,0.7420882,-6.5182457,-4.329858,-20.989237,11.084744,0.497666,0.051528,-0.477707,-0.237752,-1.369747,0.721181
6,4133227119,237.80942,-44.01097,-115.58154,5.4393477,0.802881,-6.816242,-5.2574177,-23.54994,11.666475,0.588322,0.064909,-0.591311,-0.325376,-1.762246,0.915622
7,4133243786,237.64276,-43.629112,-115.68608,5.322054,0.84982395,-6.9245214,-6.2272434,-25.946196,11.303122,0.677023,0.079073,-0.70672,-0.429163,-2.194683,1.104007
8,4133260453,237.4928,-43.211002,-115.775406,5.21994,0.8934579,-6.956214,-7.27876,-28.418541,10.484632,0.764022,0.093964,-0.822657,-0.550476,-2.668325,1.278751
9,4133277120,237.38588,-42.762062,-115.8297,5.156733,0.927207,-6.841777,-8.384012,-30.812246,8.904352,0.849968,0.109417,-0.936687,-0.69021,-3.181862,1.427157
10,4133293787,237.24869,-42.246033,-115.90233,5.0660996,0.96973157,-6.754138,-9.686535,-33.66461,7.2792916,0.934403,0.125579,-1.049256,-0.851652,-3.742939,1.548479
11,4133310454,237.07706,-41.659702,-115.99628,4.944154,1.022135,-6.702569,-11.19702,-37.011,5.6425295,1.016806,0.142615,-1.160965,-1.038269,-4.359789,1.642521
12,4133327121,236.92992,-41.023922,-116.06796,4.844039,1.0695721,-6.5403137,-12.825289,-40.460762,3.3644013,1.09754,0.160441,-1.26997,-1.252024,-5.034135,1.698594
13,4133343788,236.79155,-40.32908,-116.12863,4.751479,1.11608,-6.3029037,-14.607168,-44.137558,0.5861445,1.176731,0.179042,-1.375018,-1.495477,-5.769761,1.708363
14,4133360455,236.22774,-39.588108,-116.19693,4.662341,1.1456368,-6.139064,-15.200747,-47.10349,-1.3204948,1.254437,0.198136,-1.477336,-1.748823,-6.554819,1.686355
15,4133377122,235.20117,-38.802567,-116.26912,4.5827994,1.1547787,-6.0435925,-14.463507,-49.224483,-2.3090153,1.330817,0.217382,-1.578063,-1.989881,-7.375227,1.647871
16,4133393789,233.90439,-37.957764,-116.343765,4.5052414,1.15372,-5.9686146,-13.052845,-51.03172,-2.9417672,1.405904,0.236611,-1.67754,-2.207428,-8.225756,1.598842
17,4133410456,232.21333,-37.056267,-116.42436,4.4305897,1.1372238,-5.9496202,-10.580074,-52.245773,-2.8585181,1.479747,0.255565,-1.7767,-2.383763,-9.096519,1.5512
18,4133427123,230.39194,-36.09302,-116.48857,4.3749876,1.1106423,-5.860615,-7.7978354,-53.31547,-3.0294147,1.552663,0.274076,-1.874377,-2.513727,-9.98511,1.50071
19,4133443790,228.44894,-35.064934,-116.53549,4.3387713,1.0742476,-5.6951904,-4.7399187,-54.2706,-3.5045953,1.624976,0.29198,-1.969297,-2.592726,-10.88962,1.4423
20,4133460457,226.13957,-33.97549,-116.57863,4.315528,1.0203553,-5.5450115,-0.6770468,-54.632355,-3.4901648,1.696901,0.308986,-2.061714,-2.60401,-11.800159,1.384131
21,4133477124,223.512,-32.822002,-116.61273,4.3093624,0.9495915,-5.3821177,4.2531614,-54.48159,-3.1887841,1.768724,0.324813,-2.151416,-2.533124,-12.708186,1.330985
22,4133493791,223.65105,-31.803905,-116.56743,4.2526493,0.88669205,-5.2336874,7.5793343,-54.117958,-3.661478,1.839601,0.339591,-2.238644,-2.406802,-13.610152,1.26996
23,4133510458,226.83337,-30.941025,-116.43625,4.1389832,0.8324152,-5.1120124,9.171781,-53.485382,-4.912476,1.908584,0.353465,-2.323844,-2.253939,-14.501575,1.188085
24,4133527125,231.63933,-30.136967,-116.24785,4.0038176,0.7748851,-4.984185,10.124798,-52.474316,-6.5748215,1.975314,0.36638,-2.406914,-2.085192,-15.376147,1.078505
25,4133543792,238.94882,-29.448986,-115.98143,3.828349,0.7202848,-4.8601727,9.776924,-51.129337,-8.920342,2.03912,0.378385,-2.487917,-1.922243,-16.228303,0.929833
26,4133560459,246.91907,-28.76117,-115.680115,3.6506891,0.6515783,-4.7467637,9.772372,-49.12805,-11.125793,2.099965,0.389245,-2.56703,-1.75937,-17.047104,0.744403
27,4133577126,255.47636,-28.068108,-115.34421,3.4736924,0.5672393,-4.641667,10.204372,-46.429356,-13.158647,2.15786,0.398699,-2.644391,-1.589297,-17.820927,0.525092
28,4133593793,266.33765,-27.4794,-114.932755,3.261897,0.48075426,-4.550749,9.6796665,-43.208923,-15.66288,2.212225,0.406712,-2.720237,-1.427969,-18.541076,0.264044
29,4133610460,279.16077,-26.97335,-114.45285,3.023116,0.38814288,-4.4756722,8.539178,-39.37293,-18.467617,2.26261,0.413181,-2.794832,-1.285649,-19.197291,-0.04375
30,4133627127,280.99545,-26.35986,-114.00162,2.8335443,0.33260438,-4.385709,8.338917,-36.945675,-20.121334,2.309836,0.418724,-2.867927,-1.146667,-19.813052,-0.379106
31,4133643794,270.7922,-25.637512,-113.58165,2.6956568,0.32003105,-4.2801876,9.0466385,-36.129456,-20.556454,2.354764,0.424058,-2.939263,-0.99589,-20.41521,-0.721714
32,4133660461,254.44116,-24.884754,-113.14992,2.5783043,0.3273016,-4.1757584,10.145565,-35.88813,-20.340944,2.397736,0.429513,-3.008859,-0.826797,-21.013346,-1.06073
33,4133677128,228.29868,-24.054512,-112.73108,2.501439,0.36734113,-4.0652027,12.016623,-36.794384,-19.079361,2.439427,0.435635,-3.076612,-0.62652,-21.626586,-1.378719
34,4133693795,200.31084,-23.289394,-112.25537,2.4115992,0.4184106,-3.9680114,13.386281,-37.69463,-17.779613,2.47962,0.442609,-3.142746,-0.403415,-22.25483,-1.675046
35,4133710462,170.82281,-22.599205,-111.7177,2.3060331,0.47942406,-3.8867154,14.194149,-38.515186,-16.476242,2.518054,0.450599,-3.207525,-0.166846,-22.89675,-1.94965
36,4133727129,132.5972,-21.874306,-111.1732,2.228568,0.5731336,-3.8061867,15.3912,-40.340508,-14.314428,2.555197,0.460151,-3.270961,0.089674,-23.569092,-2.188224
37,4133743796,87.14899,-21.146885,-110.6062,2.1680555,0.69575334,-3.73145,16.700874,-42.94269,-11.490649,2.591331,0.471747,-3.333152,0.368022,-24.284804,-2.379735
38,4133760463,50.663383,-20.445786,-110.15163,2.095498,0.7559731,-3.6457462,17.419708,-44.144127,-9.2112,2.626256,0.484347,-3.393914,0.65835,-25.020539,-2.533255
39,4133777130,23.6545,-19.762005,-109.829636,2.013732,0.74857223,-3.546084,17.581749,-43.89176,-7.473905,2.659818,0.496823,-3.453015,0.951379,-25.752068,-2.65782
40,4133793797,-0.6669731,-19.105175,-109.56615,1.9292326,0.71490455,-3.4443789,17.32272,-43.08203,-5.825401,2.691972,0.508738,-3.510421,1.240091,-26.470102,-2.75491
41,4133810464,-18.093174,-18.480743,-109.40213,1.8356371,0.63044095,-3.3356776,16.465801,-41.15514,-4.56547,2.722566,0.519245,-3.566016,1.514521,-27.156021,-2.831001
42,4133827131,-40.09004,-17.846214,-109.27365,1.7614937,0.5548347,-3.2270355,15.655687,-39.672897,-2.748002,2.751924,0.528492,-3.6198,1.775449,-27.817236,-2.876801
43,4133843798,-67.32024,-17.202618,-109.17761,1.7080603,0.49160552,-3.1195598,14.89756,-38.72601,-0.3192128,2.780392,0.536685,-3.671793,2.023742,-28.462669,-2.882121
44,4133860465,-90.48427,-16.57568,-109.18411,1.656168,0.38973567,-3.0054216,13.71391,-37.062183,2.0009484,2.807995,0.543181,-3.721883,2.252307,-29.080372,-2.848772
45,4133877132,-112.02815,-15.9569435,-109.282486,1.6122847,0.26159957,-2.8862004,12.231395,-35.01695,4.4208665,2.834866,0.547541,-3.769986,2.456164,-29.663988,-2.775091
46,4133893799,-129.12659,-15.41774,-109.367966,1.5694532,0.19409057,-2.797308,11.714568,-32.776318,6.415145,2.861024,0.550776,-3.816608,2.651407,-30.21026,-2.668172
47,4133910466,-140.30359,-14.967842,-109.44322,1.5253239,0.18904969,-2.7411437,12.232017,-30.203415,7.848911,2.886446,0.553927,-3.862294,2.855274,-30.71365,-2.537357
48,4133927133,-148.48672,-14.5681,-109.55438,1.4880629,0.21346627,-2.7020621,13.271018,-27.434988,9.114293,2.911247,0.557485,-3.907328,3.076458,-31.1709,-2.385452
49,4133943800,-152.45488,-14.239693,-109.67784,1.4555149,0.28995574,-2.6898365,15.178743,-24.474688,10.036821,2.935506,0.562318,-3.952159,3.329437,-31.578811,-2.218172
50,4133960467,-151.37549,-13.9496,-109.89708,1.4272346,0.35478404,-2.6822634,17.087929,-20.890265,10.738395,2.959293,0.568231,-3.996863,3.614236,-31.926982,-2.039199
51,4133977134,-145.22038,-13.695995,-110.22029,1.4041319,0.40510672,-2.6783504,18.966526,-16.671406,11.235935,2.982695,0.574983,-4.041502,3.930345,-32.204839,-1.851933
52,4133993801,-133.1217,-13.514763,-110.58852,1.3846645,0.49220705,-2.697866,21.55655,-12.017951,11.303399,3.005773,0.583186,-4.086466,4.289621,-32.405138,-1.663543
53,4134010468,-114.68416,-13.4002495,-111.022675,1.3689709,0.60288936,-2.736497,24.688591,-6.8234067,10.953363,3.028589,0.593234,-4.132074,4.701098,-32.518861,-1.480987
54,4134027135,-104.30931,-13.202759,-111.34044,1.3611479,0.67079294,-2.7492104,26.532866,-4.250096,10.411218,3.051275,0.604414,-4.177894,5.143312,-32.589696,-1.307467
55,4134043802,-103.0092,-12.913673,-111.5188,1.3613081,0.69582736,-2.7344146,27.011251,-4.618413,9.644653,3.073963,0.616011,-4.223468,5.5935,-32.66667,-1.146723
56,4134060469,-103.474655,-12.601173,-111.660126,1.3676395,0.70063365,-2.7108278,26.884045,-6.354996,8.534092,3.096757,0.627688,-4.268648,6.041567,-32.772587,-1.004488
57,4134077136,-109.55533,-12.225098,-111.711624,1.3811779,0.6682538,-2.6666284,25.663458,-10.363506,7.1126513,3.119777,0.638826,-4.313092,6.469291,-32.945312,-0.885944
58,4134093803,-112.42,-11.882835,-111.76729,1.3995514,0.6508239,-2.6334877,24.617777,-14.863486,5.1694126,3.143103,0.649673,-4.356983,6.879587,-33.193037,-0.799787
59,4134110470,-111.34981,-11.580261,-111.8344,1.4226036,0.65039074,-2.6131034,23.809202,-19.760096,2.6664963,3.166813,0.660513,-4.400535,7.276407,-33.522372,-0.755345
60,4134127137,-114.02461,-11.233978,-111.81886,1.4523859,0.62641346,-2.579526,22.180944,-26.754787,-0.2825787,3.191019,0.670953,-4.443527,7.646089,-33.968285,-0.760055
61,4134143804,-118.52275,-10.86425,-111.739075,1.4884033,0.5897428,-2.539401,19.993319,-35.510334,-3.7454195,3.215826,0.680782,-4.48585,7.979311,-34.560124,-0.822479
62,4134160471,-120.152405,-10.441017,-111.48244,1.512167,0.5216589,-2.4698071,17.94062,-41.02777,-6.1132855,3.241029,0.689476,-4.527013,8.278321,-35.24392,-0.924367
63,4134177138,-119.45752,-9.9496155,-111.02176,1.5220575,0.41513643,-2.3649683,15.948957,-43.07351,-7.2290187,3.266397,0.696395,-4.566429,8.544137,-35.961812,-1.044851
64,4134193805,-117.38414,-9.41655,-110.41884,1.5264101,0.28598678,-2.2398481,13.853859,-43.82076,-7.912769,3.291837,0.701161,-4.60376,8.775035,-36.692158,-1.17673
65,4134210472,-112.93434,-8.828697,-109.63373,1.519949,0.1270745,-2.0865636,11.803141,-41.941082,-7.7108035,3.317169,0.703279,-4.638536,8.971754,-37.391176,-1.305243
66,4134227139,-110.752625,-8.180405,-108.70337,1.5138054,-0.06201753,-1.9112095,9.104198,-40.81356,-7.5512786,3.342399,0.702245,-4.670389,9.123491,-38.071402,-1.431098
67,4134243806,-111.03845,-7.4703445,-107.62492,1.5083809,-0.28128615,-1.7138499,5.7204766,-40.62771,-7.4939666,3.367539,0.697557,-4.698953,9.218832,-38.74853,-1.555997
68,4134260473,-110.71773,-6.687149,-106.33917,1.4933205,-0.53776467,-1.4836725,2.1073303,-38.55103,-6.673515,3.392428,0.688594,-4.723681,9.253954,-39.391047,-1.667222
69,4134277140,-110.845764,-5.8267365,-104.84691,1.4706717,-0.8326206,-1.2209483,-1.8968587,-35.287567,-5.274633,3.416939,0.674717,-4.74403,9.22234,-39.979173,-1.755133
70,4134293807,-110.27304,-5.0631943,-103.71265,1.4327383,-0.9858141,-1.0445076,-6.073783,-34.05965,-4.5228457,3.440818,0.658287,-4.761438,9.12111,-40.546834,-1.830514
71,4134310474,-108.62932,-4.408844,-102.978195,1.3770103,-0.9814534,-0.9637028,-10.366996,-34.81404,-4.4094567,3.463768,0.641929,-4.7775,8.948327,-41.127068,-1.904005
72,4134327141,-107.26073,-3.7758026,-102.371765,1.308033,-0.9060074,-0.9217993,-15.005701,-36.485054,-4.461926,3.485569,0.626829,-4.792863,8.698232,-41.735152,-1.97837
73,4134343808,-105.820496,-3.2107162,-102.04776,1.2227793,-0.7088233,-0.9516624,-19.927446,-39.869633,-4.979201,3.505949,0.615015,-4.808724,8.366108,-42.399646,-2.061357
74,4134360475,-104.26503,-2.606163,-101.65587,1.1223736,-0.496555,-0.980749,-25.16036,-42.350323,-5.0100193,3.524655,0.606739,-4.82507,7.946769,-43.105485,-2.144857
75,4134377142,-102.75304,-1.9535904,-101.17372,1.0063677,-0.27483502,-1.0048403,-30.733458,-43.81059,-4.493908,3.541428,0.602158,-4.841817,7.434545,-43.835661,-2.219755
76,4134393809,-101.02922,-1.3463974,-100.910706,0.87094784,0.05476728,-1.0890971,-36.584045,-46.222916,-4.1483564,3.555944,0.603071,-4.859969,6.824811,-44.606043,-2.288894
77,4134410476,-99.12961,-0.76129913,-100.79468,0.715641,0.47155946,-1.2189664,-42.72722,-49.02571,-3.759426,3.567871,0.61093,-4.880285,6.112691,-45.423138,-2.351551
78,4134427143,-99.2258,-0.04927063,-99.92224,0.6254883,0.717044,-1.2356972,-49.140564,-51.49878,-3.3851151,3.578296,0.622881,-4.90088,5.293682,-46.281451,-2.40797
79,4134443810,-101.4975,0.7924652,-98.24507,0.60788345,0.7801856,-1.1327473,-55.814125,-53.796074,-3.1080217,3.588427,0.635884,-4.919759,4.363447,-47.178052,-2.45977
80,4134460477,-104.9646,1.7092896,-96.142426,0.62192154,0.77098167,-0.97608554,-62.772232,-55.8691,-2.7465525,3.598792,0.648734,-4.936027,3.317243,-48.109204,-2.505546
81,4134477144,-110.239975,2.7400513,-93.36885,0.6914587,0.62093914,-0.7235347,-70.00612,-57.572666,-2.335565,3.610316,0.659083,-4.948086,2.150474,-49.068748,-2.544472
82,4134493811,-116.08928,3.7755356,-90.52696,0.76564693,0.5073043,-0.48461878,-77.527245,-59.832787,-2.0124507,3.623077,0.667538,-4.956163,0.858353,-50.065961,-2.578013
83,4134510478,-122.468094,4.8114395,-87.643036,0.8417177,0.43963003,-0.26477432,-85.33815,-62.655407,-1.7640523,3.637106,0.674865,-4.960576,-0.56395,-51.110218,-2.607414
84,4134527145,-130.54813,5.935997,-84.19978,0.96627617,0.27036178,0.02723813,-93.42505,-65.46414,-1.5558316,3.653211,0.679371,-4.960122,-2.121034,-52.201287,-2.633345
85,4134543812,-140.10632,7.1269836,-80.31683,1.1293621,0.03636849,0.3689016,-101.79077,-68.45635,-1.4169043,3.672034,0.679977,-4.953974,-3.817547,-53.342226,-2.65696
86,4134560479,-140.27042,8.043419,-77.32391,1.231863,-0.003498137,0.33803368,-111.52439,-66.649666,-0.59962106,3.692565,0.679919,-4.94834,-5.676287,-54.453054,-2.666954
87,4134577146,-130.12091,8.662094,-75.28206,1.2708578,0.15744914,-0.09629965,-122.73585,-59.482277,0.9666715,3.713746,0.682543,-4.949945,-7.721884,-55.444425,-2.650843
88,4134593813,-114.64151,9.128632,-73.63849,1.2873344,0.4213264,-0.7506474,-134.91795,-49.42814,2.9066334,3.735202,0.689565,-4.962456,-9.970517,-56.268227,-2.602399
89,4134610480,-90.75827,9.348,-72.74989,1.2555685,0.85623705,-1.7433263,-148.38704,-35.03184,5.4304786,3.756128,0.703836,-4.991511,-12.443634,-56.852091,-2.511891
90,4134627147,-65.06685,9.540306,-71.70447,1.2460098,1.2736611,-2.807363,-162.51704,-18.991829,8.119807,3.776895,0.725064,-5.0383,-15.152251,-57.168621,-2.376561
91,4134643814,-37.849735,9.713806,-70.45943,1.2626181,1.6658636,-3.9326801,-177.28659,-1.4244641,10.9493265,3.797939,0.752828,-5.103845,-18.107028,-57.192362,-2.194072
92,4134660481,-3.0474167,9.673447,-69.78148,1.2483253,2.1861129,-5.3589816,-193.29842,20.348524,14.314772,3.818744,0.789263,-5.193161,-21.328668,-56.85322,-1.955492
93,4134677148,38.092495,9.461273,-69.485565,1.2181139,2.7959816,-7.0356874,-210.44112,45.84585,18.134657,3.839046,0.835863,-5.310422,-24.83602,-56.089122,-1.653248
94,4134693815,71.14894,8.98333,-69.356094,1.1993799,3.0628774,-7.88188,-218.27588,63.469173,21.087646,3.859036,0.886911,-5.441787,-28.473951,-55.031302,-1.301787
95,4134710482,95.614105,8.199509,-69.478615,1.1876516,2.9630277,-7.824279,-215.8329,72.4967,23.101198,3.87883,0.936295,-5.572192,-32.071166,-53.823024,-0.916767
96,4134727149,117.6039,7.1758575,-69.842545,1.179924,2.6748898,-7.342211,-207.94498,78.15505,24.750835,3.898495,0.980876,-5.694562,-35.536916,-52.52044,-0.504253
97,4134743816,133.35234,5.871887,-70.42656,1.181716,2.0800624,-6.137441,-191.6208,77.292366,25.679733,3.91819,1.015544,-5.796853,-38.730596,-51.232234,-0.076257
98,4134760483,152.97133,4.2818375,-71.571655,1.1622324,1.4693756,-4.902117,-173.02824,77.40676,26.761,3.937561,1.040034,-5.878555,-41.6144,-49.942121,0.36976
99,4134777150,177.04744,2.398735,-73.30177,1.1204052,0.85424244,-3.6685796,-152.40826,78.90651,28.039227,3.956234,1.054271,-5.939698,-44.154538,-48.627013,0.83708
100,4134793817,197.3244,0.18083191,-75.44763,1.0756626,-0.0156506,-1.8268989,-123.96476,75.29235,28.766735,3.974162,1.05401,-5.970146,-46.220617,-47.37214,1.316526
101,4134810484,215.95242,-2.3836212,-78.100235,1.0210018,-1.0833598,0.48666942,-88.83245,68.088165,29.1207,3.991179,1.035954,-5.962035,-47.701158,-46.237337,1.801871
102,4134827151,230.15643,-4.115509,-79.80267,0.9675436,-1.7788377,2.0084796,-63.746696,61.131275,27.94244,4.007305,1.006307,-5.92856,-48.763603,-45.218482,2.267578
103,4134843818,238.58617,-4.912216,-80.410416,0.9178457,-2.080678,2.7004929,-49.461174,53.879974,25.005888,4.022602,0.971629,-5.883552,-49.587956,-44.320482,2.684343
104,4134860485,243.94081,-5.3454514,-80.6889,0.8612528,-2.22341,3.0775805,-38.67878,45.441906,20.957973,4.036956,0.934572,-5.832259,-50.232602,-43.563117,3.033643
105,4134877152,245.04796,-5.0850296,-80.229645,0.80092907,-2.056313,2.8100252,-35.82869,36.563637,15.419212,4.050305,0.9003,-5.785425,-50.829747,-42.953723,3.29063
106,4134893819,241.30936,-4.8340607,-79.852005,0.7348995,-1.9799314,2.8003998,-29.508326,23.211962,8.840457,4.062553,0.867301,-5.738752,-51.321552,-42.566857,3.437971
107,4134910486,232.69044,-4.6323853,-79.615555,0.6618929,-2.0143893,3.0963511,-19.056208,5.1220984,1.2228976,4.073585,0.833728,-5.687146,-51.639155,-42.481489,3.458353
108,4134927153,218.26077,-3.8360596,-78.75214,0.5854168,-1.8295579,2.9652753,-13.968073,-15.19615,-8.028259,4.083342,0.803235,-5.637725,-51.871956,-42.734758,3.324549
109,4134943820,197.68298,-2.5836868,-77.42792,0.50469875,-1.508448,2.597156,-11.846699,-38.73338,-18.86444,4.091754,0.778094,-5.594439,-52.069401,-43.380314,3.010142
110,4134960487,187.55418,-1.6473541,-76.74733,0.43569756,-1.3080592,2.4367816,-7.7548265,-54.808903,-26.482584,4.099016,0.756293,-5.553826,-52.198648,-44.293796,2.568766
111,4134977154,189.12752,-1.0066376,-76.70589,0.3805418,-1.2104356,2.4348125,-2.4524083,-62.195908,-30.527527,4.105358,0.736119,-5.513246,-52.239521,-45.330394,2.059974
112,4134993821,194.12372,-0.37578583,-76.88011,0.33114433,-1.1475079,2.506006,3.2764118,-66.713066,-33.272137,4.110877,0.716994,-5.471479,-52.184914,-46.442278,1.505438
113,4135010488,207.04922,0.06313324,-77.54152,0.2923317,-1.1779963,2.747055,10.413832,-65.30673,-33.397167,4.115749,0.697361,-5.425695,-52.01135,-47.530724,0.948819
114,4135027155,217.81343,0.9403839,-77.84158,0.255311,-1.0638678,2.7063003,13.575536,-63.643738,-33.886536,4.120004,0.67963,-5.38059,-51.785091,-48.591453,0.384043
115,4135043822,225.68123,2.2981644,-77.72865,0.21975994,-0.79417586,2.3661978,12.51239,-62.142826,-34.916695,4.123667,0.666394,-5.341153,-51.576551,-49.627167,-0.197902
116,4135060489,239.57864,3.6782532,-77.848724,0.19454956,-0.534214,2.02691,10.608774,-55.26146,-33.84161,4.126909,0.65749,-5.307371,-51.399738,-50.548191,-0.761929
117,4135077156,257.3796,5.2261047,-78.01314,0.17816353,-0.23062995,1.5869788,6.6045737,-44.11838,-31.266565,4.129878,0.653646,-5.280921,-51.289662,-51.283497,-1.283038
118,4135093823,258.51093,6.4600143,-76.34819,0.17312431,-0.010737032,1.305734,5.2068815,-37.627213,-29.755093,4.132763,0.653467,-5.259159,-51.202881,-51.910617,-1.778956
119,4135110490,242.11441,7.2866364,-72.73239,0.18130016,0.09688859,1.2354631,7.1201773,-35.806767,-29.181551,4.135785,0.655082,-5.238568,-51.084211,-52.507396,-2.265315
120,4135127157,216.49802,8.04055,-67.907455,0.2009716,0.19142035,1.1781436,9.1362705,-35.066406,-28.699318,4.139135,0.658272,-5.218932,-50.93194,-53.091836,-2.743637
121,4135143824,176.154,8.574394,-61.345753,0.2336626,0.23348123,1.2113501,12.59021,-37.60109,-28.89711,4.143029,0.662163,-5.198743,-50.722103,-53.718521,-3.225255
122,4135160491,135.24806,9.061462,-54.276608,0.28086472,0.25668168,1.2572126,15.493902,-36.700844,-27.559265,4.14771,0.666441,-5.177789,-50.463871,-54.330202,-3.684576
123,4135177158,94.38991,9.5252,-46.728256,0.3432045,0.26855016,1.2987728,17.535885,-31.919695,-24.550026,4.15343,0.670917,-5.156143,-50.171606,-54.862197,-4.093743
124,4135193825,41.68503,9.746162,-37.605976,0.42183495,0.21706638,1.4428403,20.848736,-28.39586,-21.433876,4.160461,0.674535,-5.132096,-49.824127,-55.335461,-4.450974
125,4135210492,-20.019718,9.756981,-27.134035,0.51772213,0.108793825,1.6724448,24.97761,-24.621115,-17.699486,4.16909,0.676348,-5.104222,-49.407834,-55.745813,-4.745965
126,4135227159,-62.005047,9.906021,-19.150867,0.58718586,0.050884545,1.7920302,26.661814,-20.766005,-14.580914,4.178876,0.677196,-5.074355,-48.96347,-56.091913,-4.98898
127,4135243826,-83.00235,10.187202,-13.873451,0.62663746,0.04385364,1.8009942,25.890665,-17.409857,-12.346517,4.18932,0.677927,-5.044338,-48.531959,-56.382077,-5.194755
128,4135260493,-94.745316,10.448524,-9.614965,0.65786743,0.03920436,1.7832186,23.910852,-13.391454,-10.030803,4.200284,0.67858,-5.014618,-48.133445,-56.605268,-5.361935
129,4135277160,-89.52466,10.7701645,-7.413434,0.6688547,0.06262198,1.6913141,19.908297,-8.900186,-8.01037,4.211432,0.679624,-4.986429,-47.80164,-56.753604,-5.495441
130,4135293827,-87.19458,10.887817,-4.7213273,0.6859665,0.038076818,1.6647192,16.25935,-5.063425,-5.9266653,4.222865,0.680259,-4.958684,-47.530651,-56.837994,-5.594219
131,4135310494,-88.63753,10.777031,-1.4048738,0.71101284,-0.04119876,1.7142798,13.093814,-1.8058817,-3.6988654,4.234715,0.679572,-4.930113,-47.312421,-56.868092,-5.655867
132,4135327161,-77.19446,10.630318,0.3580079,0.72034836,-0.11709663,1.7324557,8.545855,1.23824,-1.8385166,4.246721,0.67762,-4.901239,-47.16999,-56.847455,-5.686509
133,4135343828,-56.87299,10.383026,1.0868683,0.71942234,-0.20765814,1.7513292,3.1271238,3.8243265,-0.2688421,4.258711,0.674159,-4.87205,-47.117871,-56.783716,-5.69099
134,4135360495,-48.400394,10.197533,1.1419511,0.73241043,-0.25936368,1.7412595,-0.5889406,6.4398828,1.5229131,4.270918,0.669836,-4.843029,-47.127687,-56.676385,-5.665608
135,4135377162,-51.559643,10.106598,0.25138664,0.75835514,-0.26099214,1.6878016,-2.5634732,9.10173,3.4934254,4.283557,0.665486,-4.814899,-47.170412,-56.524689,-5.607384
136,4135393829,-59.05807,9.983086,-1.4416304,0.78918076,-0.2512348,1.6283152,-3.653654,11.368545,5.4338484,4.29671,0.661299,-4.78776,-47.231306,-56.335213,-5.51682
137,4135410496,-76.02449,9.875206,-3.9523847,0.830554,-0.21347919,1.5515621,-3.1795588,13.330102,7.4454556,4.310553,0.657741,-4.761901,-47.284299,-56.113045,-5.392729
138,4135427163,-85.83412,9.727043,-8.100445,0.8621168,-0.1660845,1.4500886,-3.0966272,14.79638,9.100444,4.324922,0.654973,-4.737733,-47.335909,-55.866439,-5.241055
139,4135443830,-87.6436,9.526161,-13.951193,0.8826933,-0.11181152,1.3265419,-3.4572039,15.675899,10.351917,4.339634,0.653109,-4.715624,-47.393529,-55.605174,-5.068523
140,4135460497,-94.00644,9.341927,-21.169685,0.9069395,-0.026474923,1.1741384,-2.6851912,16.101011,11.477879,4.35475,0.652668,-4.696055,-47.438282,-55.336824,-4.877225
141,4135477164,-101.30257,9.160873,-29.989521,0.9302387,0.08645034,0.99108034,-1.1658964,15.983953,12.364755,4.370254,0.654109,-4.679537,-47.457714,-55.070425,-4.671146
142,4135493831,-106.1882,9.014313,-36.227226,0.9392128,0.16882978,0.8643568,-0.3925848,15.314602,12.869143,4.385908,0.656923,-4.665131,-47.464257,-54.815182,-4.45666
143,4135510498,-109.73993,8.91671,-39.4944,0.93391514,0.21936023,0.80011386,-0.29865456,14.074812,12.987394,4.401473,0.660579,-4.651796,-47.469235,-54.580602,-4.240203
144,4135527165,-110.99815,8.845528,-41.977924,0.9171696,0.26413155,0.75518465,-0.41395092,12.170732,12.68732,4.416759,0.664981,-4.63921,-47.476134,-54.377756,-4.028748
145,4135543832,-109.37297,8.81485,-42.517677,0.88533115,0.28860572,0.7529696,-1.0890317,9.575472,11.918039,4.431515,0.669791,-4.626661,-47.494285,-54.218165,-3.830114
146,4135560499,-109.960266,8.822609,-43.51688,0.84944916,0.33315745,0.741553,-1.0015807,6.2509,10.797545,4.445672,0.675344,-4.614302,-47.510978,-54.113983,-3.650155
147,4135577166,-112.7283,8.870926,-45.1573,0.8093767,0.40091547,0.7171013,-0.0803709,2.1505702,9.299759,4.459162,0.682026,-4.60235,-47.512318,-54.07814,-3.495159
148,4135593833,-114.688965,8.976425,-45.22745,0.7561979,0.4598528,0.7256472,0.7353158,-2.7549171,7.306326,4.471765,0.68969,-4.590256,-47.500063,-54.124055,-3.373387
149,4135610500,-116.92,9.142082,-44.224663,0.691844,0.5191232,0.7562446,1.7445178,-8.50702,4.820973,4.483296,0.698342,-4.577652,-47.470988,-54.265839,-3.293037
150,4135627167,-118.13588,9.273331,-44.207233,0.655426,0.5558262,0.78259754,2.2796316,-12.280422,3.2107801,4.49422,0.707606,-4.564609,-47.432994,-54.470513,-3.239524
151,4135643834,-117.97864,9.366898,-45.058178,0.6495619,0.56397814,0.8085035,2.1820776,-13.818346,2.5841632,4.505046,0.717006,-4.551134,-47.396626,-54.700819,-3.196455
152,4135660501,-117.85246,9.473152,-46.10597,0.6568947,0.56080717,0.83951896,1.9862685,-14.501419,2.2849078,4.515994,0.726353,-4.537142,-47.363522,-54.942509,-3.158373
153,4135677168,-117.38638,9.569,-47.815483,0.68819904,0.538666,0.87049615,1.4831061,-13.534046,2.6912613,4.527464,0.735331,-4.522634,-47.338804,-55.168076,-3.113519
154,4135693835,-116.51439,9.718666,-48.401005,0.71804714,0.50312454,0.9288146,0.8354063,-12.595708,2.954288,4.539431,0.743716,-4.507154,-47.324881,-55.378004,-3.064281
155,4135710502,-115.39584,9.929596,-47.749958,0.74521065,0.45495588,1.0160909,0.08340597,-11.7813015,3.023097,4.551851,0.751299,-4.490219,-47.323491,-55.574359,-3.013896
156,4135727169,-113.76895,10.151871,-47.110878,0.7919159,0.3841385,1.1151483,-1.041996,-9.544602,3.65386,4.56505,0.757701,-4.471633,-47.340858,-55.733436,-2.952998
157,4135743836,-111.66203,10.401573,-46.068142,0.8531122,0.29129368,1.2325902,-2.509461,-6.2154703,4.67446,4.579269,0.762556,-4.45109,-47.382682,-55.837027,-2.87509
158,4135760503,-97.98398,10.590935,-45.854572,0.88810825,0.23664436,1.3178627,-3.2620773,-4.3111057,5.1756306,4.594071,0.7665,-4.429126,-47.43705,-55.908879,-2.788829
159,4135777170,-71.54314,10.706421,-46.705357,0.896019,0.22396585,1.3647807,-3.2468758,-3.8490262,5.175557,4.609005,0.770233,-4.40638,-47.491165,-55.973029,-2.70257
160,4135793837,-37.548878,10.801758,-47.724663,0.89298916,0.22455567,1.4023924,-2.9523935,-3.8294096,4.9996543,4.623888,0.773976,-4.383007,-47.540372,-56.036852,-2.619242
161,4135810504,7.254608,10.850845,-49.281403,0.86852264,0.25454792,1.416272,-2.1005507,-4.8811736,4.4286084,4.638363,0.778218,-4.359402,-47.575381,-56.118205,-2.545432
162,4135827171,56.520145,10.894737,-50.9411,0.8523636,0.27590024,1.4320931,-1.3726492,-5.1095185,4.1968036,4.652569,0.782816,-4.335534,-47.598258,-56.203364,-2.475485
163,4135843838,110.04367,10.937202,-52.628757,0.84608173,0.2860145,1.4521412,-0.81493187,-4.3982215,4.346941,4.66667,0.787583,-4.311332,-47.61184,-56.276668,-2.403036
164,4135860505,173.99516,10.934357,-54.88623,0.8258991,0.31774247,1.450891,0.14939594,-4.212864,4.3348093,4.680435,0.792879,-4.28715,-47.60935,-56.346882,-2.330789
165,4135877172,247.26125,10.89415,-57.621506,0.79813385,0.36304617,1.4335629,1.3748586,-4.1350083,4.3248253,4.693737,0.79893,-4.263257,-47.586436,-56.415799,-2.258709
166,4135893839,290.6623,10.912231,-59.095284,0.7819195,0.39179778,1.4320297,2.1876276,-4.023242,4.1595516,4.706769,0.80546,-4.23939,-47.549976,-56.482853,-2.189383
167,4135910506,301.25333,10.99086,-59.224712,0.77622414,0.40541503,1.445489,2.5951746,-4.0304556,3.7657413,4.719706,0.812217,-4.215299,-47.506723,-56.550027,-2.126621
168,4135927173,296.9056,11.088936,-58.779922,0.77625847,0.41294226,1.4618379,2.8189259,-3.92972,3.3360085,4.732644,0.819099,-4.190935,-47.459741,-56.615522,-2.071021
169,4135943840,266.72867,11.230728,-57.300423,0.78660774,0.40729132,1.4885608,2.690075,-3.7259288,2.811768,4.745754,0.825887,-4.166126,-47.414906,-56.677621,-2.024158
170,4135960507,235.16356,11.348648,-55.92531,0.7900076,0.41447988,1.5002694,2.745765,-3.8622093,2.1527228,4.758921,0.832795,-4.141122,-47.369143,-56.741991,-1.988279
171,4135977174,203.39653,11.438141,-54.72158,0.785903,0.43574765,1.4951843,3.007516,-4.330291,1.3720164,4.772019,0.840057,-4.116202,-47.319018,-56.814163,-1.965412
172,4135993841,149.54602,11.553123,-52.72445,0.7867174,0.45238718,1.4918563,3.0642877,-4.9253387,0.43504566,4.785131,0.847597,-4.091338,-47.267947,-56.896252,-1.958161
173,4136010508,78.39673,11.678673,-50.171417,0.7887831,0.47015798,1.4843969,3.0290751,-5.7461796,-0.6682631,4.798277,0.855433,-4.066598,-47.217462,-56.992022,-1.969299
174,4136027175,29.164337,11.76844,-48.18258,0.7929611,0.4682973,1.4850924,3.3162298,-5.92557,-1.2612723,4.811493,0.863238,-4.041846,-47.162192,-57.090782,-1.99032
175,4136043842,2.5259018,11.824074,-46.740894,0.8007097,0.44275796,1.496975,3.9184418,-5.3727207,-1.2891895,4.824838,0.870617,-4.016896,-47.096885,-57.180327,-2.011806
176,4136060509,-17.243351,11.8569565,-45.470707,0.8090782,0.40741622,1.5098605,4.717183,-4.5753536,-1.0821631,4.838323,0.877407,-3.991732,-47.018265,-57.256583,-2.029842
177,4136077176,-20.146511,11.855499,-44.649014,0.81866837,0.3558283,1.5276083,5.8176045,-3.292971,-0.45343316,4.851967,0.883337,-3.966272,-46.921305,-57.311466,-2.037399
178,4136093843,-35.09753,11.85965,-43.371838,0.8322687,0.29529706,1.5472858,6.8717933,-1.9750881,0.19825804,4.865838,0.888259,-3.940484,-46.806775,-57.344384,-2.034095
179,4136110510,-63.754353,11.870171,-41.59786,0.8497486,0.22660851,1.5680727,7.870297,-0.66355515,0.84821945,4.88,0.892036,-3.914349,-46.675603,-57.355443,-2.019958
180,4136127177,-83.285995,11.857094,-40.009495,0.870348,0.14019443,1.5948766,9.077612,1.0744205,1.8596404,4.894506,0.894373,-3.887768,-46.524309,-57.337536,-1.988964
181,4136143844,-99.94533,11.828445,-38.412376,0.89472294,0.037271947,1.6270893,10.422737,3.1443865,3.1524715,4.909418,0.894994,-3.86065,-46.350597,-57.28513,-1.936423
182,4136160511,-114.77467,11.799156,-37.1966,0.9034319,-0.01004082,1.6362062,11.184994,4.40306,3.808333,4.924475,0.894827,-3.83338,-46.16418,-57.211746,-1.872951
183,4136177178,-125.114334,11.76696,-36.48115,0.89462566,0.0037234724,1.6202862,11.3235235,4.7984667,3.7878628,4.939385,0.894889,-3.806375,-45.975455,-57.131772,-1.80982
184,4136193845,-134.71057,11.730003,-35.95019,0.87801075,0.04504797,1.5924947,11.129595,4.810235,3.4754262,4.954019,0.89564,-3.779833,-45.789962,-57.051601,-1.751896
185,4136210512,-143.01227,11.691322,-35.73964,0.8481102,0.13390313,1.5450494,10.4043,4.1327868,2.6266344,4.968154,0.897872,-3.754082,-45.616557,-56.982721,-1.708119
186,4136227179,-143.55196,11.633713,-35.803463,0.81594753,0.2259401,1.4955819,9.634949,3.536585,1.870895,4.981753,0.901638,-3.729156,-45.455975,-56.923778,-1.676937
187,4136243846,-136.27904,11.556519,-36.131252,0.7821741,0.3188259,1.4450749,8.838147,3.0589125,1.2397056,4.994789,0.906952,-3.705071,-45.308673,-56.872796,-1.656275
188,4136260513,-123.617065,11.470627,-36.877388,0.73639965,0.45237407,1.377901,7.5926037,2.048879,0.20685184,5.007062,0.914492,-3.682106,-45.18213,-56.838648,-1.652827
189,4136277180,-103.94571,11.372078,-38.045135,0.6807747,0.6178204,1.2976036,5.9920797,0.66299075,-1.098411,5.018408,0.924789,-3.660479,-45.082262,-56.827598,-1.671134
190,4136293847,-92.336105,11.303108,-37.790054,0.64988995,0.7057947,1.2503207,4.9279857,-0.22675982,-1.9051632,5.029239,0.936552,-3.63964,-45.000129,-56.831377,-1.702887
191,4136310514,-90.09349,11.268829,-35.96702,0.645648,0.71111035,1.2384801,4.4280434,-0.6223695,-2.206613,5.04,0.948404,-3.618999,-44.926328,-56.84175,-1.739664
192,4136327181,-88.656845,11.246399,-33.4616,0.65298367,0.6800492,1.2425473,4.1264606,-0.8373908,-2.2837167,5.050883,0.959738,-3.59829,-44.857554,-56.855707,-1.777726
193,4136343848,-92.04588,11.248062,-29.764536,0.68124485,0.5833094,1.2750118,4.2559605,-0.65323794,-1.9391493,5.062237,0.96946,-3.57704,-44.786621,-56.866594,-1.810045
194,4136360515,-91.87343,11.252075,-25.993584,0.7075491,0.49510908,1.3050003,4.1786213,-0.7532568,-1.7608873,5.074029,0.977712,-3.55529,-44.716977,-56.879148,-1.839393
195,4136377182,-87.22539,11.257057,-22.215275,0.7307339,0.41913024,1.3310862,3.8600945,-1.1712354,-1.775472,5.086208,0.984698,-3.533105,-44.652642,-56.898669,-1.868984
196,4136393849,-85.646835,11.284805,-17.423761,0.77038383,0.29280454,1.37965,3.8177042,-1.3829565,-1.5212842,5.099048,0.989578,-3.510111,-44.589014,-56.921718,-1.894339
197,4136410516,-85.22342,11.33123,-11.8438225,0.82185555,0.13127942,1.4445009,3.916727,-1.5355164,-1.1219344,5.112746,0.991766,-3.486036,-44.523735,-56.94731,-1.913038
198,4136427183,-83.385056,11.345406,-7.8094807,0.85261536,0.028747916,1.4850032,4.2045555,-1.6356181,-0.8722676,5.126956,0.992245,-3.461286,-44.453659,-56.97457,-1.927576
199,4136443850,-80.85152,11.325813,-5.4098654,0.862113,-0.013851255,1.5007837,4.752882,-1.6222332,-0.7447597,5.141325,0.992014,-3.436273,-44.374444,-57.001607,-1.939989
200,4136460517,-77.52994,11.29438,-3.6815398,0.8627901,-0.03137058,1.5072138,5.4521675,-1.5926518,-0.6826812,5.155705,0.991491,-3.411153,-44.283575,-57.028151,-1.951367
201,4136477184,-73.01167,11.238037,-3.2417517,0.8462715,0.00027814507,1.4939706,6.3391323,-1.5307298,-0.7529547,5.16981,0.991496,-3.386253,-44.177923,-57.053663,-1.963916
202,4136493851,-70.54607,11.192558,-2.4674897,0.83672047,0.009587228,1.4919074,7.525181,-1.2967981,-0.6623144,5.183755,0.991656,-3.361388,-44.052503,-57.075276,-1.974955
203,4136510518,-70.24158,11.16024,-1.2773623,0.8353157,-0.006806493,1.5026104,9.015268,-0.89177775,-0.40154946,5.197677,0.991543,-3.336344,-43.902249,-57.090139,-1.981647
204,4136527185,-70.235016,11.112236,-1.0150981,0.8228502,0.007265419,1.5019774,10.797208,-0.36480036,-0.17092586,5.211391,0.991664,-3.311311,-43.722296,-57.096219,-1.984496
205,4136543852,-71.28984,11.056328,-1.3453465,0.8044176,0.036699623,1.4966189,12.905538,0.318504,0.09344739,5.224798,0.992276,-3.286367,-43.507204,-57.090911,-1.982939
206,4136560519,-71.20535,11.015793,-1.0134482,0.7936239,0.052289933,1.4944062,13.980393,0.69817096,0.30707413,5.238025,0.993147,-3.26146,-43.274197,-57.079275,-1.977821
207,4136577186,-69.6723,10.989464,-0.072487354,0.78944016,0.0580298,1.4932263,13.898305,0.7326226,0.44189808,5.251182,0.994114,-3.236573,-43.042559,-57.067065,-1.970456
208,4136593853,-68.348526,10.971733,1.1000009,0.7888346,0.057608217,1.4938495,13.3334675,0.66896343,0.5838608,5.264329,0.995074,-3.211676,-42.820335,-57.055916,-1.960725
209,4136610520,-66.645584,10.968254,2.802535,0.79496,0.04478851,1.497664,11.904683,0.38136756,0.70502484,5.277578,0.99582,-3.186715,-42.621924,-57.04956,-1.948975
210,4136627187,-65.45024,10.958351,3.9453382,0.7948704,0.051322013,1.4938673,10.404718,0.12770727,0.80322886,5.290826,0.996675,-3.161817,-42.448512,-57.047432,-1.935588
211,4136643854,-64.96933,10.941505,4.4780617,0.7881336,0.078139275,1.4822582,8.881355,-0.06977847,0.8851528,5.303962,0.997977,-3.137113,-42.300489,-57.048595,-1.920835
212,4136660521,-64.29251,10.932816,5.187496,0.7837782,0.10455325,1.4691817,6.6010237,-0.4481534,0.9267785,5.317025,0.99972,-3.112627,-42.190472,-57.056064,-1.905389
213,4136677188,-63.66595,10.927963,5.833705,0.7789974,0.13759217,1.4522073,3.7204914,-0.9525293,0.92755145,5.330008,1.002013,-3.088424,-42.128464,-57.071939,-1.88993
214,4136693855,-63.119877,10.916008,6.4020424,0.77641773,0.15690187,1.4427443,1.9881272,-1.1825743,0.96308017,5.342948,1.004628,-3.064378,-42.095329,-57.091649,-1.873879
215,4136710522,-62.55174,10.897583,6.9727163,0.7772236,0.15863092,1.4423525,1.4695618,-1.1313059,1.0343953,5.355902,1.007272,-3.040339,-42.070836,-57.110504,-1.856639
216,4136727189,-62.138897,10.874931,7.3800774,0.77817345,0.15757535,1.4437819,1.4322736,-0.9523891,1.1034018,5.368872,1.009898,-3.016276,-42.046965,-57.126377,-1.838249
217,4136743856,-61.86092,10.84539,7.6376686,0.78022003,0.14767069,1.4502671,2.336336,-0.5427458,1.1879665,5.381876,1.012359,-2.992105,-42.008026,-57.135423,-1.81845
218,4136760523,-61.5555,10.819382,7.9485893,0.78416157,0.1355415,1.45674,2.967688,-0.19405562,1.2383404,5.394945,1.014618,-2.967826,-41.958565,-57.138657,-1.797811
219,4136777190,-61.23937,10.7971115,8.2986555,0.78976727,0.12238754,1.4625604,3.2611341,0.07962945,1.2489457,5.408108,1.016658,-2.94345,-41.904213,-57.13733,-1.776995
220,4136793857,-60.970814,10.771103,8.600113,0.7975111,0.09955585,1.4730583,4.2180896,0.5118928,1.2582501,5.4214,1.018317,-2.918899,-41.833912,-57.128798,-1.756024
221,4136810524,-60.7189,10.743507,8.893481,0.8075838,0.06842074,1.4871434,5.5847816,1.0416199,1.2538875,5.43486,1.019457,-2.894113,-41.740832,-57.111438,-1.735126
222,4136827191,-60.71371,10.716644,8.926878,0.81355476,0.05021429,1.4934058,6.3322477,1.4287057,1.2862632,5.448419,1.020294,-2.869223,-41.635295,-57.087626,-1.713688
223,4136843858,-60.978436,10.689896,8.672192,0.8149929,0.04553172,1.4915161,6.4879746,1.678509,1.3640553,5.462002,1.021053,-2.844364,-41.527162,-57.059651,-1.690954
224,4136860525,-61.381527,10.663628,8.278383,0.8151369,0.045025438,1.4861925,6.3719835,1.8637459,1.453964,5.475588,1.021803,-2.819594,-41.420962,-57.028589,-1.666721
225,4136877192,-61.985806,10.638229,7.6759043,0.81227684,0.05409658,1.4744794,5.732351,1.9247404,1.5710927,5.489126,1.022705,-2.795019,-41.325423,-56.99651,-1.640536
226,4136893859,-62.68079,10.610313,6.9811344,0.8102417,0.05825308,1.464293,5.430162,2.062201,1.6938064,5.50263,1.023676,-2.770614,-41.23492,-56.96214,-1.612306
227,4136910526,-63.455074,10.579819,6.206913,0.8093405,0.056487054,1.4560719,5.5014744,2.2834117,1.8195431,5.516119,1.024617,-2.746346,-41.143229,-56.924083,-1.58198
228,4136927193,-64.41783,10.54879,5.2352133,0.80620766,0.060528815,1.443347,5.306657,2.437734,1.9725815,5.529556,1.025626,-2.72229,-41.054785,-56.883454,-1.549104
229,4136943860,-65.54564,10.516457,4.090682,0.801671,0.067190856,1.4277893,5.0305853,2.5674164,2.1485798,5.542917,1.026746,-2.698494,-40.970942,-56.840664,-1.513294
230,4136960527,-66.53522,10.484169,3.0944395,0.79881,0.070200086,1.4148846,4.916383,2.6901202,2.270256,5.556231,1.027916,-2.674913,-40.889002,-56.795829,-1.475456
231,4136977194,-67.37207,10.452179,2.2610474,0.79748154,0.07033959,1.4043545,4.9166074,2.7898054,2.333877,5.569522,1.029088,-2.651507,-40.807059,-56.749332,-1.436558
232,4136993861,-68.18454,10.419281,1.4543467,0.79677296,0.06836599,1.3947133,5.045338,2.8865983,2.3735456,5.582802,1.030227,-2.628262,-40.72297,-56.701222,-1.396999
233,4137010528,-68.89137,10.385864,0.75990915,0.7974138,0.06289604,1.3872663,5.3537235,2.980324,2.3687468,5.596092,1.031275,-2.605141,-40.633741,-56.65155,-1.35752
234,4137027195,-69.6951,10.351662,-0.03734255,0.7967701,0.060447067,1.3771421,5.536245,3.0202744,2.370555,5.609372,1.032282,-2.582189,-40.54147,-56.601212,-1.318011
235,4137043862,-70.60553,10.316521,-0.94829655,0.79472446,0.06114939,1.3641536,5.5923963,3.0060418,2.381929,5.622617,1.033301,-2.559453,-40.448263,-56.551111,-1.278312
236,4137060529,-71.45076,10.280869,-1.7912526,0.79318047,0.060632378,1.3518057,5.7164063,2.9609568,2.3596985,5.635837,1.034312,-2.536923,-40.35299,-56.501762,-1.238984
237,4137077196,-72.271774,10.244637,-2.6101623,0.79156494,0.060286462,1.3390446,5.844561,2.8729444,2.314502,5.64903,1.035317,-2.514606,-40.255581,-56.45388,-1.200409
238,4137093863,-72.96886,10.21225,-3.3085158,0.7902756,0.059257865,1.329044,5.933889,2.739963,2.2790313,5.662201,1.036305,-2.492455,-40.156683,-56.408214,-1.162425
239,4137110530,-73.50734,10.184242,-3.850938,0.7895565,0.057030737,1.3225049,5.9981313,2.561447,2.2507353,5.67536,1.037256,-2.470413,-40.056714,-56.365523,-1.124913
240,4137127197,-73.95833,10.15844,-4.3091707,0.7888088,0.055000216,1.3172002,6.011908,2.327783,2.2209551,5.688507,1.038173,-2.44846,-39.956516,-56.326727,-1.087897
241,4137143864,-74.28323,10.136169,-4.645351,0.7881956,0.052839875,1.3141428,5.96545,2.0365312,2.1970122,5.701644,1.039054,-2.426558,-39.857092,-56.292785,-1.05128
242,4137160531,-74.49019,10.114967,-4.863632,0.78795815,0.04988864,1.3124162,5.9368906,1.6929021,2.1484077,5.714777,1.039885,-2.404684,-39.758144,-56.26457,-1.015473
243,4137177198,-74.576385,10.094704,-4.96136,0.7880573,0.046260327,1.3119109,5.922209,1.2933152,2.0736294,5.727911,1.040656,-2.382819,-39.659441,-56.243015,-0.980913
244,4137193865,-74.497574,10.077873,-4.8968873,0.78852654,0.041991264,1.3140283,5.87275,0.83109677,1.9935871,5.741053,1.041356,-2.360919,-39.561562,-56.229163,-0.947687
245,4137210532,-74.24809,10.064026,-4.6638365,0.789423,0.036949545,1.3186399,5.8026967,0.30486855,1.9013456,5.75421,1.041972,-2.338942,-39.46485,-56.224082,-0.915998
246,4137227199,-74.16739,10.051392,-4.593705,0.7902374,0.03284353,1.3207645,5.7529054,-0.04472223,1.8745873,5.767381,1.042519,-2.316929,-39.368968,-56.224827,-0.884755
247,4137243866,-74.27467,10.040222,-4.7051635,0.79095745,0.02978924,1.3202045,5.721827,-0.19572979,1.923153,5.780564,1.043015,-2.294926,-39.273604,-56.228089,-0.852702
248,4137260533,-74.398056,10.031174,-4.8296566,0.79188347,0.026864141,1.3193173,5.698953,-0.2638105,2.0054798,5.793762,1.043463,-2.272937,-39.178621,-56.232486,-0.819277
249,4137277200,-74.62579,10.023949,-5.0532527,0.7929001,0.024512947,1.3168287,5.6944413,-0.18085763,2.144391,5.806977,1.043872,-2.25099,-39.083714,-56.2355,-0.783537
250,4137293867,-74.73978,10.020393,-5.1632195,0.79431057,0.021782726,1.3160684,5.6679606,-0.09045231,2.300234,5.820216,1.044235,-2.229056,-38.989248,-56.237008,-0.7452
251,4137310534,-74.72052,10.020699,-5.1402874,0.7961674,0.01857543,1.3173052,5.6181316,1.065433e-05,2.470728,5.833485,1.044545,-2.207101,-38.895612,-56.237008,-0.704021
252,4137327201,-74.75009,10.023811,-5.161841,0.7982302,0.015735656,1.3178238,5.5736203,0.2231545,2.6964326,5.846789,1.044807,-2.185137,-38.802718,-56.233289,-0.65908
253,4137343868,-74.77893,10.030266,-5.1793857,0.8005867,0.013047367,1.318374,5.5257354,0.55123734,2.9701405,5.860132,1.045024,-2.163164,-38.710622,-56.224102,-0.609578
254,4137360535,-74.89136,10.033806,-5.286487,0.8025751,0.012245178,1.3184258,5.4985204,0.7499969,3.164865,5.873508,1.045228,-2.14119,-38.61898,-56.211602,-0.55683
255,4137377202,-75.11803,10.033806,-5.5140295,0.8041153,0.013617009,1.3176022,5.4974775,0.81639004,3.2747064,5.88691,1.045455,-2.11923,-38.527355,-56.197995,-0.502252
256,4137393869,-75.38495,10.033661,-5.7842956,0.80558014,0.016205996,1.3166751,5.505226,0.8455206,3.3560696,5.900336,1.045725,-2.097285,-38.435601,-56.183903,-0.446318
257,4137410536,-75.72334,10.031609,-6.1309357,0.8067837,0.02055493,1.3153948,5.529466,0.7784002,3.375413,5.913782,1.046068,-2.075362,-38.343443,-56.17093,-0.390061
258,4137427203,-76.12799,10.031158,-6.541966,0.808074,0.02587238,1.3134153,5.5638533,0.78880167,3.418157,5.92725,1.046499,-2.053472,-38.250712,-56.157783,-0.333092
259,4137443870,-76.59677,10.032585,-7.014948,0.80947876,0.032131016,1.310758,5.6075,0.88752747,3.4895277,5.940741,1.047035,-2.031626,-38.157254,-56.142991,-0.274933
260,4137460537,-77.16316,10.032631,-7.5887094,0.8106594,0.040239125,1.3073375,5.6707373,0.9388857,3.5181766,5.954252,1.047706,-2.009837,-38.062742,-56.127343,-0.216297
261,4137477204,-77.829315,10.032043,-8.264039,0.8116846,0.05007729,1.303049,5.752695,0.98114085,3.5221777,5.96778,1.048541,-1.98812,-37.966864,-56.110991,-0.157594
262,4137493871,-78.473434,10.028412,-8.912053,0.8114891,0.05822155,1.2986935,5.832067,1.0800238,3.548121,5.981305,1.049511,-1.966475,-37.869663,-56.092991,-0.098459
263,4137510538,-79.09355,10.020988,-9.530722,0.80990887,0.06450507,1.294271,5.909024,1.2265269,3.5913196,5.994803,1.050586,-1.944904,-37.771179,-56.072549,-0.038604
264,4137527205,-79.75339,10.011345,-10.186183,0.8074808,0.07051465,1.2892785,5.9938164,1.4165219,3.6415644,6.008261,1.051761,-1.923416,-37.671282,-56.04894,0.022089
265,4137543872,-80.424286,9.998566,-10.847941,0.8038721,0.075351864,1.2838845,6.081576,1.6646599,3.709042,6.021659,1.053017,-1.902018,-37.569922,-56.021196,0.083906
266,4137560539,-81.19035,9.983147,-11.60556,0.7995949,0.08129737,1.277555,6.1880198,1.8995932,3.7480617,6.034986,1.054372,-1.880725,-37.466788,-55.989536,0.146374
267,4137577206,-82.06171,9.965042,-12.469341,0.79465485,0.08851141,1.2701902,6.314875,2.1207604,3.7566485,6.04823,1.055847,-1.859555,-37.36154,-55.95419,0.208985
268,4137593873,-82.97493,9.943047,-13.371558,0.78847504,0.09509499,1.2621605,6.450715,2.3759508,3.7654648,6.061371,1.057432,-1.838519,-37.254028,-55.914591,0.271743
269,4137610540,-83.95155,9.9171295,-14.334855,0.78113174,0.101543054,1.2533048,6.599536,2.650407,3.7641807,6.07439,1.059124,-1.817631,-37.144036,-55.870418,0.334479
270,4137627207,-84.83009,9.896774,-15.145776,0.77724934,0.10596451,1.2464515,6.667382,2.774918,3.7452888,6.087344,1.06089,-1.796857,-37.032913,-55.824169,0.3969
271,4137643874,-85.58884,9.882591,-15.776725,0.7771864,0.10792126,1.241899,6.643733,2.7370405,3.7106414,6.100297,1.062689,-1.776159,-36.922184,-55.778552,0.458744
272,4137660541,-86.32083,9.869881,-16.345707,0.77878,0.10862461,1.2381754,6.57578,2.6056437,3.6559076,6.113277,1.064499,-1.755523,-36.812588,-55.735125,0.519676
273,4137677208,-86.97893,9.861198,-16.790241,0.7833166,0.10744132,1.2360861,6.4361877,2.332537,3.5791168,6.126332,1.06629,-1.734922,-36.705318,-55.696249,0.579328
274,4137693875,-87.64482,9.850517,-17.220512,0.78793335,0.104966834,1.2340316,6.2767725,2.027873,3.491665,6.139464,1.068039,-1.714355,-36.600705,-55.662451,0.637522
275,4137710542,-88.325134,9.837379,-17.644083,0.79247856,0.101221174,1.2319074,6.1000433,1.6942672,3.3924704,6.152672,1.069726,-1.693823,-36.499038,-55.634213,0.694063
276,4137727209,-88.936966,9.826942,-17.94964,0.7995167,0.09529215,1.2312281,5.8552737,1.2326347,3.273696,6.165997,1.071314,-1.673303,-36.40145,-55.613669,0.748625
277,4137743876,-89.49628,9.817871,-18.158096,0.80847836,0.08723536,1.2316781,5.551962,0.6629747,3.1370268,6.179472,1.072768,-1.652775,-36.308917,-55.602619,0.800909
278,4137760543,-89.61702,9.802452,-18.62598,0.81585217,0.08321321,1.2303653,5.316493,0.46763557,3.11509,6.19307,1.074155,-1.632269,-36.220309,-55.594825,0.852827
279,4137777210,-89.24562,9.78054,-19.371016,0.8216667,0.08363664,1.2272321,5.1531672,0.67997634,3.2202482,6.206764,1.075549,-1.611815,-36.134423,-55.583492,0.906498
280,4137793877,-88.57037,9.754929,-20.236193,0.8272486,0.085564286,1.2234638,5.0070887,1.0839257,3.39113,6.220551,1.076975,-1.591424,-36.050972,-55.565427,0.963017
281,4137810544,-87.47246,9.723579,-21.31651,0.8317385,0.090660274,1.218323,4.910978,1.8126011,3.66578,6.234413,1.078486,-1.571119,-35.969122,-55.535217,1.024113
282,4137827211,-86.148544,9.6922455,-22.374344,0.8378906,0.09503944,1.2139056,4.776573,2.5581205,3.9650168,6.248378,1.08007,-1.550887,-35.889512,-55.492582,1.090197
283,4137843878,-84.60156,9.661148,-23.396158,0.84587383,0.09844415,1.2103372,4.598239,3.30559,4.285727,6.262476,1.081711,-1.530715,-35.812875,-55.437489,1.161626
284,4137860545,-82.6205,9.625664,-24.582596,0.853611,0.10425152,1.205953,4.4476285,4.326583,4.7019906,6.276703,1.083449,-1.510616,-35.738748,-55.365379,1.239993
285,4137877212,-80.235,9.586937,-25.884241,0.8617172,0.1116481,1.2012079,4.30563,5.5602484,5.1991763,6.291065,1.08531,-1.490596,-35.666987,-55.272708,1.326646
286,4137893879,-81.547485,9.516121,-27.267738,0.86890507,0.11728014,1.1947304,4.3270674,6.74155,5.621387,6.305547,1.087265,-1.470684,-35.594869,-55.160349,1.420336
287,4137910546,-86.938034,9.409584,-28.757168,0.87481594,0.12127474,1.1861773,4.536833,7.884057,5.9648824,6.320127,1.089286,-1.450914,-35.519255,-55.028948,1.519751
288,4137927213,-94.49397,9.281563,-30.337437,0.880497,0.12469795,1.1764977,4.8497777,9.077617,6.2956724,6.334802,1.091364,-1.431306,-35.438425,-54.877654,1.624679
289,4137943880,-105.38817,9.123413,-32.00909,0.885519,0.12675308,1.1652293,5.3139205,10.262009,6.57398,6.349561,1.093477,-1.411886,-35.34986,-54.706621,1.734245
290,4137960547,-117.19765,8.950363,-33.8462,0.89011383,0.1302738,1.1527307,5.859084,11.66844,6.912278,6.364396,1.095648,-1.392674,-35.252209,-54.512147,1.84945
291,4137977214,-129.82248,8.762833,-35.853554,0.89433956,0.13540259,1.1390262,6.482672,13.312209,7.317817,6.379302,1.097905,-1.37369,-35.144164,-54.290277,1.971414
292,4137993881,-145.53497,8.545235,-37.999565,0.89767647,0.14007995,1.1234896,7.264929,15.031749,7.701245,6.394263,1.10024,-1.354965,-35.023082,-54.039748,2.099768
293,4138010548,-163.88579,8.300049,-40.304516,0.9001484,0.14493404,1.1061504,8.195141,16.881287,8.087245,6.409265,1.102656,-1.336529,-34.886496,-53.758393,2.234555
294,4138027215,-167.4865,8.040421,-42.246628,0.8959513,0.15934509,1.0697064,8.716881,18.305056,8.335002,6.424198,1.105312,-1.318701,-34.741215,-53.453309,2.373472
295,4138043882,-154.92435,7.7647476,-43.77512,0.88435936,0.18406525,1.012219,8.789174,19.232124,8.419349,6.438937,1.10838,-1.301831,-34.594729,-53.132774,2.513794
296,4138060549,-134.11465,7.4676743,-45.15349,0.8680506,0.21516383,0.9417239,8.67066,19.96427,8.423052,6.453405,1.111966,-1.286136,-34.450218,-52.800036,2.654178
297,4138077216,-100.16431,7.151535,-46.23432,0.8452568,0.25532743,0.8530871,8.20789,20.338572,8.301884,6.467493,1.116221,-1.271918,-34.31342,-52.46106,2.792543
298,4138093883,-63.73229,6.8035507,-47.31536,0.8191185,0.29868674,0.755962,7.7474346,20.638628,8.114021,6.481145,1.121199,-1.259319,-34.184296,-52.117083,2.927777
299,4138110550,-25.282146,6.4221497,-48.414806,0.78967285,0.34510106,0.65058076,7.3081765,20.88217,7.8623056,6.494306,1.126951,-1.248476,-34.062493,-51.769047,3.058815
300,4138127217,24.899788,6.0149536,-49.252964,0.7536745,0.39996547,0.52734303,6.5818295,20.78,7.4760327,6.506867,1.133617,-1.239687,-33.952796,-51.422714,3.183416
301,4138143884,84.78171,5.5783386,-49.888237,0.7116146,0.4622309,0.3878671,5.637667,20.384588,6.963843,6.518727,1.141321,-1.233223,-33.858835,-51.082971,3.29948
302,4138160551,128.81842,5.212799,-50.53434,0.6895952,0.5037818,0.2802503,4.9355936,19.768795,6.51225,6.53022,1.149717,-1.228552,-33.776575,-50.753491,3.408017
303,4138177218,155.92734,4.9286423,-51.16889,0.6896763,0.522634,0.2076819,4.4767776,18.889668,6.125662,6.541715,1.158428,-1.225091,-33.701962,-50.438663,3.510111
304,4138193885,177.009,4.6756287,-51.722736,0.69976044,0.5314639,0.14822161,4.0854836,17.735682,5.7173576,6.553378,1.167286,-1.222621,-33.633871,-50.143068,3.6054
305,4138210552,185.30309,4.4825134,-52.23866,0.72712517,0.5225033,0.115006804,3.8765876,16.304022,5.3336825,6.565497,1.175994,-1.220704,-33.569261,-49.871334,3.694295
306,4138227219,198.38586,4.292412,-52.512207,0.75567436,0.51359636,0.07725692,3.498011,14.463435,4.8430176,6.578092,1.184554,-1.219416,-33.510961,-49.630277,3.775012
307,4138243886,217.2212,4.102234,-52.52629,0.7845974,0.5056167,0.03328371,2.929751,12.193591,4.234104,6.591169,1.192981,-1.218861,-33.462132,-49.42705,3.84558
308,4138260553,227.21442,3.9662476,-52.41139,0.82840824,0.4827764,0.009968281,2.4428868,9.542987,3.60995,6.604976,1.201027,-1.218695,-33.421417,-49.268,3.905746
309,4138277220,232.03625,3.8736115,-52.115753,0.8839531,0.4486007,0.001077652,1.9603574,6.46804,2.939919,6.619709,1.208504,-1.218677,-33.388744,-49.160199,3.954745
310,4138293887,238.86797,3.7696915,-51.94934,0.91356945,0.43212628,-0.013359785,1.6260517,4.253286,2.427342,6.634935,1.215706,-1.2189,-33.361643,-49.089311,3.995201
311,4138310554,246.48936,3.6577911,-51.950397,0.91561794,0.43396047,-0.03148544,1.486011,3.0187647,2.1040745,6.650195,1.222939,-1.219425,-33.336876,-49.038998,4.030269
312,4138327221,253.8601,3.5581284,-51.930172,0.9059963,0.44249743,-0.04761231,1.4194415,2.1174107,1.852509,6.665295,1.230314,-1.220219,-33.313219,-49.003708,4.061144
313,4138343888,262.36206,3.4588623,-51.97568,0.8746872,0.4652028,-0.06598866,1.4770191,1.909693,1.7343812,6.679873,1.238067,-1.221319,-33.288602,-48.97188,4.09005
314,4138360555,263.91202,3.4077148,-51.93041,0.8475323,0.48083746,-0.067552686,1.6445465,1.6475296,1.6562321,6.693999,1.246081,-1.222445,-33.261193,-48.944421,4.117654
315,4138377222,258.1179,3.4086685,-51.776627,0.82587147,0.48824283,-0.05108285,1.9176719,1.283374,1.6121008,6.707764,1.254218,-1.223296,-33.229232,-48.923031,4.144522
316,4138393889,249.95929,3.4293137,-51.667374,0.7881241,0.50434196,-0.029186606,2.352451,1.5094477,1.7054974,6.720899,1.262624,-1.223782,-33.190024,-48.897874,4.172947
317,4138410556,237.51941,3.4814606,-51.568333,0.7396307,0.52459675,0.0026904345,2.9505172,2.1764534,1.9202796,6.733226,1.271367,-1.223737,-33.140849,-48.8616,4.204952
318,4138427223,230.33173,3.5294724,-51.440186,0.7596264,0.5206124,0.02533114,3.574442,1.927736,1.9587253,6.745886,1.280044,-1.223315,-33.081275,-48.829471,4.237597
319,4138443890,229.66422,3.5674973,-51.301464,0.85331726,0.4915756,0.035871387,4.2265477,0.7306486,1.8097677,6.760108,1.288237,-1.222717,-33.010833,-48.817294,4.26776
320,4138460557,229.50151,3.6218262,-51.149624,0.9869671,0.4477437,0.046944976,4.9799876,-0.86262155,1.6075766,6.776557,1.295699,-1.221935,-32.927833,-48.831671,4.294553
321,4138477224,232.5358,3.6823502,-50.982372,1.1825638,0.3815285,0.05303347,5.805111,-3.201585,1.2753271,6.796266,1.302058,-1.221051,-32.831081,-48.885031,4.315808
322,4138493891,234.30295,3.7636185,-50.86103,1.3887978,0.3136195,0.06262624,6.8030972,-5.310588,1.0169493,6.819413,1.307285,-1.220007,-32.717696,-48.973541,4.332757
323,4138510558,234.24849,3.8684464,-50.790737,1.6036968,0.2446607,0.07686508,7.9880943,-7.1350245,0.8467754,6.846141,1.311363,-1.218726,-32.584561,-49.092458,4.34687
324,4138527225,236.92087,3.9811707,-50.7433,1.8725452,0.1576183,0.08672845,9.289707,-9.45798,0.59866667,6.87735,1.31399,-1.217281,-32.429733,-49.250091,4.356848
325,4138543892,241.3426,4.1054,-50.735863,2.1854858,0.056565523,0.09406865,10.735801,-12.071092,0.31741285,6.913775,1.314933,-1.215713,-32.250803,-49.451276,4.362138
326,4138560559,242.99467,4.0908585,-50.946167,2.2029037,0.017912567,0.13685024,10.991842,-10.669106,1.2772548,6.95049,1.315232,-1.213432,-32.067606,-49.629094,4.383426
327,4138577226,242.10579,3.9199066,-51.394596,1.896841,0.04709533,0.21755755,9.917247,-4.9073687,3.5889158,6.982104,1.316017,-1.209806,-31.902319,-49.710883,4.443241
328,4138593893,240.20877,3.665207,-52.01463,1.4207897,0.11077212,0.31950378,8.160304,3.3396583,6.6872315,7.005784,1.317863,-1.204481,-31.766314,-49.655222,4.554695
329,4138610560,236.27817,3.282158,-52.861732,0.6788044,0.23024978,0.45313144,5.334195,15.293821,10.936963,7.017097,1.3217,-1.196929,-31.677411,-49.400325,4.736978
330,4138627227,234.05626,2.853447,-53.833565,-0.121076584,0.35676113,0.5944102,2.194338,28.286232,15.567494,7.015079,1.327646,-1.187022,-31.640839,-48.928888,4.996436
331,4138643894,233.78426,2.3817139,-54.933495,-0.97035503,0.48832837,0.74225265,-1.2265964,42.228664,20.553974,6.998906,1.335785,-1.174651,-31.661282,-48.225077,5.339002
332,4138660561,232.80188,1.784378,-56.267063,-2.0593271,0.6683724,0.91791695,-5.6579657,59.56285,26.613806,6.964584,1.346925,-1.159352,-31.755581,-47.232363,5.782565
333,4138677228,231.97632,1.075592,-57.820866,-3.3487425,0.887524,1.1167055,-10.961932,79.79676,33.607098,6.908772,1.361717,-1.14074,-31.93828,-45.902417,6.342683
334,4138693895,231.28418,0.06982422,-59.211407,-4.0336456,0.96628976,1.3672668,-15.208729,92.5952,37.34827,6.841545,1.377822,-1.117952,-32.191759,-44.359164,6.965154
335,4138710562,230.48192,-1.2670212,-60.421337,-4.0618277,0.8929497,1.6757883,-18.32436,97.29516,37.52696,6.773848,1.392704,-1.090022,-32.497165,-42.737578,7.590603
336,4138727229,230.24068,-2.8431396,-61.630108,-3.7899046,0.7464436,2.0263047,-21.149944,98.492676,36.03611,6.710683,1.405145,-1.05625,-32.849664,-41.096033,8.191205
337,4138743896,230.52394,-4.7199783,-62.738,-2.9970207,0.4773913,2.428528,-23.181765,93.3586,31.712069,6.660733,1.413102,-1.015775,-33.236027,-39.540056,8.719739
338,4138760563,230.75986,-6.818924,-64.00627,-2.2023726,0.20164147,2.8723795,-25.754826,88.57762,27.179209,6.624027,1.416463,-0.967902,-33.665274,-38.063762,9.172726
339,4138777230,231.04591,-9.142715,-65.45453,-1.4311485,-0.075422496,3.3581629,-28.951982,84.48404,22.561132,6.600175,1.415206,-0.911933,-34.147807,-36.655695,9.548745
340,4138793897,231.65657,-11.791618,-66.86896,-0.22918892,-0.45535532,3.9005775,-31.679209,75.2492,15.512271,6.596355,1.407617,-0.846923,-34.675794,-35.401542,9.807283
341,4138810564,232.51344,-14.75827,-68.30746,1.3002882,-0.91528845,4.4989266,-34.22277,62.21028,6.5449114,6.618026,1.392362,-0.771941,-35.246174,-34.364704,9.916365
342,4138827231,231.92238,-16.16476,-68.046,2.1777887,-1.1421607,4.9115314,-33.473984,45.239944,-0.73653996,6.654322,1.373326,-0.690082,-35.804074,-33.610705,9.904089
343,4138843898,229.74583,-15.841866,-65.881,2.3699656,-1.1189682,5.117259,-28.972807,23.466812,-6.321699,6.693821,1.354677,-0.604794,-36.286954,-33.219591,9.798727
344,4138860565,226.74307,-14.673515,-62.65801,2.2760124,-0.9792154,5.2303967,-22.3605,-2.2809215,-11.617419,6.731755,1.338357,-0.517621,-36.659629,-33.257606,9.605103
345,4138877232,222.43457,-12.126671,-57.866596,1.6382694,-0.6380069,5.1827745,-12.6840725,-32.38922,-15.7271385,6.759059,1.327724,-0.431241,-36.87103,-33.797426,9.342984
346,4138893899,217.9342,-9.317772,-52.44046,1.1492891,-0.30426773,5.118956,-1.4363298,-68.46843,-21.409985,6.778214,1.322653,-0.345925,-36.894969,-34.938566,8.986151
347,4138910566,213.29,-6.298111,-46.41261,0.8439369,0.012218475,5.0460534,11.332997,-110.712006,-28.833092,6.79228,1.322857,-0.261824,-36.706086,-36.783766,8.505599
348,4138927233,207.51547,-2.0305405,-38.845387,0.15456963,0.49032924,4.8308735,27.263712,-158.85391,-35.880222,6.794856,1.331029,-0.181309,-36.251691,-39.431331,7.907595
349,4138943900,200.82712,3.2735062,-29.89974,-0.7747879,1.0881492,4.5012116,46.120987,-213.44687,-43.162216,6.781943,1.349165,-0.106289,-35.483008,-42.988779,7.188225
350,4138960567,191.60936,6.420517,-18.994135,-1.2308979,1.4405185,3.9783125,57.254448,-247.31256,-47.73742,6.761428,1.373174,-0.039984,-34.528767,-47.110655,6.392601
351,4138977234,179.54465,7.2499695,-5.898795,-1.2159557,1.5357118,3.2328577,59.891968,-257.9029,-49.064983,6.741162,1.398769,0.013897,-33.530568,-51.409037,5.574851
352,4138993901,165.50542,7.1495743,9.056443,-0.9723015,1.5199032,2.3159752,58.964767,-258.55014,-48.950428,6.724957,1.424101,0.052497,-32.547822,-55.718206,4.759011
353,4139010568,148.95676,5.264351,26.12453,-0.31927395,1.2970097,1.1953762,51.5393,-241.56891,-46.473392,6.719636,1.445718,0.07242,-31.688834,-59.744354,3.984454
354,4139027235,130.52776,3.7391434,45.283447,0.17940998,1.1274738,-0.124037266,44.28009,-222.78703,-42.796604,6.722626,1.464509,0.070353,-30.950832,-63.457471,3.271177
355,4139043902,110.20841,2.6893005,66.59317,0.50062466,1.0238006,-1.6471711,37.54886,-203.07603,-37.996826,6.73097,1.481572,0.0429,-30.325018,-66.842072,2.637897
356,4139060569,87.15798,0.30239868,90.349014,1.0793972,0.77304375,-3.4114318,25.434061,-167.6713,-30.633724,6.74896,1.494456,-0.013957,-29.901117,-69.636594,2.127335
357,4139077236,61.43622,-2.9795532,116.62106,1.7973719,0.42911232,-5.4235754,9.269549,-119.63999,-20.886908,6.778916,1.501608,-0.10435,-29.746625,-71.630594,1.77922
358,4139093903,43.630043,-4.8421173,134.7744,2.1454067,0.24608669,-6.549855,-0.043145657,-84.87765,-14.067431,6.814673,1.505709,-0.213514,-29.747344,-73.045221,1.544763
359,4139110570,34.626774,-5.2984924,143.83994,2.1246567,0.22165951,-6.6881504,-2.2641144,-63.694138,-10.423582,6.850084,1.509403,-0.324983,-29.785079,-74.10679,1.371037
360,4139127237,29.426298,-5.1593704,148.92105,1.8949137,0.27097523,-6.3822536,-1.7303782,-45.572853,-7.489861,6.881666,1.513919,-0.431354,-29.813919,-74.866338,1.246206
361,4139143904,30.994875,-3.845665,147.00793,1.3249035,0.45779282,-5.311922,4.370279,-37.01893,-6.653362,6.903748,1.521549,-0.519886,-29.741081,-75.48332,1.135317
362,4139160571,32.930145,-3.1845932,144.38727,0.823616,0.57792306,-4.14864,8.097569,-18.812887,-4.3819933,6.917475,1.531181,-0.58903,-29.606122,-75.796868,1.062284
363,4139177238,34.90197,-3.2621994,141.37767,0.40319538,0.62278414,-2.926845,9.031569,10.251605,-0.4225669,6.924195,1.541561,-0.637811,-29.455596,-75.626008,1.055241
364,4139193905,42.748554,-2.680397,132.14465,-0.2545395,0.74816346,-1.0248317,13.525792,35.193226,2.2923021,6.919953,1.55403,-0.654892,-29.230166,-75.039454,1.093446
365,4139210572,55.22163,-1.8306808,117.89578,-1.0666342,0.91081154,1.4279734,19.89496,60.254295,4.532934,6.902176,1.56921,-0.631092,-28.898583,-74.035216,1.168995
366,4139227239,61.350243,-1.1385269,109.78279,-1.5394192,0.9764246,2.9302573,22.874424,78.561386,6.0853915,6.876519,1.585484,-0.582254,-28.517343,-72.72586,1.270418
367,4139243906,60.917004,-0.48246002,108.018936,-1.6635323,0.9498522,3.4266214,22.725454,87.67624,6.5553503,6.848793,1.601315,-0.525144,-28.138585,-71.264589,1.379674
368,4139260573,58.38456,0.070251465,108.009155,-1.6175432,0.8648275,3.552074,20.800888,93.77032,6.5566416,6.821834,1.615729,-0.465943,-27.791904,-69.70175,1.488951
369,4139277240,50.950916,0.4445114,112.5883,-1.2720823,0.6878951,2.912955,15.833486,94.353775,5.902926,6.800633,1.627194,-0.417394,-27.528013,-68.129187,1.587333
370,4139293907,46.626236,1.2490082,113.61716,-1.0005293,0.53742623,2.5549648,12.522598,89.650925,3.9722638,6.783958,1.636151,-0.374811,-27.319303,-66.635005,1.653537
371,4139310574,45.879765,2.4902878,110.594574,-0.8172302,0.41621754,2.5369422,11.021,79.88519,0.7485465,6.770337,1.643088,-0.332529,-27.13562,-65.303585,1.666013
372,4139327241,42.35884,3.8114624,109.95169,-0.4234991,0.23644093,2.0001063,7.9261456,62.52382,-3.6774812,6.763279,1.647029,-0.299194,-27.003518,-64.261521,1.604722
373,4139343908,37.797035,5.3469315,109.91008,0.104356766,0.022343248,1.1650755,4.2359176,37.381996,-9.488838,6.765018,1.647401,-0.279776,-26.932919,-63.638488,1.446575
374,4139360575,33.815495,6.4603043,107.65425,0.4458704,-0.13366792,0.7748919,2.27625,23.013845,-13.01975,6.772449,1.645173,-0.266861,-26.894982,-63.254924,1.229579
375,4139377242,29.807978,7.0628433,103.662476,0.60772896,-0.23277989,0.79348034,1.9074924,20.523008,-13.972537,6.782578,1.641293,-0.253636,-26.86319,-62.912874,0.996703
376,4139393909,26.189026,7.5563736,98.032394,0.6919708,-0.30234823,1.0154979,2.731047,20.712667,-14.259525,6.794111,1.636254,-0.236711,-26.817673,-62.567663,0.759044
377,4139410576,23.190418,7.7591705,90.17461,0.6194353,-0.31880853,1.6179802,5.3251133,28.465916,-12.887083,6.804435,1.630941,-0.209745,-26.728921,-62.093231,0.544259
378,4139427243,18.253086,7.9490356,83.32341,0.65768814,-0.35982504,1.9455718,7.4556313,32.111485,-12.012729,6.815396,1.624944,-0.177319,-26.60466,-61.55804,0.344047
379,4139443910,11.334297,8.159637,77.52498,0.8180771,-0.42768654,1.9724783,9.104087,30.701902,-11.814997,6.829031,1.617816,-0.144444,-26.452925,-61.046342,0.14713
380,4139460577,3.8393135,8.093788,70.698685,0.9008627,-0.4632884,2.1712875,11.891851,34.174736,-10.36546,6.844045,1.610095,-0.108256,-26.254727,-60.476763,-0.025628
381,4139477244,-4.819332,7.8097305,63.53757,0.96343136,-0.4825715,2.4000945,15.374674,39.96058,-8.127431,6.860102,1.602052,-0.068254,-25.998482,-59.810753,-0.161085
382,4139493911,-12.296284,7.6739426,56.450413,1.0191908,-0.5055609,2.5038183,17.194736,42.69932,-6.7895193,6.877089,1.593626,-0.026524,-25.711903,-59.099098,-0.274244
383,4139510578,-18.292622,7.675499,49.29256,1.0466995,-0.52692175,2.5170484,17.310299,43.120064,-6.2566123,6.894534,1.584844,0.015427,-25.423398,-58.38043,-0.378521
384,4139527245,-24.385075,7.6740646,42.379627,1.0791941,-0.5475985,2.4120116,16.541086,42.01688,-6.0303016,6.912521,1.575717,0.055627,-25.147713,-57.680149,-0.479026
385,4139543912,-29.93407,7.754524,35.80824,1.114274,-0.57100046,2.1555123,14.265306,38.26436,-6.5004025,6.931092,1.5662,0.091552,-24.909958,-57.04241,-0.587366
386,4139560579,-35.981136,7.627228,28.80233,1.0921764,-0.5690615,1.9571792,12.312635,37.4138,-6.1979637,6.949295,1.556716,0.124172,-24.704747,-56.418847,-0.690665
387,4139577246,-42.697582,7.2708435,21.419056,1.01373,-0.5408571,1.8134516,10.744985,39.651196,-5.0498123,6.966191,1.547702,0.154396,-24.525664,-55.757994,-0.774829
388,4139593913,-49.032932,6.8957977,14.148628,0.9047823,-0.5025284,1.5910652,8.105526,41.346508,-4.0992346,6.981271,1.539327,0.180914,-24.390572,-55.068886,-0.84315
389,4139610580,-55.239704,6.434189,6.860673,0.7515745,-0.44748756,1.3315952,4.764667,43.738842,-3.0174298,6.993797,1.531869,0.203107,-24.311161,-54.339905,-0.89344
390,4139627247,-62.183422,5.9187927,0.3645339,0.6725874,-0.43279216,1.1013515,2.7330935,46.238728,-1.8853525,7.005007,1.524656,0.221463,-24.265609,-53.56926,-0.924863
391,4139643914,-69.81015,5.372345,-5.190591,0.6794615,-0.46504667,0.89329505,2.022889,48.481663,-0.8133322,7.016331,1.516905,0.236351,-24.231894,-52.761232,-0.938419
392,4139660581,-77.88786,4.7276764,-10.252108,0.7049246,-0.51216435,0.70445853,1.9235985,51.681026,0.4785421,7.02808,1.508369,0.248092,-24.199834,-51.899882,-0.930443
393,4139677248,-86.616455,3.9968948,-14.559759,0.7813196,-0.5903243,0.55104995,2.950496,55.645332,1.948556,7.041102,1.49853,0.257276,-24.150659,-50.97246,-0.897967
394,4139693915,-95.27469,3.206459,-18.38887,0.845973,-0.67013144,0.3548261,3.5363567,59.84838,3.394174,7.055202,1.487361,0.26319,-24.09172,-49.974987,-0.841397
395,4139710582,-103.83473,2.3481903,-21.738087,0.89253426,-0.7490834,0.11582029,3.6148477,64.450676,4.8442636,7.070078,1.474876,0.26512,-24.031473,-48.900809,-0.760659
396,4139727249,-112.818985,1.4184036,-24.216936,0.9798975,-0.8560953,-0.112648726,4.4084826,69.582115,6.364614,7.08641,1.460608,0.263243,-23.957998,-47.741107,-0.654582
397,4139743916,-122.07205,0.4199829,-25.84977,1.0943995,-0.98520756,-0.34629405,5.5889907,75.191055,7.9196825,7.10465,1.444188,0.257471,-23.864848,-46.487923,-0.522587
398,4139760583,-124.88583,-0.6261139,-28.098923,1.0369854,-0.9985603,-0.47385824,4.3543415,80.05917,9.74232,7.121933,1.427545,0.249573,-23.792276,-45.153603,-0.360215
399,4139777250,-120.62657,-1.7174911,-31.019129,0.7956171,-0.88656723,-0.47788155,0.56904554,84.075455,11.856021,7.135193,1.412769,0.241608,-23.782792,-43.752345,-0.162615
400,4139793917,-112.32063,-2.8626175,-33.89958,0.4548273,-0.71046233,-0.42078793,-4.672249,87.79874,14.12606,7.142773,1.400928,0.234595,-23.860663,-42.289033,0.072819
401,4139810584,-98.027695,-4.0550156,-37.10997,-0.040055275,-0.43210462,-0.2685331,-12.13587,90.87882,16.6157,7.142105,1.393726,0.230119,-24.062927,-40.774386,0.349747
402,4139827251,-81.72049,-5.312065,-39.653683,-0.56014156,-0.13850209,-0.06908679,-19.886715,94.1477,19.221725,7.132769,1.391418,0.228968,-24.394372,-39.205258,0.670109
403,4139843918,-63.52177,-6.6341248,-41.44196,-1.1001692,0.16639301,0.17530859,-27.86159,97.64302,21.932848,7.114433,1.394191,0.23189,-24.858732,-37.577874,1.035656
404,4139860585,-39.66898,-8.006378,-43.272545,-1.773098,0.5599278,0.52038634,-37.71032,100.63443,24.854927,7.084881,1.403523,0.240563,-25.487237,-35.900634,1.449905
405,4139877252,-10.870884,-9.432091,-44.914158,-2.5538874,1.025138,0.9587037,-49.05867,103.28566,27.96635,7.042316,1.420609,0.256541,-26.304882,-34.179206,1.916011
406,4139893919,15.522545,-11.323631,-46.356625,-3.2026587,1.1776626,1.2722244,-56.47117,109.04122,31.195202,6.988938,1.440237,0.277745,-27.246068,-32.361852,2.435931
407,4139910586,39.401142,-13.721188,-47.68685,-3.7119083,0.98979557,1.449804,-59.635155,118.14574,34.550953,6.927073,1.456734,0.301908,-28.239987,-30.392756,3.01178
408,4139927253,63.897575,-16.43369,-48.74132,-4.1800785,0.6319674,1.5922728,-60.88434,129.08046,38.055332,6.857405,1.467267,0.328446,-29.254726,-28.241415,3.646036
409,4139943920,87.17546,-19.580318,-49.539265,-4.544527,-0.0027650595,1.6421005,-58.737473,142.8031,41.694786,6.781663,1.467221,0.355814,-30.233684,-25.861363,4.340949
410,4139960587,114.66191,-22.920467,-50.26554,-4.976324,-0.6714765,1.743354,-56.80298,157.12758,45.539005,6.698724,1.45603,0.38487,-31.1804,-23.24257,5.099932
411,4139977254,146.74258,-26.445553,-50.908226,-5.484646,-1.3635839,1.9058447,-55.24827,171.9599,49.593967,6.607313,1.433304,0.416634,-32.101204,-20.376572,5.926498
412,4139993921,179.20636,-30.384575,-51.396168,-5.9305305,-2.2958095,2.0087175,-50.96714,189.24634,53.816475,6.508471,1.395041,0.450113,-32.950656,-17.222466,6.823439
413,4140010588,213.27887,-34.694157,-51.767994,-6.350052,-3.4211462,2.082927,-44.6802,208.56395,58.224426,6.402637,1.338022,0.484828,-33.695326,-13.7464,7.793846
414,4140027255,239.26189,-37.871315,-52.508324,-6.310009,-4.03699,2.2010574,-38.448677,210.55403,58.583008,6.29747,1.270739,0.521512,-34.336137,-10.237166,8.770229
415,4140043922,255.69174,-39.80051,-53.668552,-5.7477913,-4.104565,2.3547573,-32.031418,193.52481,54.45466,6.201673,1.20233,0.560758,-34.869994,-7.011752,9.677807
416,4140060589,267.97946,-41.165295,-55.054043,-4.8892174,-3.9271288,2.5302582,-24.881775,166.29814,47.834225,6.120186,1.136878,0.602929,-35.28469,-4.240116,10.475044
417,4140077256,273.18106,-41.546207,-56.81189,-3.6018639,-3.3143702,2.74318,-17.417734,123.363045,37.48946,6.060155,1.081638,0.648649,-35.574986,-2.184065,11.099868
418,4140093923,275.84888,-41.876633,-58.64495,-2.0962744,-2.7333574,2.9205337,-7.560075,76.37972,25.83682,6.025217,1.036082,0.697325,-35.700987,-0.91107,11.530482
419,4140110590,276.2241,-42.199993,-60.554237,-0.3791046,-2.2069778,3.0594656,4.831376,25.80408,12.962172,6.018899,0.999299,0.748316,-35.620464,-0.481002,11.746518
420,4140127257,269.3085,-41.676136,-62.82865,1.7790136,-1.3352789,3.2084074,18.430027,-39.174637,-3.4705973,6.048549,0.977044,0.801789,-35.313297,-1.133913,11.688675
421,4140143924,255.86781,-40.486095,-65.42186,4.344883,-0.21251348,3.3509438,33.743763,-116.38926,-23.03128,6.120964,0.973502,0.857638,-34.750901,-3.073734,11.30482
422,4140160591,244.81157,-38.61559,-65.351425,5.6649375,0.51736677,3.3058696,43.706703,-175.67857,-37.249447,6.21538,0.982125,0.912736,-34.022456,-6.00171,10.683996
423,4140177258,236.1014,-35.932537,-62.365086,5.6141253,0.84555113,3.0586352,47.51522,-215.71597,-45.659744,6.308949,0.996218,0.963713,-33.230536,-9.596976,9.923
424,4140193925,225.78934,-32.540142,-57.84477,4.958426,1.0174388,2.6814892,48.890923,-249.56065,-52.04273,6.391589,1.013175,1.008404,-32.415687,-13.75632,9.055621
425,4140210592,215.98355,-28.378036,-50.949436,3.2396216,0.8681482,2.1219442,45.798264,-269.23322,-54.124374,6.445583,1.027644,1.04377,-31.652383,-18.24354,8.153548
426,4140227259,199.92761,-23.202961,-43.489887,1.4836578,0.8803935,1.4950078,42.037636,-295.37015,-57.508106,6.470311,1.042317,1.068687,-30.951756,-23.166376,7.19508
427,4140243926,177.01828,-16.97834,-35.54918,-0.25591278,1.0783106,0.8021958,37.847076,-329.14975,-62.51368,6.466046,1.060289,1.082057,-30.320971,-28.652205,6.153185
428,4140260593,152.25577,-9.738831,-25.468948,-2.8968754,1.0810993,-0.062663436,29.501858,-353.41458,-64.37319,6.417765,1.078307,1.081013,-29.829273,-34.542448,5.080298
429,4140277260,124.01088,-1.3960648,-13.595531,-6.2362156,0.991259,-1.0797614,17.727627,-372.49692,-64.24671,6.313828,1.094828,1.063017,-29.533813,-40.75073,4.009519
430,4140293927,101.735535,3.7977982,-1.5190215,-8.105703,1.0216824,-2.1629448,10.740151,-381.33408,-64.10601,6.178733,1.111856,1.026968,-29.35481,-47.106298,2.941085
431,4140310594,86.849434,5.447365,10.861128,-8.42157,1.1469477,-3.321786,8.764238,-377.11328,-63.491837,6.038374,1.130972,0.971605,-29.208739,-53.391519,1.882888
432,4140327261,73.666626,5.642891,24.11056,-8.084631,1.3354574,-4.58859,8.308685,-364.9515,-62.19556,5.90363,1.15323,0.895128,-29.070261,-59.474044,0.846295
433,4140343928,64.990105,3.1843262,37.882515,-6.5217953,1.6339415,-5.9470453,11.482189,-342.5493,-60.540703,5.794933,1.180462,0.796011,-28.878891,-65.183199,-0.162717
434,4140360595,56.41635,0.5560913,53.59007,-5.241664,1.819534,-7.482274,12.461426,-308.16782,-56.08466,5.707572,1.210788,0.671306,-28.671201,-70.319329,-1.097461
435,4140377262,47.5598,-2.1019287,71.34433,-4.321703,1.8859062,-9.203245,10.879886,-261.6237,-48.68082,5.635544,1.24222,0.517919,-28.48987,-74.679724,-1.908808
436,4140393929,43.14142,-7.099495,90.18767,-2.5142107,1.981319,-11.057894,11.415443,-201.30086,-39.724613,5.59364,1.275242,0.333621,-28.299613,-78.034738,-2.570885
437,4140410596,42.31996,-13.95229,110.46561,-0.13209629,2.0570066,-13.069123,12.802752,-126.3344,-28.605211,5.591438,1.309525,0.115802,-28.086234,-80.140311,-3.047639
438,4140427263,39.69378,-17.568943,124.77426,1.1844759,2.0914512,-14.051616,14.17502,-69.124,-19.972734,5.611179,1.344383,-0.118392,-27.849984,-81.292378,-3.380518
439,4140443930,35.534676,-17.791168,132.28487,1.4349289,2.095956,-13.882225,16.017746,-32.049225,-14.342454,5.635094,1.379316,-0.349762,-27.583022,-81.826532,-3.619559
440,4140460597,31.999043,-16.744675,136.73828,1.1898232,2.044613,-13.135448,17.881699,1.2808051,-9.012997,5.654924,1.413393,-0.568686,-27.284994,-81.805185,-3.769776
441,4140477264,27.908737,-13.106377,135.98425,0.032714844,1.9329182,-11.4684725,19.695988,22.14013,-5.2775373,5.655469,1.445608,-0.759827,-26.956728,-81.436183,-3.857735
442,4140493931,27.76194,-10.473602,134.07996,-0.75461483,1.8101673,-9.553618,23.14995,50.314754,-0.6933664,5.642892,1.475777,-0.919054,-26.570895,-80.597604,-3.869291
443,4140510598,31.967594,-9.051529,131.22873,-1.1175938,1.6721127,-7.420192,28.273254,87.356606,4.9880776,5.624265,1.503646,-1.042724,-26.099674,-79.141661,-3.786156
444,4140527265,37.433548,-5.919121,123.45297,-2.0501347,1.4890519,-4.4207497,34.22313,115.92556,9.433663,5.590096,1.528464,-1.116403,-25.529289,-77.209568,-3.628928
445,4140543932,45.283363,-1.8417892,111.499344,-3.282732,1.2691376,-0.6783346,41.400734,140.27512,13.171269,5.535384,1.549616,-1.127709,-24.839277,-74.871649,-3.409407
446,4140560599,47.25441,0.8786011,102.28136,-3.8940687,1.0793555,1.7033789,44.767937,158.80165,15.752234,5.470483,1.567605,-1.099319,-24.093145,-72.224955,-3.14687
447,4140577266,42.287743,2.3791504,95.82919,-3.9121199,0.92271614,2.6180925,43.799706,168.96944,16.787884,5.405281,1.582984,-1.055684,-23.36315,-69.408798,-2.867072
448,4140593933,35.16861,3.234932,89.24223,-3.58959,0.77224064,2.9942038,41.195488,174.23296,16.808647,5.345454,1.595855,-1.005781,-22.676559,-66.504915,-2.586928
449,4140610600,23.517689,2.9018936,84.214325,-2.6973963,0.646049,2.2704124,35.537777,173.2471,15.545775,5.300497,1.606622,-0.967941,-22.084263,-63.617463,-2.327832
450,4140627267,11.521229,3.4696045,75.54434,-2.0308895,0.49406412,1.8547399,29.555387,162.41582,12.652481,5.266649,1.614856,-0.937029,-21.591673,-60.910533,-2.116957
451,4140643934,-0.45217514,5.0105896,62.850025,-1.613513,0.31403047,1.8277317,23.45442,141.45493,8.070823,5.239757,1.62009,-0.906567,-21.200766,-58.552951,-1.982443
452,4140660601,-16.597996,6.0343094,50.092045,-0.8530512,0.14678866,1.001804,14.624175,110.52276,1.6583259,5.225539,1.622536,-0.88987,-20.95703,-56.710905,-1.954804
453,4140677268,-36.07207,6.990265,36.07782,0.0853405,-0.017968804,-0.32988322,3.6143463,68.40208,-6.74244,5.226961,1.622237,-0.895368,-20.896791,-55.57087,-2.067178
454,4140693935,-49.500805,7.6235275,24.54751,0.69310474,-0.17406723,-0.97830665,-3.8372555,42.75291,-11.780901,5.238513,1.619336,-0.911673,-20.960745,-54.858321,-2.263526
455,4140710602,-56.59873,7.7491226,16.300253,0.98887634,-0.31538805,-0.9835707,-7.5499525,35.75953,-13.038764,5.254994,1.61408,-0.928066,-21.086578,-54.262329,-2.480839
456,4140727269,-61.30485,7.8030243,8.712885,1.1008234,-0.45125672,-0.7188736,-9.906919,33.07494,-13.227211,5.273341,1.606559,-0.940047,-21.251693,-53.71108,-2.701293
457,4140743936,-61.19147,7.673706,2.9663076,0.9023981,-0.5778842,0.10178518,-9.414317,42.177315,-10.891895,5.288381,1.596928,-0.938351,-21.408598,-53.008125,-2.882825
458,4140760603,-62.808483,7.1209793,-2.174478,0.84798527,-0.687413,0.4733671,-10.096523,46.53204,-9.270796,5.302514,1.585471,-0.930462,-21.576873,-52.232591,-3.037338
459,4140777270,-66.53813,6.1703873,-6.8627386,0.94902134,-0.7792101,0.34892273,-12.176514,44.775024,-8.609617,5.318331,1.572484,-0.924647,-21.779815,-51.486341,-3.180832
460,4140793937,-67.05081,4.8337097,-9.393813,0.8703232,-0.8527937,0.46439517,-12.370956,51.55447,-6.0392556,5.332836,1.558271,-0.916907,-21.985998,-50.6271,-3.281486
461,4140810604,-65.74309,3.054184,-9.972037,0.7056532,-0.9053732,0.5997659,-11.530127,63.30228,-2.2466383,5.344597,1.543181,-0.906911,-22.178167,-49.572062,-3.31893
462,4140827271,-68.56349,1.7278442,-12.298033,0.64913464,-0.91729546,0.6475538,-11.595375,68.70039,0.30819702,5.355416,1.527893,-0.896118,-22.371423,-48.427055,-3.313793
463,4140843938,-75.442215,0.9190216,-16.397741,0.6806536,-0.8847811,0.6756575,-12.339972,68.59832,1.7744155,5.36676,1.513147,-0.884857,-22.577089,-47.28375,-3.284219
464,4140860605,-84.51424,0.15058136,-20.56376,0.77145386,-0.81364846,0.5780169,-13.406651,66.019775,2.8755617,5.379618,1.499586,-0.875223,-22.800533,-46.18342,-3.236293
465,4140877272,-97.28204,-0.3409195,-25.683434,0.9659147,-0.6966952,0.3421452,-15.21344,58.419014,3.0489664,5.395717,1.487974,-0.869521,-23.05409,-45.20977,-3.185477
466,4140893939,-108.93785,-1.0743332,-29.09158,1.0594311,-0.54317904,0.2139206,-15.771431,56.062077,4.464226,5.413374,1.478921,-0.865956,-23.316947,-44.275402,-3.111073
467,4140910606,-119.31697,-2.0991516,-30.541807,1.0472584,-0.35140464,0.18487859,-15.003588,59.441677,7.2337365,5.430828,1.473064,-0.862875,-23.567007,-43.284707,-2.990511
468,4140927273,-132.10452,-2.9581833,-32.056656,1.0678244,-0.10894433,0.12365532,-14.223625,61.440205,9.831366,5.448625,1.471248,-0.860814,-23.804067,-42.260704,-2.826655
469,4140943940,-146.30533,-3.7673721,-32.996387,1.0772791,0.18418045,0.080353856,-12.9837,64.37098,12.747332,5.46658,1.474318,-0.859475,-24.020462,-41.187854,-2.614199
470,4140960607,-145.33627,-5.0718765,-34.416676,0.7809324,0.2983416,0.10341179,-14.322067,72.030426,16.674824,5.479596,1.47929,-0.857751,-24.259163,-39.987347,-2.336285
471,4140977274,-127.949814,-6.8679047,-36.617783,0.16208649,0.21345773,0.18912268,-18.661297,84.153145,21.541508,5.482297,1.482848,-0.854599,-24.570185,-38.584795,-1.97726
472,4140993941,-101.24881,-8.977867,-38.614834,-0.6729765,0.038894385,0.35194552,-24.240763,100.69498,27.38903,5.471081,1.483496,-0.848733,-24.974198,-36.906545,-1.520776
473,4141010608,-60.5516,-11.539696,-40.74464,-1.8075848,-0.29000995,0.60715723,-31.952597,122.67218,34.397583,5.440955,1.478663,-0.838614,-25.506741,-34.862009,-0.947483
474,4141027275,-16.366344,-14.129829,-42.817223,-3.0370464,-0.63535774,0.88859457,-40.365097,146.24529,41.814537,5.390338,1.468074,-0.823804,-26.179493,-32.424588,-0.250574
475,4141043942,30.95883,-16.73333,-44.742455,-4.3587484,-0.99005425,1.2020484,-49.36489,171.57408,49.67357,5.317692,1.451573,-0.80377,-27.002241,-29.56502,0.577319
476,4141060609,90.90901,-19.679752,-46.910954,-5.9515743,-1.4806737,1.5971997,-60.47007,201.55614,58.524204,5.218499,1.426895,-0.77715,-28.010075,-26.205751,1.552722
477,4141077276,161.52731,-22.88195,-49.273697,-7.7788143,-2.08046,2.0645933,-73.411316,235.54962,68.23923,5.088852,1.392221,-0.74274,-29.233597,-22.279924,2.690042
478,4141093943,210.29366,-25.948761,-50.755974,-8.722063,-2.4877052,2.381444,-79.080795,251.07689,73.26987,4.943484,1.350759,-0.703049,-30.55161,-18.095309,3.911206
479,4141110610,235.39142,-28.882065,-51.324715,-8.695368,-2.6913009,2.5336404,-76.80839,246.279,73.12825,4.798561,1.305904,-0.660822,-31.83175,-13.990659,5.13001
480,4141127277,251.05608,-31.808762,-51.46433,-8.204243,-2.818207,2.622591,-70.73604,231.3671,70.34626,4.661824,1.258934,-0.617112,-33.010684,-10.134541,6.302448
481,4141143944,248.4973,-34.629154,-50.901855,-6.936035,-2.789225,2.5877068,-58.3386,199.9922,63.342655,4.546223,1.212447,-0.573984,-33.982994,-6.801338,7.358159
482,4141160611,249.29254,-37.65907,-50.341206,-5.5892944,-2.8147395,2.5773082,-45.28691,166.07195,55.49202,4.453068,1.165535,-0.531029,-34.737776,-4.033472,8.283026
483,4141177278,254.56218,-40.909866,-49.833633,-4.195565,-2.9063685,2.5999255,-31.856432,130.19899,46.928234,4.383142,1.117096,-0.487697,-35.268717,-1.863489,9.065163
484,4141193945,245.85793,-44.138428,-48.80074,-2.12679,-2.8912303,2.528756,-12.9739685,79.71579,34.5355,4.347695,1.068909,-0.445551,-35.48495,-0.534893,9.640755
485,4141210612,227.57306,-47.4103,-47.39727,0.48196125,-2.8135743,2.3944643,10.249713,17.27264,18.944075,4.355728,1.022016,-0.405643,-35.314121,-0.247016,9.95649
486,4141227279,218.60757,-48.750412,-47.381245,2.083871,-2.6707184,2.3127797,26.441662,-32.442776,7.0053983,4.390459,0.977504,-0.367097,-34.873427,-0.787729,10.073247
487,4141243946,218.28496,-47.925125,-48.861862,2.6175566,-2.439624,2.277898,35.209297,-68.90393,-1.0843996,4.434085,0.936844,-0.329132,-34.286605,-1.936128,10.055174
488,4141260613,220.39944,-45.900276,-51.122223,2.7342882,-2.1498938,2.2544801,41.262726,-102.29459,-8.221547,4.479656,0.901012,-0.291557,-33.598893,-3.641038,9.918148
489,4141277280,229.43442,-42.090576,-54.65147,2.0256357,-1.7927182,2.269478,41.618973,-126.310104,-12.639861,4.513417,0.871133,-0.253732,-32.905243,-5.746206,9.707484
490,4141293947,229.36868,-37.558895,-58.299255,1.5652008,-1.3230519,2.2216468,44.285583,-158.93967,-19.22916,4.539504,0.849082,-0.216705,-32.16715,-8.3952,9.386998
491,4141310614,219.33694,-32.34122,-62.0299,1.4105635,-0.7384852,2.1057487,49.689743,-201.2739,-28.289494,4.563013,0.836774,-0.181609,-31.338988,-11.749765,8.915506
492,4141327281,210.94139,-25.36539,-66.858536,0.67421913,-0.04987827,1.9937886,51.27565,-239.04785,-35.89166,4.57425,0.835943,-0.148379,-30.484394,-15.733896,8.317312
493,4141343948,200.59125,-16.813038,-72.56883,-0.41973782,0.7560768,1.8630074,50.72294,-276.17532,-43.093845,4.567254,0.848544,-0.117329,-29.639012,-20.336818,7.599081
494,4141360615,187.68861,-10.849159,-71.150055,-1.1175117,1.304548,1.320199,49.723343,-305.67618,-49.492798,4.548629,0.870286,-0.095326,-28.81029,-25.431421,6.774201
495,4141377282,173.34137,-7.706726,-61.937607,-1.4602127,1.5616051,0.33188307,47.588142,-325.1094,-54.561264,4.524292,0.896313,-0.089795,-28.017154,-30.849911,5.864847
496,4141393949,155.20226,-5.502281,-48.56497,-1.6585112,1.7165434,-0.9349724,44.600998,-340.4011,-59.19862,4.49665,0.924922,-0.105378,-27.273804,-36.523263,4.878203
497,4141410616,133.32848,-5.3524475,-28.76824,-1.5356112,1.6648792,-2.59371,40.95051,-348.98956,-63.13218,4.471056,0.95267,-0.148606,-26.591296,-42.339756,3.826
498,4141427283,110.828636,-4.516823,-7.446253,-1.7647123,1.6243716,-4.402351,33.89468,-351.2386,-65.58294,4.441644,0.979743,-0.221979,-26.026385,-48.193732,2.732951
499,4141443950,87.44731,-2.8321533,15.198448,-2.375309,1.6094254,-6.355298,23.306795,-347.27597,-66.54343,4.402056,1.006567,-0.327901,-25.637938,-53.981665,1.623894
500,4141460617,61.67426,-2.6314774,43.65076,-2.8884335,1.4193716,-8.6776905,10.594613,-334.38702,-66.09463,4.353915,1.030223,-0.472529,-25.461361,-59.554782,0.522317
501,4141477284,34.08368,-3.343872,76.98566,-3.452468,1.0980967,-11.326795,-4.930334,-312.34933,-64.00939,4.296374,1.048525,-0.661309,-25.543533,-64.760604,-0.544506
502,4141493951,14.928764,-3.6403732,100.18971,-3.7824516,0.98974633,-12.892841,-13.75086,-288.09204,-61.127197,4.233333,1.065021,-0.87619,-25.772714,-69.562138,-1.563293
503,4141510618,5.1566353,-3.7060318,112.43971,-3.8005724,1.0991014,-13.269298,-14.890621,-261.44525,-57.427296,4.16999,1.083339,-1.097345,-26.020891,-73.919559,-2.520415
504,4141527285,0.3698578,-3.808113,120.29019,-3.7474556,1.2898623,-13.096926,-13.408947,-228.55966,-52.2683,4.107532,1.104837,-1.315627,-26.244373,-77.728887,-3.391553
505,4141543952,3.5608253,-3.680336,119.688934,-3.5303202,1.6493587,-11.983182,-6.62961,-190.87726,-45.79755,4.048693,1.132326,-1.515347,-26.354867,-80.910175,-4.154846
506,4141560619,8.318855,-4.7202606,120.60654,-3.194049,1.9235665,-10.808699,0.20034075,-143.21783,-37.45414,3.995459,1.164385,-1.695492,-26.351528,-83.297139,-4.779082
507,4141577286,14.499798,-7.003395,123.56038,-2.7543201,2.0981011,-9.615223,6.691738,-84.78209,-27.083363,3.949554,1.199353,-1.855746,-26.239999,-84.710174,-5.230471
508,4141593953,28.071323,-9.645027,120.03664,-2.103609,2.3730187,-7.613652,17.820414,-19.063124,-15.021477,3.914494,1.238903,-1.98264,-25.942992,-85.027893,-5.480829
509,4141610620,47.903423,-12.9772415,112.06673,-1.2481251,2.6934114,-4.975741,32.526653,55.42334,-1.0641724,3.893692,1.283793,-2.065569,-25.400881,-84.104171,-5.498565
510,4141627287,58.0247,-14.5743065,107.780426,-0.7465439,2.7962139,-3.2263732,40.94226,108.25522,8.623911,3.88125,1.330397,-2.119342,-24.71851,-82.299917,-5.354833
511,4141643954,57.815422,-14.131069,106.80682,-0.6304474,2.6785336,-2.4008574,42.826073,136.20374,13.437477,3.870743,1.375039,-2.159356,-24.004742,-80.029855,-5.130875
512,4141660621,54.263214,-13.04982,106.56348,-0.6336174,2.426125,-1.8792924,42.2082,154.83945,16.472538,3.860183,1.415474,-2.190678,-23.301272,-77.449198,-4.856333
513,4141677288,43.19816,-10.635155,108.94878,-0.9037914,1.9697884,-2.053998,36.54682,155.45125,15.981308,3.84512,1.448304,-2.224911,-22.692158,-74.858344,-4.589978
514,4141693955,35.72563,-8.098587,106.910126,-1.0873709,1.5115052,-1.817896,32.897766,155.15547,15.543045,3.826997,1.473496,-2.255209,-22.143862,-72.272419,-4.330927
515,4141710622,32.543655,-5.5478516,100.06227,-1.1589336,1.0565403,-1.1083823,31.657915,154.96834,15.370665,3.807681,1.491105,-2.273682,-21.61623,-69.689613,-4.074749
516,4141727289,24.572536,-1.7636642,93.43416,-1.4207172,0.44308823,-0.80976737,27.15212,138.54074,12.120091,3.784002,1.49849,-2.287178,-21.163695,-67.380601,-3.872747
517,4141743956,14.201649,3.0099182,85.431076,-1.7968578,-0.28898278,-0.6846186,20.886482,109.17385,6.492971,3.754054,1.493674,-2.298588,-20.815587,-65.561037,-3.764531
518,4141760623,6.187111,6.0520325,77.6866,-1.9102564,-0.7766088,-0.40937746,16.523323,93.07835,3.4161158,3.722216,1.480731,-2.305411,-20.540198,-64.009731,-3.707596
519,4141777290,-0.13565826,7.2807617,70.853424,-1.7625074,-1.0048633,-0.060700893,13.723629,90.29189,2.867814,3.692841,1.463983,-2.306423,-20.311471,-62.504866,-3.659799
520,4141793957,-5.4098473,7.840637,62.98399,-1.4810629,-1.1197222,0.3684219,11.770147,90.221855,2.915514,3.668157,1.445321,-2.300283,-20.115302,-61.001168,-3.611207
521,4141810624,-8.63554,7.0276566,54.635338,-0.9705944,-1.0239389,0.9367483,11.493126,99.30951,4.7633195,3.65198,1.428255,-2.284671,-19.92375,-59.34601,-3.531818
522,4141827291,-14.891521,6.7437057,46.046677,-0.52572155,-0.9731896,1.2283894,9.3045025,97.668655,4.608377,3.643218,1.412035,-2.264198,-19.768675,-57.718199,-3.455012
523,4141843958,-24.341358,7.1005554,37.043602,-0.15825176,-0.9786227,1.2324903,5.0915136,83.954025,2.2024596,3.64058,1.395725,-2.243656,-19.683816,-56.318965,-3.418304
524,4141860625,-33.685764,6.55204,27.997929,0.36001015,-0.8275665,1.1970904,1.3137708,73.32427,0.42047793,3.64658,1.381932,-2.223704,-19.66192,-55.096894,-3.411296
525,4141877292,-44.058247,5.50428,18.941238,0.9674921,-0.57179236,1.0274776,-2.8089714,61.285946,-1.5954283,3.662705,1.372402,-2.206579,-19.708736,-54.075462,-3.437886
526,4141893959,-53.772335,4.808777,10.751904,1.3467331,-0.44285068,0.91717315,-5.8206215,53.156418,-2.7984452,3.685151,1.365021,-2.191293,-19.805746,-53.189522,-3.484527
527,4141910626,-62.38219,4.355873,3.6347084,1.4934597,-0.43491086,0.90121347,-7.330989,51.113937,-2.7744174,3.710042,1.357772,-2.176273,-19.927929,-52.337623,-3.530767
528,4141927293,-71.53577,4.01445,-2.76528,1.515687,-0.47099617,0.8139588,-8.585975,49.426994,-2.6334467,3.735303,1.349922,-2.162707,-20.071029,-51.51384,-3.574658
529,4141943960,-80.72713,3.9662018,-8.119755,1.3301392,-0.60724366,0.7083138,-9.118396,50.034058,-1.9991745,3.757472,1.339801,-2.150902,-20.223002,-50.679939,-3.607978
530,4141960627,-90.1364,3.3175964,-12.865178,1.1806393,-0.65055335,0.52883446,-9.138628,53.46627,-0.7911352,3.777149,1.328958,-2.142088,-20.375312,-49.788834,-3.621164
531,4141977294,-99.93565,2.038437,-16.949451,1.0749187,-0.59118736,0.25509834,-8.733693,59.37503,0.92100954,3.795064,1.319105,-2.137836,-20.520874,-48.79925,-3.605814
532,4141993961,-109.612,0.71460724,-19.805832,0.81843376,-0.57150805,-0.043371916,-7.37463,69.3245,3.4502783,3.808705,1.30958,-2.138559,-20.643784,-47.643842,-3.548309
533,4142010628,-119.23802,-0.8532944,-21.453697,0.46019077,-0.5489874,-0.38419878,-5.0941925,83.51513,6.829063,3.816375,1.30043,-2.144962,-20.728687,-46.251923,-3.434491
534,4142027295,-122.609116,-2.276146,-24.04442,0.13532639,-0.5142062,-0.5449115,-5.7442455,93.42296,9.973459,3.81863,1.29186,-2.154044,-20.824424,-44.694874,-3.268267
535,4142043962,-118.99199,-3.4645157,-27.648989,-0.16855717,-0.48145762,-0.4940833,-9.595454,98.707985,12.875044,3.815821,1.283836,-2.162279,-20.984348,-43.049741,-3.053683
536,4142060629,-111.32965,-4.7510223,-31.19464,-0.48462772,-0.42482534,-0.34984553,-14.826792,103.73738,16.108297,3.807744,1.276756,-2.16811,-21.231461,-41.320785,-2.785211
537,4142077296,-97.76831,-6.0188446,-35.216305,-0.7831745,-0.34519294,-0.044789553,-22.488039,106.382965,19.424753,3.794691,1.271003,-2.168856,-21.606262,-39.547736,-2.461465
538,4142093963,-81.77933,-7.3510666,-38.210808,-1.1977568,-0.28321216,0.30248106,-30.215864,112.080475,23.552666,3.774728,1.266283,-2.163815,-22.10986,-37.679728,-2.068921
539,4142110630,-63.455196,-8.778839,-40.030617,-1.7350578,-0.23695287,0.6864849,-37.86695,121.38601,28.58618,3.74581,1.262334,-2.152374,-22.740976,-35.656628,-1.592485
540,4142127297,-39.33598,-10.160164,-41.850845,-2.3057575,-0.18745443,1.2287999,-47.537743,129.88217,33.980698,3.707381,1.25921,-2.131894,-23.533272,-33.491925,-1.02614
541,4142143964,-10.007534,-11.516136,-43.31093,-2.9406013,-0.14311743,1.9086192,-58.747093,138.85953,39.926872,3.658371,1.256825,-2.100084,-24.51239,-31.1776,-0.360692
542,4142160631,16.549286,-13.568733,-44.589813,-3.508092,-0.27463433,2.360561,-65.747314,147.02173,44.49612,3.599903,1.252248,-2.060741,-25.608179,-28.727238,0.38091
543,4142177298,40.145954,-16.36589,-45.823376,-3.9874592,-0.59895444,2.5690274,-68.25435,153.75685,47.450115,3.533445,1.242265,-2.017924,-26.745751,-26.164624,1.171745
544,4142193965,64.313225,-19.580093,-46.65431,-4.46393,-1.0428505,2.6971219,-68.673676,160.62596,49.848778,3.459046,1.224884,-1.972972,-27.890312,-23.487525,2.002558
545,4142210632,87.03955,-23.408615,-47.15697,-4.8989277,-1.6567583,2.649204,-65.45517,167.1362,51.13262,3.377397,1.197271,-1.928819,-28.981231,-20.701922,2.854768
546,4142227299,114.06003,-27.4066,-47.472134,-5.347927,-2.3375893,2.673853,-62.477577,173.08437,52.32045,3.288265,1.158311,-1.884255,-30.022524,-17.817183,3.726775
547,4142243966,145.80026,-31.551018,-47.562653,-5.81761,-3.0837202,2.7871792,-59.918297,178.57855,53.484623,3.191305,1.106916,-1.837802,-31.021162,-14.840874,4.618185
548,4142260633,177.7467,-36.237713,-47.42274,-6.246149,-3.9937234,2.7839398,-54.481712,183.25658,53.615353,3.087203,1.040354,-1.791403,-31.929191,-11.786598,5.511774
549,4142277300,211.195,-41.378487,-47.073547,-6.6447906,-5.050198,2.717583,-46.947334,187.06313,52.91025,2.976456,0.956184,-1.74611,-32.711647,-8.668879,6.393612
550,4142293967,236.6605,-44.68944,-47.64765,-6.6031246,-5.5553665,2.7033937,-38.910004,177.27473,49.889763,2.866404,0.863595,-1.701053,-33.360147,-5.7143,7.225108
551,4142310634,252.65834,-45.995266,-49.270363,-6.0682716,-5.455078,2.7268436,-30.06143,152.45346,44.23412,2.765266,0.772677,-1.655606,-33.861171,-3.173409,7.962343
552,4142327301,264.54474,-46.314167,-51.428673,-5.2374477,-5.0691743,2.7691808,-20.115416,118.45256,36.73194,2.677975,0.688191,-1.609453,-34.196428,-1.1992,8.574542
553,4142343968,269.4211,-45.005733,-54.46018,-3.9860907,-4.203001,2.8550115,-9.35026,71.47994,26.875755,2.61154,0.618141,-1.561869,-34.352266,-0.007868,9.022471
554,4142360635,271.64505,-43.491974,-57.700832,-2.5317307,-3.2893782,2.8650246,4.094116,18.69856,15.213055,2.569344,0.563318,-1.514119,-34.284031,0.303775,9.276022
555,4142377302,271.44736,-41.831783,-61.13656,-0.8786497,-2.3491385,2.7950397,20.34498,-39.739952,1.717452,2.5547,0.524166,-1.467535,-33.944948,-0.358558,9.304646
556,4142393969,263.961,-38.740562,-65.41403,1.1990318,-0.99283814,2.7235317,38.313416,-110.95397,-14.394563,2.574684,0.507619,-1.422143,-33.306391,-2.207791,9.064737
557,4142410636,249.90666,-34.48943,-70.4209,3.6667862,0.69517314,2.6238313,58.469307,-193.75325,-33.088333,2.635797,0.519205,-1.378412,-32.331903,-5.437012,8.513265
558,4142427303,235.18585,-30.783405,-70.59218,4.956075,1.747482,2.305922,70.7904,-255.08199,-46.92695,2.718398,0.54833,-1.33998,-31.152063,-9.688378,7.731149
559,4142443970,219.46132,-27.594704,-65.471924,4.9489703,2.1247756,1.7568731,74.213234,-292.85028,-55.346325,2.800881,0.583743,-1.310699,-29.915176,-14.569216,6.80871
560,4142460637,200.1561,-24.266136,-57.621227,4.3701506,2.2338407,1.0453286,73.82886,-322.1225,-61.89791,2.873717,0.620974,-1.293277,-28.684695,-19.937924,5.777078
561,4142477304,178.50247,-21.205349,-45.476204,2.785018,1.8186603,0.11640847,66.762794,-333.9227,-64.53614,2.920134,0.651285,-1.291337,-27.571982,-25.503302,4.701476
562,4142493971,149.49344,-17.044842,-32.439827,1.1702242,1.5485747,-0.90255654,58.58397,-349.60013,-67.859,2.939638,0.677095,-1.30638,-26.595583,-31.329971,3.570493
563,4142510638,112.577484,-11.690598,-18.668442,-0.4235506,1.4588563,-2.011084,49.606514,-370.366,-72.14419,2.932579,0.701409,-1.339898,-25.768808,-37.502738,2.36809
564,4142527305,71.075096,-6.14904,-1.0628281,-2.8685846,0.99452674,-3.3240385,34.466263,-377.7322,-73.303604,2.884769,0.717984,-1.395299,-25.19437,-43.798275,1.146363
565,4142543972,23.664536,-0.10501099,19.72346,-5.971571,0.29470903,-4.819745,14.221413,-376.06723,-72.27155,2.785243,0.722896,-1.475628,-24.957346,-50.066062,-0.058163
566,4142560639,-7.817974,3.6672363,36.554802,-7.7358093,0.029811472,-6.0844564,2.5538895,-368.28207,-70.788315,2.656313,0.723393,-1.577036,-24.914781,-56.204097,-1.237968
567,4142577306,-20.971798,4.783684,49.18686,-8.088078,0.19400713,-7.0954437,-0.015946388,-352.03336,-68.43095,2.521512,0.726626,-1.695293,-24.915047,-62.07132,-2.378484
568,4142593973,-27.147068,4.7766495,60.615574,-7.854233,0.56123626,-8.037423,0.6289873,-328.57144,-64.92922,2.390608,0.73598,-1.82925,-24.904564,-67.547511,-3.460638
569,4142610640,-20.073475,2.8205032,68.9767,-6.508087,1.2995138,-8.799296,8.069612,-297.70667,-60.545647,2.28214,0.757639,-1.975905,-24.77007,-72.509289,-4.469732
570,4142627307,-11.791744,0.27648163,79.28949,-5.4467716,1.8730317,-9.657165,12.849033,-252.59415,-53.130165,2.19136,0.788856,-2.136858,-24.555919,-76.719191,-5.355235
571,4142643974,-3.0410194,-2.7737198,91.83713,-4.742469,2.2587316,-10.626892,14.40855,-192.6643,-42.51587,2.112319,0.826502,-2.313973,-24.315776,-79.930263,-6.063833
572,4142660641,17.810505,-7.7642365,102.52307,-3.2444983,2.8657835,-11.474453,20.522331,-120.63796,-29.890026,2.058244,0.874265,-2.505214,-23.973737,-81.940896,-6.562
573,4142677308,48.446716,-14.451946,112.41052,-1.2436056,3.580461,-12.257205,29.181774,-34.54,-14.688126,2.037517,0.933939,-2.709501,-23.487374,-82.516563,-6.806802
574,4142693975,64.66372,-17.920753,119.54295,-0.10601044,3.9191213,-12.484398,33.90725,27.878,-3.7650952,2.03575,0.999258,-2.917574,-22.922253,-82.05193,-6.869554
575,4142710642,65.88066,-17.924835,123.188354,0.1815548,3.8809278,-12.073263,35.042995,63.11908,2.1698017,2.038776,1.06394,-3.118795,-22.338203,-80.999945,-6.833391
576,4142727309,62.26483,-16.67083,124.95111,0.074240685,3.615413,-11.288687,34.31465,90.80464,6.8286796,2.040013,1.124197,-3.30694,-21.766292,-79.486534,-6.71958
577,4142743976,47.630043,-12.854355,124.07852,-0.7704563,2.9964845,-9.975591,30.1847,100.45257,8.290663,2.027172,1.174138,-3.4732,-21.263214,-77.812325,-6.581402
578,4142760643,39.308784,-9.744484,120.59851,-1.2557259,2.409529,-8.350531,28.422226,113.80329,10.341429,2.006243,1.214297,-3.612376,-20.78951,-75.915603,-6.409045
579,4142777310,38.384544,-7.5419617,114.50137,-1.3356276,1.8642404,-6.417906,29.244432,132.46382,13.284599,1.983983,1.245368,-3.719341,-20.302103,-73.707873,-6.187635
580,4142793977,31.02196,-3.4955215,105.00433,-1.8469276,1.0575643,-3.9214163,28.508503,136.42308,13.549337,1.953201,1.262994,-3.784698,-19.826961,-71.434155,-5.961813
581,4142810644,20.996162,1.70578,91.99452,-2.557396,0.06622693,-0.89085376,27.460735,130.1589,11.915672,1.910578,1.264098,-3.799546,-19.369282,-69.26484,-5.763218
582,4142827311,13.266708,4.980049,81.6521,-2.8435001,-0.580668,1.1164036,25.89353,129.42744,11.389153,1.863186,1.25442,-3.780939,-18.937723,-67.107716,-5.573399
583,4142843978,6.662956,6.380226,74.3286,-2.7414064,-0.8695315,1.9948133,23.343279,132.86049,11.735524,1.817496,1.239928,-3.747692,-18.548668,-64.893375,-5.377807
584,4142860645,1.430893,6.909958,66.89502,-2.3866787,-1.0009273,2.473494,20.786913,135.68968,11.994713,1.777718,1.223246,-3.706467,-18.202219,-62.63188,-5.177895
585,4142877312,-1.5058327,5.805832,60.959545,-1.6281672,-0.8356812,2.1287189,18.059631,141.27318,12.813937,1.750582,1.209318,-3.670988,-17.901225,-60.277327,-4.964329
586,4142893979,-8.498646,5.569565,52.582,-1.0458288,-0.7654332,1.9463339,14.215727,135.05852,11.486976,1.733152,1.196561,-3.638549,-17.664296,-58.026352,-4.772879
587,4142910646,-19.659313,6.3074417,41.411774,-0.65287876,-0.8067999,1.9859829,9.316801,116.061485,7.8241005,1.722271,1.183114,-3.605449,-17.509016,-56.091994,-4.642477
588,4142927313,-31.15031,6.1306076,30.750473,-0.03170204,-0.6436722,1.3864204,3.667509,93.987495,3.6495552,1.721743,1.172386,-3.582342,-17.447891,-54.525536,-4.581651
589,4142943980,-44.380955,5.5724487,19.705795,0.6972904,-0.3565344,0.35028434,-2.9387321,65.34327,-1.6870571,1.733365,1.166444,-3.576504,-17.49687,-53.436482,-4.609769
590,4142960647,-55.813488,5.199623,10.14061,1.1664019,-0.22474673,-0.18307722,-7.380477,47.39534,-4.84977,1.752805,1.162698,-3.579555,-17.619878,-52.64656,-4.690599
591,4142977314,-64.81532,4.8492355,2.6485004,1.3857431,-0.23498848,-0.24044251,-9.365889,42.608032,-5.362748,1.775901,1.158782,-3.583562,-17.775976,-51.936426,-4.779978
592,4142993981,-74.12897,4.619301,-4.260536,1.4460516,-0.30717245,-0.13960552,-10.535188,40.106903,-5.3060927,1.800002,1.153662,-3.585889,-17.951562,-51.267978,-4.868413
593,4143010648,-82.747574,4.610634,-9.919397,1.2536707,-0.5075865,0.34448016,-10.023957,44.86474,-3.7159204,1.820897,1.145202,-3.580148,-18.118628,-50.520232,-4.930345
594,4143027315,-91.77641,4.001335,-14.610332,1.1344166,-0.5880507,0.4347775,-9.546092,48.909893,-2.1423965,1.839804,1.135401,-3.572902,-18.27773,-49.705067,-4.966052
595,4143043982,-101.49579,2.784317,-18.372906,1.094348,-0.53772974,0.0892086,-9.232042,51.318485,-0.7574153,1.858043,1.126439,-3.571415,-18.431597,-48.849759,-4.978676
596,4143060649,-110.50804,1.4420395,-20.412903,0.8890219,-0.53446686,-0.1220783,-7.4709444,60.419857,2.059394,1.87286,1.117531,-3.57345,-18.556113,-47.842761,-4.944353
597,4143077316,-119.09317,-0.20601654,-20.719688,0.58389664,-0.52376425,-0.37218463,-4.612775,74.53525,5.985933,1.882592,1.108802,-3.579653,-18.632993,-46.600507,-4.844587
598,4143093983,-121.93349,-1.6503601,-22.653025,0.28775215,-0.5083194,-0.46746242,-5.103632,84.3927,9.417247,1.887388,1.10033,-3.587444,-18.718054,-45.193962,-4.687633
599,4143110650,-118.26184,-2.8063889,-26.331528,-0.019224167,-0.5067563,-0.32857835,-9.154536,90.376205,12.45142,1.887068,1.091884,-3.59292,-18.87063,-43.687692,-4.480109
600,4143127317,-110.73912,-4.0515976,-30.0686,-0.34644127,-0.4786245,-0.17121792,-14.884609,95.90235,15.66676,1.881294,1.083907,-3.595774,-19.118707,-42.089319,-4.218996
601,4143143984,-97.721695,-5.2418365,-34.701004,-0.672616,-0.4286324,0.0740664,-23.48488,98.86162,18.713345,1.870084,1.076763,-3.59454,-19.510122,-40.441625,-3.907107
602,4143160651,-81.957245,-6.5502243,-37.978897,-1.1311073,-0.39947215,0.4343624,-31.961443,106.79032,22.950788,1.851232,1.070105,-3.587301,-20.042813,-38.661786,-3.524594
603,4143177318,-63.502857,-8.014458,-39.6799,-1.7270555,-0.38772413,0.89516544,-40.1671,120.23789,28.48632,1.822448,1.063643,-3.572382,-20.712265,-36.657821,-3.049822
604,4143193985,-39.43056,-9.426483,-41.59499,-2.378893,-0.37660363,1.5075345,-50.634483,133.82816,34.385036,1.7828,1.057366,-3.547256,-21.556173,-34.427352,-2.476738
605,4143210652,-10.167294,-10.828354,-43.18855,-3.1176128,-0.3746343,2.2792516,-62.754616,149.33975,40.97745,1.73084,1.051122,-3.509268,-22.602083,-31.938356,-1.79378
606,4143227319,16.213295,-12.970039,-44.476547,-3.761753,-0.5205325,2.7586675,-70.42343,161.5466,45.987103,1.668144,1.042446,-3.46329,-23.775807,-29.245913,-1.027328
607,4143243986,39.456074,-15.896042,-45.64772,-4.287651,-0.82856846,2.9173985,-73.36954,169.44115,49.110645,1.596683,1.028637,-3.414667,-24.998633,-26.421894,-0.208817
608,4143260653,63.248272,-19.28159,-46.293842,-4.80497,-1.240629,2.9798775,-74.07976,176.84178,51.677727,1.5166,1.00796,-3.365002,-26.233296,-23.474531,0.652478
609,4143277320,85.53771,-23.331131,-46.46038,-5.261981,-1.7982054,2.8265815,-70.913635,182.18167,53.02832,1.4289,0.97799,-3.317892,-27.41519,-20.43817,1.536283
610,4143293987,111.98016,-27.569351,-46.517212,-5.745268,-2.4165587,2.7327447,-68.07975,187.32059,54.286213,1.333146,0.937714,-3.272346,-28.549853,-17.31616,2.441053
611,4143310654,143.01076,-31.974785,-46.42242,-6.2639313,-3.0949724,2.7202299,-65.76136,192.58203,55.549973,1.228747,0.886131,-3.227009,-29.645876,-14.106459,3.366886
612,4143327321,174.11624,-36.965405,-46.032906,-6.729515,-3.9148679,2.5503268,-60.419456,195.65794,55.671818,1.116588,0.820883,-3.184504,-30.652867,-10.845493,4.29475
613,4143343988,206.57356,-42.447964,-45.41596,-7.1600285,-4.862336,2.2827036,-52.900322,196.94528,54.874958,0.997254,0.739844,-3.146459,-31.534539,-7.563072,5.209333
614,4143360655,231.8897,-45.980423,-45.923878,-7.125704,-5.323826,2.1908722,-44.393173,185.17592,51.993053,0.878492,0.651114,-3.109944,-32.274425,-4.476807,6.075884
615,4143377322,248.67172,-47.374584,-47.692112,-6.568159,-5.251075,2.2710068,-34.517975,158.7833,46.71566,0.769023,0.563596,-3.072094,-32.849725,-1.830419,6.854478
616,4143393989,261.7929,-47.720226,-50.13742,-5.6980934,-4.9262986,2.4338684,-23.221113,123.22314,39.699657,0.674055,0.481491,-3.03153,-33.236744,0.2233,7.516139
617,4143410656,268.63483,-46.33233,-53.65974,-4.384074,-4.1781363,2.7476184,-10.65312,75.01841,30.518467,0.600987,0.411855,-2.985736,-33.414296,1.473607,8.02478
618,4143427323,272.98505,-44.7316,-57.42873,-2.847911,-3.386,2.9945116,4.8842,20.007338,19.509308,0.553522,0.355422,-2.935827,-33.332893,1.807063,8.349935
619,4143443990,275.044,-42.981167,-61.42951,-1.0939398,-2.5682182,3.1657808,23.512325,-41.73265,6.6337156,0.53529,0.312618,-2.883064,-32.941021,1.111519,8.460497
620,4143460657,270.48013,-39.707066,-66.449615,1.11269,-1.3826821,3.4276714,44.34445,-116.42132,-8.7181,0.553835,0.289573,-2.825936,-32.201947,-0.828836,8.315195
621,4143477324,259.90472,-35.19929,-72.34691,3.7374558,0.09673734,3.7343016,67.82838,-203.17566,-26.555792,0.616126,0.291185,-2.763698,-31.071474,-4.215097,7.872598
622,4143493991,248.50327,-31.355011,-72.871124,5.110002,1.051447,3.554133,82.0482,-267.55927,-40.286655,0.701293,0.308709,-2.704462,-29.704004,-8.674418,7.201154
623,4143510658,235.9513,-28.152096,-67.51822,5.1044364,1.4502559,2.8525534,85.78941,-307.26642,-49.410564,0.786367,0.33288,-2.656919,-28.27418,-13.795525,6.377645
624,4143527325,219.95149,-24.853302,-59.15534,4.4942904,1.6361599,1.8473966,85.03031,-338.24487,-57.112762,0.861272,0.360149,-2.626129,-26.857008,-19.43294,5.425766
625,4143543992,201.56616,-21.916065,-46.028927,2.8168669,1.3934683,0.39001155,76.36896,-351.11295,-61.585514,0.90822,0.383373,-2.619629,-25.584192,-25.284822,4.399341
626,4143560659,176.3596,-17.835758,-31.980658,1.1109715,1.2923899,-1.1707972,66.53167,-367.81454,-66.89721,0.926736,0.404913,-2.639142,-24.475331,-31.415064,3.284388
627,4143577326,143.82126,-12.510422,-17.187561,-0.5689926,1.3634574,-2.8243465,55.89302,-389.62863,-73.306816,0.917253,0.427637,-2.686214,-23.543781,-37.908875,2.062608
628,4143593993,106.85247,-7.0571747,1.836874,-3.1510239,1.1365674,-4.879033,38.042877,-397.41068,-77.205444,0.864736,0.44658,-2.767531,-22.909733,-44.532386,0.775851
629,4143610660,64.264275,-1.1315231,24.352722,-6.429262,0.730901,-7.2694235,14.266887,-395.64844,-79.42829,0.757582,0.458762,-2.888688,-22.671952,-51.126527,-0.547954
630,4143627327,34.830727,2.62368,42.191742,-8.297031,0.6379869,-9.003858,0.38713074,-386.32144,-79.54866,0.619298,0.469395,-3.038752,-22.6655,-57.565218,-1.873765
631,4143643994,20.59718,3.8239746,55.061787,-8.678099,0.8458215,-10.029032,-3.01687,-366.8772,-76.99772,0.474663,0.483492,-3.205903,-22.715781,-63.679838,-3.15706
632,4143660661,11.745014,3.9596481,66.393555,-8.442556,1.2002491,-10.775147,-2.7045717,-339.0583,-72.46889,0.333954,0.503496,-3.385489,-22.760857,-69.330809,-4.364875
633,4143677328,13.645966,2.2387085,74.04636,-7.035593,1.8220278,-10.97468,5.4597416,-302.35052,-65.627716,0.216694,0.533863,-3.5684,-22.669861,-74.369984,-5.45867
634,4143693995,15.919067,-0.08177948,83.74429,-5.933138,2.3020499,-11.29114,10.486897,-250.25621,-55.713272,0.117808,0.57223,-3.756586,-22.495079,-78.540921,-6.387225
635,4143710662,17.897102,-2.9234314,95.80531,-5.2114496,2.6232488,-11.758567,11.73354,-182.1851,-42.62497,0.030951,0.615951,-3.952562,-22.29952,-81.577339,-7.097641
636,4143727329,29.560337,-7.6393585,105.54047,-3.6560316,3.0906365,-11.812262,18.210556,-100.35558,-26.328287,-0.029983,0.667462,-4.149433,-21.996011,-83.249932,-7.536446
637,4143743996,48.888313,-14.007683,114.156906,-1.574192,3.6165779,-11.587474,27.58372,-2.8115745,-6.5332956,-0.05622,0.727738,-4.342558,-21.536282,-83.296792,-7.645334
638,4143760663,57.59698,-17.215103,120.23448,-0.3743248,3.848622,-11.217657,32.85669,65.95847,6.98489,-0.062459,0.791882,-4.529519,-20.988671,-82.197484,-7.528919
639,4143777330,55.42312,-17.015907,123.01376,-0.039222717,3.7853525,-10.636719,34.47811,101.895294,13.399775,-0.063113,0.854971,-4.706798,-20.414036,-80.499229,-7.305589
640,4143793997,49.885704,-15.582157,123.935974,-0.10469723,3.531225,-9.863567,34.201675,127.82189,17.63445,-0.064858,0.913825,-4.871191,-19.844008,-78.368864,-7.011681
641,4143810664,36.38264,-11.6358185,122.373184,-0.9226818,2.9932063,-8.906141,30.392279,131.37283,16.9934,-0.080236,0.963712,-5.019627,-19.33747,-76.179317,-6.728458
642,4143827331,28.327253,-8.364204,117.87985,-1.3550129,2.4526377,-7.528884,29.44236,138.36702,17.290981,-0.10282,1.004589,-5.145108,-18.846764,-73.8732,-6.440275
643,4143843998,26.574203,-5.9649506,110.42163,-1.3541536,1.9146762,-5.71434,31.590307,150.63014,18.9324,-0.125389,1.0365,-5.240347,-18.320259,-71.362698,-6.124735
644,4143860665,20.613552,-1.7502289,99.551285,-1.7849369,1.1561548,-3.5719695,32.314095,144.44197,16.66352,-0.155138,1.055769,-5.29988,-17.781691,-68.955332,-5.84701
645,4143877332,13.404827,3.6079025,85.049255,-2.4059381,0.23174681,-1.0373193,33.00359,125.08162,11.682933,-0.195237,1.059631,-5.317169,-17.231631,-66.870638,-5.652294
646,4143893999,7.1237297,6.9367523,73.4469,-2.634675,-0.39195326,0.6905136,32.07215,116.63785,9.265756,-0.239148,1.053098,-5.30566,-16.697095,-64.926674,-5.497865
647,4143910666,0.7709465,8.271866,65.16408,-2.5141,-0.6981498,1.4949379,28.890625,118.02588,9.182175,-0.28105,1.041462,-5.280744,-16.215585,-62.959576,-5.344829
648,4143927333,-4.6121025,8.670425,56.82852,-2.1537457,-0.87296355,1.9977889,25.194902,121.01634,9.671175,-0.316946,1.026913,-5.247448,-15.79567,-60.942637,-5.183643
649,4143944000,-8.741238,7.3399353,50.156067,-1.4147549,-0.7924688,1.8629127,20.42334,131.14888,11.95647,-0.340525,1.013705,-5.216399,-15.455281,-58.756822,-4.984369
650,4143960667,-15.46526,6.816559,41.08443,-0.8603611,-0.79127,1.771184,14.3370285,128.01234,11.566426,-0.354864,1.000517,-5.186879,-15.216331,-56.623283,-4.791595
651,4143977334,-24.771877,7.207794,29.24667,-0.50206757,-0.8846079,1.7701744,7.0494385,110.30497,8.2337475,-0.363232,0.985774,-5.157376,-15.09884,-54.784867,-4.654366
652,4143994001,-34.578632,6.5797424,18.102804,0.05829239,-0.797788,1.2239013,-1.8419533,92.52489,5.153489,-0.36226,0.972478,-5.136978,-15.129539,-53.242786,-4.568475
653,4144010668,-45.7316,5.4701996,6.7381907,0.7034092,-0.59946275,0.26971638,-12.406769,69.94665,1.3030192,-0.350537,0.962487,-5.132483,-15.336318,-52.077009,-4.546758
654,4144027335,-56.93684,4.7261963,-2.9799798,1.1269512,-0.47698066,-0.19509244,-18.911245,55.02882,-1.0834202,-0.331754,0.954537,-5.135735,-15.651505,-51.159862,-4.564815
655,4144044002,-67.95853,4.203682,-10.426698,1.3417339,-0.41236463,-0.17618358,-20.912685,50.368954,-1.4744257,-0.309392,0.947664,-5.138671,-16.00005,-50.320379,-4.589389
656,4144060669,-80.071365,3.8684464,-17.100266,1.4109392,-0.36060128,-0.01675582,-21.205751,46.54862,-1.6815811,-0.285876,0.941654,-5.13895,-16.353479,-49.544569,-4.617415
657,4144077336,-92.947754,3.8973541,-22.316332,1.2569857,-0.3625578,0.50285614,-18.219156,47.360023,-1.0080892,-0.264926,0.935611,-5.130569,-16.657132,-48.755235,-4.634216
658,4144094003,-106.822266,3.2912369,-26.311682,1.1646814,-0.23415568,0.68860626,-15.370623,48.873783,-0.0055784583,-0.245515,0.931708,-5.119092,-16.913309,-47.940672,-4.634309
659,4144110670,-121.87918,2.0319443,-29.112257,1.1374207,0.033708394,0.49773002,-12.87998,50.323658,1.1824464,-0.226558,0.93227,-5.110796,-17.127975,-47.101944,-4.614602
660,4144127337,-137.77022,0.7563324,-29.920694,0.9648962,0.31808078,0.45583022,-7.667945,57.0329,3.4532108,-0.210476,0.937571,-5.103199,-17.255774,-46.151396,-4.557048
661,4144144004,-154.61539,-0.7527542,-28.704716,0.7037802,0.6612951,0.40787983,-0.43013573,68.183754,6.694413,-0.198746,0.948593,-5.096401,-17.262943,-45.015,-4.445474
662,4144160671,-156.92648,-2.434105,-29.565254,0.24837017,0.76254606,0.4460647,0.20126772,80.00568,10.631109,-0.194606,0.961302,-5.088967,-17.259589,-43.681572,-4.268289
663,4144177338,-143.0884,-4.2272873,-32.683365,-0.43877506,0.58091676,0.6370449,-6.2046385,93.103355,15.416231,-0.201919,0.970984,-5.07835,-17.363,-42.129849,-4.011352
664,4144194005,-120.46275,-6.322548,-35.998337,-1.2725248,0.28970838,0.826784,-16.015003,108.911,21.149406,-0.223128,0.975812,-5.06457,-17.629917,-40.314666,-3.658862
665,4144210672,-84.543594,-8.697807,-40.55112,-2.2925396,-0.19907656,1.0561938,-31.557005,126.824974,27.845757,-0.261337,0.972494,-5.046967,-18.155867,-38.200916,-3.194766
666,4144227339,-44.21684,-11.227203,-43.647087,-3.5005245,-0.740608,1.3993082,-47.02543,150.44055,35.90824,-0.319679,0.960151,-5.023645,-18.939624,-35.693573,-2.596295
667,4144244006,0.18042374,-13.93581,-45.032364,-4.8970995,-1.3233966,1.846904,-62.149933,180.21394,45.421967,-0.401297,0.938094,-4.992863,-19.975456,-32.690007,-1.839262
668,4144260673,57.20709,-16.872726,-46.897743,-6.5217266,-2.0987794,2.401852,-81.86768,214.09091,56.2584,-0.509992,0.903114,-4.952832,-21.339917,-29.121825,-0.901622
669,4144277340,125.26456,-20.020958,-48.61535,-8.3811245,-3.0391695,3.0818524,-105.00999,253.10168,68.56666,-0.649677,0.852461,-4.901468,-23.090083,-24.903464,0.241156
670,4144294007,173.45538,-23.246235,-49.840603,-9.385298,-3.6747417,3.5195608,-115.79694,272.14862,75.18962,-0.806099,0.791215,-4.842809,-25.020032,-20.367654,1.494316
671,4144310674,200.07481,-26.53999,-50.783283,-9.436985,-3.9833593,3.687642,-113.31136,268.68024,75.44346,-0.963382,0.724826,-4.781348,-26.908555,-15.88965,2.751707
672,4144327341,218.8804,-29.95718,-51.14874,-9.058971,-4.172269,3.7766552,-104.23903,255.3988,72.84132,-1.114365,0.655288,-4.718404,-28.645872,-11.633003,3.965729
673,4144344008,221.5684,-33.460102,-50.90066,-7.943907,-4.117012,3.688312,-84.26127,225.15811,65.35241,-1.246763,0.586671,-4.656932,-30.050226,-7.880368,5.054936
674,4144360675,228.56493,-37.15489,-50.724903,-6.7363644,-4.131767,3.636767,-63.822227,192.21541,57.142967,-1.359036,0.517808,-4.596319,-31.11393,-4.676778,6.007319
675,4144377342,241.02037,-41.046,-50.598267,-5.469694,-4.235052,3.640244,-43.36862,157.41106,48.43837,-1.450198,0.447224,-4.535648,-31.83674,-2.05326,6.814625
676,4144394009,241.53317,-45.046947,-50.156643,-3.5474224,-4.163082,3.5082345,-13.862272,107.24033,35.34145,-1.509322,0.377839,-4.477177,-32.067778,-0.265921,7.403649
677,4144410676,234.32063,-49.17943,-49.540195,-1.0939875,-3.9817433,3.2871225,22.638988,44.466274,18.655794,-1.527555,0.311477,-4.422392,-31.690462,0.475184,7.714579
678,4144427343,231.3504,-50.972122,-49.479095,0.38326836,-3.7442856,3.1953905,47.09675,-8.142812,5.7905736,-1.521167,0.249072,-4.369135,-30.905516,0.33947,7.811089
679,4144444010,231.42728,-50.158966,-50.025158,0.8241396,-3.4205656,3.2293377,58.8945,-50.420105,-3.116972,-1.507431,0.192063,-4.315313,-29.923941,-0.500865,7.759139
680,4144460677,231.53754,-47.90848,-50.941452,0.86879444,-3.027238,3.3163867,65.7701,-91.59638,-11.118729,-1.492951,0.141609,-4.26004,-28.827773,-2.027471,7.573827
681,4144477344,234.24316,-43.496414,-52.444576,0.1199007,-2.566804,3.5104256,62.72898,-126.00763,-16.333576,-1.490953,0.098829,-4.201533,-27.78229,-4.127598,7.301601
682,4144494011,227.88069,-38.312218,-54.01103,-0.38130283,-1.9374387,3.6374574,63.326973,-170.70143,-24.168869,-1.497308,0.066538,-4.140909,-26.72684,-6.972622,6.898787
683,4144510678,211.80965,-32.401657,-55.646328,-0.57730484,-1.1333761,3.6897616,68.25474,-226.78586,-34.958782,-1.50693,0.047648,-4.079413,-25.589261,-10.752386,6.316141
684,4144527345,193.756,-24.403877,-57.81853,-1.3291645,-0.20176867,3.799223,66.45301,-281.09998,-44.434032,-1.529083,0.044285,-4.016093,-24.481711,-15.437386,5.575574
685,4144544012,170.99321,-14.561672,-60.441944,-2.4186745,0.8842895,3.9286437,60.753204,-337.4465,-53.777267,-1.569394,0.059023,-3.950616,-23.469158,-21.061494,4.679286
686,4144560679,151.36447,-8.08847,-57.026295,-3.0481977,1.6640928,3.2470453,56.819824,-376.66937,-61.32614,-1.620197,0.086758,-3.896499,-22.522161,-27.339317,3.657184
687,4144577346,136.26152,-5.2794647,-46.986298,-3.250269,2.092593,1.6843479,53.777817,-395.32184,-66.40088,-1.674368,0.121635,-3.868427,-21.625864,-33.928014,2.550503
688,4144594013,119.87497,-3.7921448,-33.324608,-3.2590647,2.4102583,-0.39638197,50.78411,-405.05225,-70.589905,-1.728686,0.161806,-3.875033,-20.779462,-40.678885,1.374005
689,4144610680,104.47702,-5.0285187,-14.190481,-2.8832798,2.4880483,-3.232738,48.973312,-399.89087,-73.2567,-1.776741,0.203273,-3.928912,-19.96324,-47.343733,0.15306
690,4144627347,87.21703,-5.5581207,6.5363073,-2.812542,2.5857756,-6.314729,42.091606,-387.60782,-74.27657,-1.823617,0.246369,-4.034157,-19.261713,-53.803863,-1.084883
691,4144644014,67.530624,-5.1834183,28.695919,-3.075966,2.722022,-9.626666,29.865435,-368.70963,-73.688324,-1.874883,0.291736,-4.194601,-18.763956,-59.949023,-2.313022
692,4144660681,48.785255,-6.832535,55.89962,-3.1720657,2.653574,-13.639928,16.229607,-333.74976,-70.92055,-1.927751,0.335962,-4.421933,-18.493463,-65.511519,-3.495031
693,4144677348,30.309908,-9.795662,87.42392,-3.2506294,2.4329977,-18.261845,-0.27035427,-283.95157,-65.87229,-1.981928,0.376512,-4.726297,-18.497969,-70.244045,-4.592903
694,4144694015,16.650146,-11.0467,109.02739,-3.3525066,2.3495383,-20.865297,-9.30724,-239.94327,-60.414234,-2.037803,0.415671,-5.074052,-18.65309,-74.243099,-5.599807
695,4144710682,8.810551,-10.682289,119.83794,-3.4278898,2.395525,-21.25863,-9.555531,-201.91722,-54.522705,-2.094934,0.455596,-5.428363,-18.812349,-77.608386,-6.508519
696,4144727349,4.268814,-9.681725,126.16429,-3.5634937,2.465021,-20.627352,-6.9991455,-160.39482,-47.135246,-2.154326,0.49668,-5.772152,-18.929001,-80.281633,-7.294106
697,4144744016,4.5834694,-7.318741,124.12714,-3.758194,2.6263669,-18.242395,1.3342788,-120.357475,-38.649536,-2.216963,0.540453,-6.076192,-18.906763,-82.287591,-7.938265
698,4144760683,7.937092,-6.132431,122.998795,-3.8610563,2.64525,-15.757771,10.371532,-66.79048,-27.72052,-2.281314,0.584541,-6.338822,-18.733904,-83.400766,-8.400274
699,4144777350,14.369614,-6.249275,123.25215,-3.8779526,2.5064366,-13.251908,19.666735,1.662755,-14.137201,-2.345947,0.626315,-6.559687,-18.406125,-83.373053,-8.635894
700,4144794017,26.341038,-5.8100433,116.85307,-3.8810234,2.381054,-9.25112,34.387543,73.59971,1.1719455,-2.410631,0.665999,-6.713872,-17.832999,-82.146391,-8.616362
701,4144810684,43.68885,-5.374893,105.66893,-3.8386135,2.2153919,-4.0792546,53.52407,152.6064,18.590998,-2.474608,0.702922,-6.78186,-16.940931,-79.602951,-8.306512
702,4144827351,50.83068,-4.710327,97.47893,-3.711152,2.0275111,-0.80164564,63.448402,205.30283,29.84336,-2.536461,0.736714,-6.795221,-15.883458,-76.181237,-7.809123
703,4144844018,46.762375,-3.595642,91.9151,-3.497035,1.8359786,0.49159503,63.61206,227.15959,34.045216,-2.594745,0.767314,-6.787028,-14.823257,-72.395244,-7.241703
704,4144860685,38.934685,-2.5412598,86.43083,-3.1899042,1.5922956,1.0562332,59.875565,236.5198,35.41202,-2.64791,0.793852,-6.769424,-13.825331,-68.453247,-6.651503
705,4144877352,23.15982,-1.4340744,82.82393,-2.7756195,1.3046589,0.09468806,48.657043,223.48227,31.56774,-2.69417,0.815596,-6.767846,-13.01438,-64.728543,-6.125374
706,4144894019,9.376404,0.050979614,74.343414,-2.2967052,1.0015826,-0.20288193,39.23522,204.77898,27.164783,-2.732448,0.832289,-6.771227,-12.36046,-61.31556,-5.672628
707,4144910686,-1.7354927,1.8787079,60.58791,-1.7476139,0.6779152,0.28246617,32.14234,181.42645,22.469658,-2.761575,0.843588,-6.766519,-11.824754,-58.291786,-5.298134
708,4144927353,-18.737385,3.9957504,46.336285,-1.0911646,0.32633516,-0.22282922,19.678013,136.0445,13.025539,-2.779761,0.849027,-6.770233,-11.496787,-56.024378,-5.081042
709,4144944020,-39.525166,6.472992,30.038944,-0.3316536,-0.04846731,-1.2553202,3.7932816,71.66567,-0.2775234,-2.785289,0.848219,-6.791155,-11.433566,-54.82995,-5.085667
710,4144960687,-54.598934,7.9145737,17.181898,0.20036316,-0.34144983,-1.6394979,-6.287732,34.69622,-7.8614793,-2.78195,0.842528,-6.81848,-11.538362,-54.25168,-5.216692
711,4144977354,-64.15303,8.200653,8.769176,0.4791088,-0.5414175,-1.4824756,-10.6401205,26.8099,-9.471751,-2.773965,0.833504,-6.843188,-11.715697,-53.804848,-5.374555
712,4144994021,-71.30376,8.050438,1.0658655,0.66043663,-0.6941104,-1.0320803,-12.332487,27.523663,-9.1462965,-2.762958,0.821935,-6.860389,-11.921238,-53.34612,-5.526993
713,4145010688,-73.718994,7.0809784,-4.2710094,0.65269375,-0.76814675,-0.023585677,-9.044236,48.851128,-4.4257164,-2.75208,0.809133,-6.860782,-12.071975,-52.531935,-5.600755
714,4145027355,-79.11571,6.079582,-9.304091,0.66274357,-0.82784855,0.39714146,-8.127491,58.76884,-2.1345592,-2.741034,0.795336,-6.854163,-12.207433,-51.552454,-5.636331
715,4145044022,-87.841965,5.105255,-14.302972,0.7021742,-0.8742647,0.18863583,-9.880423,55.159035,-2.6944947,-2.729331,0.780765,-6.851019,-12.372107,-50.633137,-5.681239
716,4145060689,-94.10567,3.432045,-16.751102,0.58685875,-0.8458817,0.13349128,-8.665703,64.1236,-0.6310307,-2.71955,0.766667,-6.848794,-12.516535,-49.56441,-5.691756
717,4145077356,-99.56827,1.2222672,-17.04604,0.3583126,-0.7535796,-0.020895243,-6.030384,78.70389,2.576078,-2.713578,0.754107,-6.849142,-12.617041,-48.252679,-5.648821
718,4145094023,-102.56772,-0.4699402,-19.392628,0.17258835,-0.68028677,-0.026612282,-6.704712,87.66917,5.2620964,-2.710702,0.742769,-6.849586,-12.728786,-46.791526,-5.561119
719,4145110690,-102.27043,-1.6446075,-23.756334,0.018267632,-0.6235235,0.215585,-10.489034,93.12502,7.929205,-2.710398,0.732377,-6.845993,-12.903603,-45.239442,-5.428966
720,4145127357,-100.59943,-2.7002106,-28.322126,-0.15394211,-0.54849374,0.40394878,-16.200497,95.655945,10.358216,-2.712964,0.723235,-6.839261,-13.173611,-43.645176,-5.256329
721,4145144024,-96.88701,-3.374382,-34.082222,-0.30990505,-0.47398284,0.62200034,-25.002598,93.05002,12.277559,-2.718129,0.715335,-6.828894,-13.590321,-42.094342,-5.051703
