PacketCounter,SampleTimeFine,Euler_X,Euler_Y,Euler_Z,Acc_X,Acc_Y,Acc_Z,Gyr_X,Gyr_Y,Gyr_Z,Velo_X,Velo_Y,Velo_Z,ANG_X,ANG_Y,ANG_Z
0,4133143784,-252.35611,-12.718338,-25.8794,3.7316122,-3.470924,-2.5595853,-0.26969814,-7.3304634,4.647894,0.0,0.0,0.0,0.0,0.0,0.0
1,4133160451,-249.99725,-12.625462,-25.992897,3.5951734,-3.4601588,-2.7330554,-0.012867928,-7.909651,5.4925604,0.05992,-0.057669,-0.045551,-0.000214,-0.131828,0.091543
2,4133177118,-247.41031,-12.527718,-26.112541,3.4381833,-3.448368,-2.9231794,0.28273916,-8.496519,6.392743,0.117223,-0.115142,-0.094271,0.004498,-0.273437,0.198089
3,4133193785,-244.61252,-12.426529,-26.236588,3.2623057,-3.435349,-3.127384,0.61690664,-9.078976,7.3362637,0.171595,-0.172398,-0.146394,0.01478,-0.424753,0.32036
4,4133210452,-241.16476,-12.292679,-26.400637,3.0324636,-3.423116,-3.3985083,1.0028298,-9.896581,8.576751,0.222136,-0.22945,-0.203036,0.031494,-0.589696,0.463306
5,4133227119,-237.15045,-12.132534,-26.596977,2.7545543,-3.4112027,-3.7260473,1.4406924,-10.894536,10.060487,0.268045,-0.286303,-0.265137,0.055506,-0.771272,0.630981
6,4133243786,-237.07849,-11.969067,-26.82267,2.591074,-3.4477494,-3.9299238,1.5266292,-11.767832,11.043151,0.31123,-0.343765,-0.330636,0.08095,-0.967403,0.815034
7,4133260453,-241.33807,-11.800156,-27.082932,2.552342,-3.538002,-4.000325,1.2228692,-12.520515,11.488132,0.353769,-0.402732,-0.397308,0.101331,-1.176078,1.006503
8,4133277120,-247.85837,-11.618443,-27.37501,2.564517,-3.659173,-4.016382,0.720201,-13.264051,11.715423,0.396511,-0.463718,-0.464248,0.113334,-1.397146,1.20176
9,4133293787,-257.91776,-11.428692,-27.700417,2.671773,-3.8254015,-3.9296072,-0.09664869,-13.924072,11.525647,0.441041,-0.527475,-0.529741,0.111723,-1.629214,1.393854
10,4133310454,-268.79623,-11.208988,-28.071531,2.7697372,-4.0096703,-3.859371,-0.9908948,-14.745395,11.4216,0.487203,-0.594303,-0.594064,0.095208,-1.874971,1.584214
11,4133327121,-280.37952,-10.957649,-28.489952,2.8526049,-4.2111063,-3.8120677,-1.952085,-15.742281,11.429473,0.534746,-0.664488,-0.657598,0.062673,-2.137342,1.774705
12,4133343788,-295.1785,-10.688904,-28.95221,3.0110855,-4.4562397,-3.685899,-3.2025948,-16.731926,11.125032,0.584931,-0.738759,-0.71903,0.009296,-2.416207,1.960122
13,4133360455,-312.68164,-10.397316,-29.462404,3.2239347,-4.740369,-3.5053146,-4.6981807,-17.768951,10.611534,0.638663,-0.817765,-0.777452,-0.069007,-2.712356,2.136981
14,4133377122,-313.87485,-10.090637,-29.904287,3.315701,-4.8283086,-3.39019,-6.4486594,-18.970871,10.538339,0.693925,-0.898237,-0.833955,-0.176485,-3.028537,2.31262
15,4133393789,-297.2088,-9.770493,-30.26733,3.2814074,-4.700577,-3.3385227,-8.491758,-20.330267,10.913283,0.748615,-0.97658,-0.889597,-0.318014,-3.367375,2.494508
16,4133410456,-271.31873,-9.428749,-30.61036,3.190493,-4.465302,-3.3090632,-10.801712,-21.831497,11.495908,0.80179,-1.051002,-0.944748,-0.498043,-3.731233,2.686106
17,4133427123,-230.84836,-9.067413,-30.900976,2.9970336,-4.056261,-3.3312013,-13.398108,-23.504225,12.452976,0.851741,-1.118606,-1.000268,-0.721345,-4.12297,2.893656
18,4133443790,-187.45178,-8.68454,-31.207205,2.8270006,-3.6167624,-3.3078544,-16.344345,-25.237078,13.294588,0.898858,-1.178885,-1.055399,-0.993751,-4.543588,3.115232
19,4133460457,-141.62654,-8.278862,-31.533604,2.6864347,-3.1532476,-3.2341201,-19.65262,-27.030785,13.99828,0.943632,-1.231439,-1.109301,-1.321295,-4.994101,3.348537
20,4133477124,-82.741684,-7.852745,-31.817734,2.4729147,-2.5347726,-3.1827185,-23.31906,-28.96763,14.950878,0.984847,-1.273685,-1.162346,-1.709946,-5.476895,3.597718
21,4133493791,-13.012047,-7.4052773,-32.073364,2.212596,-1.7887181,-3.132436,-27.368925,-31.026594,16.049526,1.021724,-1.303497,-1.214553,-2.166095,-5.994005,3.86521
22,4133510458,35.79953,-6.9489174,-32.533924,1.9906788,-1.3281573,-3.0682728,-29.674078,-32.590237,17.05049,1.054902,-1.325633,-1.265691,-2.660663,-6.537176,4.149385
23,4133527125,62.122047,-6.485054,-33.213966,1.8023739,-1.174761,-2.9967744,-30.02934,-33.606136,17.977575,1.084942,-1.345212,-1.315637,-3.161152,-7.097278,4.449011
24,4133543792,79.675896,-6.006859,-34.012196,1.6244268,-1.1494943,-2.9100602,-29.459944,-34.350628,18.87756,1.112016,-1.36437,-1.364138,-3.652151,-7.669788,4.763637
25,4133560459,79.95849,-5.5178947,-34.99264,1.4768353,-1.3635124,-2.8058646,-27.358118,-34.64794,19.695671,1.13663,-1.387095,-1.410902,-4.10812,-8.247254,5.091898
26,4133577126,84.39344,-5.0107727,-36.0041,1.2826881,-1.5406877,-2.7110784,-24.95992,-34.87756,20.675972,1.158008,-1.412773,-1.456087,-4.524119,-8.828547,5.436498
27,4133593793,94.11625,-4.484909,-37.039764,1.0387249,-1.6667287,-2.6252677,-22.324327,-35.053463,21.826567,1.17532,-1.440552,-1.499841,-4.896191,-9.412771,5.800274
28,4133610460,91.0521,-3.947075,-38.23181,0.7995348,-1.9763423,-2.533397,-18.286274,-34.826893,22.98197,1.188646,-1.473491,-1.542064,-5.200962,-9.993219,6.183307
29,4133627127,79.61132,-3.3957367,-39.550472,0.5482044,-2.4131305,-2.441117,-13.078514,-34.268387,24.195774,1.197783,-1.51371,-1.582749,-5.418937,-10.564359,6.58657
30,4133643794,75.850136,-2.9009247,-40.832756,0.39459515,-2.633689,-2.351817,-9.697348,-33.907234,25.07119,1.20436,-1.557605,-1.621946,-5.580559,-11.12948,7.004423
31,4133660461,78.91457,-2.4708328,-42.0817,0.35554314,-2.6357381,-2.264826,-8.259573,-33.740875,25.551844,1.210286,-1.601534,-1.659693,-5.718219,-11.691828,7.430287
32,4133677128,84.0028,-2.0718307,-43.356815,0.36747456,-2.5457675,-2.1828108,-7.4775405,-33.55597,25.862583,1.216411,-1.643963,-1.696073,-5.842845,-12.251094,7.86133
33,4133693795,94.84394,-1.7247162,-44.618835,0.46351147,-2.2764964,-2.1068728,-8.137199,-33.48094,25.885471,1.224136,-1.681905,-1.731188,-5.978465,-12.80911,8.292755
34,4133710462,97.22547,-1.3912354,-45.999943,0.5943308,-2.0903807,-2.0309775,-8.165941,-33.10374,25.806498,1.234042,-1.716745,-1.765038,-6.114564,-13.360839,8.722863
35,4133727129,90.42399,-1.0702667,-47.508186,0.75667286,-2.000062,-1.955848,-7.4425626,-32.395187,25.638063,1.246653,-1.750079,-1.797635,-6.238607,-13.900759,9.150164
36,4133743796,84.50042,-0.8002167,-49.045937,1.0055752,-1.8006891,-1.8858144,-7.672934,-31.663853,25.179827,1.263413,-1.78009,-1.829065,-6.366489,-14.42849,9.569828
37,4133760463,76.25936,-0.5746155,-50.643036,1.3325233,-1.5480522,-1.8200912,-8.417812,-30.81509,24.465021,1.285622,-1.805891,-1.8594,-6.506786,-14.942075,9.977578
38,4133777130,70.5073,-0.3358078,-52.16058,1.5380878,-1.3647099,-1.7302141,-8.406879,-29.875607,23.870226,1.311257,-1.828636,-1.888237,-6.646901,-15.440002,10.375415
39,4133793797,68.70783,-0.08493805,-53.574257,1.6121874,-1.2381688,-1.6140537,-7.732185,-28.879452,23.397478,1.338127,-1.849272,-1.915138,-6.775771,-15.921326,10.765373
40,4133810464,66.24845,0.15329742,-54.970814,1.645442,-1.1483536,-1.4847631,-6.703552,-27.744102,22.882862,1.365551,-1.868411,-1.939884,-6.887497,-16.383728,11.146754
41,4133827131,64.69146,0.39217377,-56.307686,1.5850496,-1.1230454,-1.3344553,-5.0285363,-26.48363,22.41792,1.391968,-1.887128,-1.962125,-6.971306,-16.825122,11.520386
42,4133843798,63.663322,0.58582306,-57.6414,1.5629454,-1.0378561,-1.1813946,-3.8880048,-25.152775,21.723713,1.418017,-1.904426,-1.981815,-7.036106,-17.244335,11.882448
43,4133860465,62.78904,0.7300949,-58.97672,1.587573,-0.88961625,-1.0265565,-3.327927,-23.743593,20.777819,1.444477,-1.919253,-1.998924,-7.091571,-17.640062,12.228745
44,4133877132,63.650307,0.85793304,-60.246353,1.5479012,-0.7629857,-0.8538611,-2.5236473,-22.241323,19.792345,1.470275,-1.931969,-2.013155,-7.133632,-18.010751,12.558617
45,4133893799,66.16308,0.95809937,-61.459995,1.4719315,-0.6312294,-0.66697454,-1.7345595,-20.655922,18.702236,1.494807,-1.942489,-2.024271,-7.162541,-18.355016,12.870321
46,4133910466,66.50033,1.0110855,-62.715218,1.4295092,-0.5401828,-0.5598092,-0.9959049,-19.194254,18.260014,1.518632,-1.951492,-2.033601,-7.179139,-18.67492,13.174655
47,4133927133,64.64698,1.01754,-64.0089,1.4130135,-0.50293684,-0.5396528,-0.22985601,-17.87878,18.564547,1.542182,-1.959874,-2.042595,-7.18297,-18.9729,13.484064
48,4133943800,62.44796,0.9776077,-65.29798,1.4077044,-0.4788797,-0.56471586,0.39150763,-16.620626,19.215525,1.565644,-1.967855,-2.052007,-7.176445,-19.24991,13.804323
49,4133960467,59.006294,0.88568115,-66.60407,1.4286137,-0.4829352,-0.661386,0.87303495,-15.48198,20.436401,1.589454,-1.975904,-2.06303,-7.161894,-19.507943,14.14493
50,4133977134,56.92182,0.7591858,-67.84971,1.406291,-0.51083016,-0.77131486,1.4394777,-14.337798,21.843267,1.612892,-1.984418,-2.075885,-7.137903,-19.746906,14.508984
51,4133993801,56.467827,0.59677124,-69.02702,1.3376732,-0.5598376,-0.8921497,2.0720074,-13.18676,23.416218,1.635187,-1.993749,-2.090754,-7.10337,-19.966685,14.899254
52,4134010468,55.662712,0.38406372,-70.190254,1.2688656,-0.64571404,-1.0767441,2.6614854,-12.149946,25.55172,1.656335,-2.004511,-2.1087,-7.059012,-20.169184,15.325116
53,4134027135,55.14698,0.123420715,-71.319756,1.1840639,-0.768013,-1.3140283,3.2492588,-11.2068205,28.181736,1.676069,-2.017311,-2.1306,-7.004858,-20.355964,15.794812
54,4134043802,54.19639,-0.10231781,-72.5325,1.1455164,-0.7909472,-1.4255497,3.3091693,-11.564088,30.177652,1.695161,-2.030493,-2.154359,-6.949705,-20.548699,16.297773
55,4134060469,52.557976,-0.28740692,-73.84421,1.1634216,-0.70458436,-1.401356,2.7791348,-13.368175,31.494883,1.714551,-2.042236,-2.177715,-6.903386,-20.771502,16.822688
56,4134077136,51.07331,-0.47009277,-75.1839,1.1965599,-0.5735841,-1.3192191,1.9333813,-16.048409,32.635303,1.734494,-2.051796,-2.199702,-6.871163,-21.038975,17.36661
57,4134093803,49.510918,-0.6276474,-76.58517,1.2632523,-0.36079597,-1.1308606,0.6189189,-19.967377,33.30518,1.755548,-2.057809,-2.21855,-6.860848,-21.371765,17.921696
58,4134110470,47.90679,-0.81342316,-77.99016,1.3383656,-0.14883256,-0.95459247,-0.902915,-24.476858,34.27774,1.777854,-2.06029,-2.23446,-6.875897,-21.779713,18.492992
59,4134127137,46.35723,-1.0304642,-79.39285,1.4186554,0.057295322,-0.7964349,-2.6183467,-29.563454,35.603886,1.801498,-2.059335,-2.247734,-6.919536,-22.272437,19.08639
60,4134143804,44.65235,-1.2322006,-80.85158,1.5328798,0.33133507,-0.5551033,-4.797054,-35.890785,36.649445,1.827046,-2.053813,-2.256986,-6.999487,-22.870617,19.697214
61,4134160471,42.824913,-1.4295044,-82.35421,1.6759377,0.6565366,-0.25459898,-7.392608,-43.354225,37.58173,1.854978,-2.042871,-2.261229,-7.122697,-23.593187,20.323576
62,4134177138,40.8468,-1.4985962,-84.16564,1.6660242,0.82536244,-0.10229719,-10.371897,-46.599632,35.493137,1.882745,-2.029115,-2.262934,-7.295562,-24.369848,20.915128
63,4134193805,38.679337,-1.4199982,-86.322334,1.4894485,0.8273697,-0.105074406,-13.780106,-45.201904,30.004095,1.907569,-2.015326,-2.264685,-7.52523,-25.123213,21.415196
64,4134210472,36.361534,-1.2579803,-88.693726,1.2287912,0.7498832,-0.18027306,-17.61507,-41.634953,22.584873,1.928049,-2.002828,-2.26769,-7.818815,-25.817129,21.791611
65,4134227139,33.86895,-0.97380066,-91.360954,0.83347225,0.53690076,-0.38262796,-21.890907,-34.40307,12.361761,1.94194,-1.99388,-2.274067,-8.183663,-26.390513,21.99764
66,4134243806,31.203827,-0.62511444,-94.18824,0.41551113,0.32803297,-0.5647607,-26.7131,-26.800226,0.8351376,1.948865,-1.988413,-2.28348,-8.628881,-26.837183,22.011559
67,4134260473,28.361595,-0.2129364,-97.172905,-0.019857407,0.1297462,-0.71983075,-32.102013,-18.987389,-11.943571,1.948534,-1.986251,-2.295477,-9.163915,-27.153639,21.812499
68,4134277140,25.311623,0.32848358,-100.45942,-0.57363033,-0.17675424,-0.9688089,-38.0326,-7.9875345,-27.53629,1.938973,-1.989197,-2.311624,-9.797792,-27.286765,21.353561
69,4134293807,22.047691,0.9909439,-104.02674,-1.2240934,-0.56339073,-1.2813885,-44.54415,5.5580387,-45.693447,1.918571,-1.998587,-2.33298,-10.540195,-27.194131,20.592004
70,4134310474,21.77121,1.5338821,-103.376884,-1.4612026,-0.9446626,-1.3896105,-57.74792,18.104027,-62.60966,1.894218,-2.014331,-2.35614,-11.50266,-26.892397,19.54851
71,4134327141,24.799347,1.9462738,-98.07529,-1.2481861,-1.3288085,-1.2822537,-78.28926,29.748102,-78.18702,1.873415,-2.036478,-2.377511,-12.807481,-26.396595,18.245393
72,4134343808,29.623497,2.3402252,-90.22013,-0.8118906,-1.7392493,-1.065717,-103.35684,41.80407,-94.12931,1.859883,-2.065465,-2.395273,-14.530095,-25.699861,16.676571
73,4134360475,37.167686,2.653099,-78.51582,-0.010502815,-2.1578002,-0.6679323,-134.74681,53.438072,-109.47626,1.859708,-2.101428,-2.406405,-16.775875,-24.809226,14.851967
74,4134377142,45.580986,3.046669,-65.58696,0.83393383,-2.6675005,-0.27594447,-168.98436,67.56483,-126.93386,1.873607,-2.145886,-2.411004,-19.592281,-23.683146,12.736403
75,4134393809,54.790947,3.5328293,-51.533848,1.707159,-3.2734804,0.10274267,-205.97661,84.38208,-146.70682,1.90206,-2.200444,-2.409292,-23.025224,-22.276778,10.291289
76,4134410476,66.56376,3.9781876,-33.86596,2.8963976,-3.9210207,0.6248789,-249.12144,101.7795,-166.65639,1.950333,-2.265794,-2.398877,-27.177248,-20.580453,7.513683
77,4134427143,80.56274,4.4183273,-13.061369,4.3391967,-4.6298914,1.253124,-297.82278,120.43256,-187.39465,2.022653,-2.342959,-2.377992,-32.140961,-18.573244,4.390439
78,4134443810,89.39359,4.7060547,1.1725817,5.065458,-4.909759,1.6839056,-322.78955,127.980446,-193.98485,2.107077,-2.424788,-2.349927,-37.520787,-16.440237,1.157358
79,4134460477,92.59568,4.8096313,8.258605,5.0196877,-4.7063036,1.9083401,-321.6164,122.952705,-184.64758,2.190738,-2.503226,-2.318121,-42.88106,-14.391025,-1.920102
80,4134477144,93.47578,4.8218994,12.519805,4.621766,-4.2645226,2.0463507,-307.77414,111.6376,-166.80016,2.267767,-2.574301,-2.284015,-48.010629,-12.530398,-4.700105
81,4134493811,90.020226,4.694641,11.324721,3.6080484,-3.4419084,2.0182734,-273.02707,90.40474,-136.02606,2.327901,-2.631666,-2.250377,-52.56108,-11.023652,-6.967206
82,4134510478,87.02152,4.4787064,11.019322,2.6195865,-2.508,2.0433311,-235.26965,65.85959,-100.36553,2.371561,-2.673466,-2.216321,-56.482241,-9.925992,-8.639965
83,4134527145,84.73162,4.176445,11.943082,1.6873217,-1.4755456,2.1319115,-195.31781,38.30921,-60.12771,2.399683,-2.698058,-2.180789,-59.737538,-9.287505,-9.642093
84,4134543812,78.99288,3.7161942,8.628791,0.2596178,-0.08033228,2.1058998,-136.85965,1.1351302,-7.2280912,2.40401,-2.699397,-2.145691,-62.018532,-9.268586,-9.762561
85,4134560479,70.77383,3.1039429,2.3678026,-1.5348234,1.6284518,2.0107656,-63.32623,-44.481396,56.935116,2.37843,-2.672256,-2.112178,-63.073969,-10.009943,-8.813642
86,4134577146,65.66677,2.7213593,-0.9441891,-2.5662794,2.657322,1.9107423,-15.545977,-71.91243,96.3913,2.335659,-2.627967,-2.080332,-63.333069,-11.208483,-7.20712
87,4134593813,63.64411,2.5911407,-1.4830542,-2.798501,2.949551,1.7888497,4.86352,-79.58731,108.89587,2.289017,-2.578808,-2.050518,-63.25201,-12.534938,-5.392189
88,4134610480,62.6596,2.532135,-1.2362909,-2.684453,2.9481287,1.64384,15.211369,-79.47705,110.74475,2.244276,-2.529673,-2.023121,-62.998487,-13.859556,-3.546443
89,4134627147,64.10142,2.6460571,1.2057524,-1.9270134,2.385127,1.4860243,4.7368407,-64.38828,92.1726,2.212159,-2.489921,-1.998354,-62.91954,-14.932694,-2.010233
90,4134643814,63.585426,2.687622,0.92618465,-1.3311958,1.9123745,1.2295882,1.7381091,-51.678177,76.41629,2.189972,-2.458048,-1.977861,-62.890572,-15.793997,-0.736628
91,4134660481,60.87638,2.6397934,-2.3431807,-0.9358969,1.5659099,0.870448,7.7756195,-42.31916,64.7697,2.174374,-2.43195,-1.963354,-62.760978,-16.499316,0.342867
92,4134677148,59.31359,2.7119904,-5.008894,-0.08291912,0.787194,0.4571215,-0.5179744,-21.384321,37.106636,2.172992,-2.41883,-1.955735,-62.769611,-16.855721,0.961311
93,4134693815,57.93969,2.85186,-8.169531,1.060977,-0.29004383,-0.03134322,-17.208632,7.5663004,-1.8323787,2.190675,-2.423664,-1.956257,-63.056422,-16.729616,0.930771
94,4134710482,56.625954,2.9088821,-10.410057,1.7304316,-0.9107361,-0.35787988,-23.964418,23.676207,-24.009209,2.219516,-2.438843,-1.962222,-63.455829,-16.335013,0.530618
95,4134727149,55.739708,2.895691,-11.2149,1.9345493,-1.0760359,-0.4966042,-22.002285,26.91398,-29.424788,2.251758,-2.456777,-1.970499,-63.822534,-15.886447,0.040205
96,4134743816,54.67449,2.849205,-12.043566,1.9260683,-1.0580786,-0.5761597,-16.114218,24.883114,-28.363295,2.283859,-2.474412,-1.980102,-64.091104,-15.471728,-0.432517
97,4134760483,53.49723,2.7357635,-12.405521,1.5136576,-0.6674075,-0.5294359,-2.0681386,12.329405,-13.794468,2.309087,-2.485535,-1.988926,-64.125573,-15.266238,-0.662425
98,4134777150,53.124,2.6966324,-12.246962,1.3167963,-0.4919734,-0.48370004,3.3229513,5.3541794,-7.420745,2.331034,-2.493735,-1.996988,-64.07019,-15.177002,-0.786104
99,4134793817,53.533943,2.7380981,-11.668598,1.3614941,-0.5606928,-0.44869995,-0.65910196,4.751251,-10.353576,2.353726,-2.50308,-2.004466,-64.081175,-15.097814,-0.958664
100,4134810484,54.35862,2.763321,-10.244883,1.1772547,-0.4211738,-0.301661,-2.2309313,-1.9339973,-5.8778353,2.373347,-2.5101,-2.009494,-64.118357,-15.130047,-1.056628
101,4134827151,55.808434,2.8040085,-7.951784,0.89559364,-0.19968748,-0.06814754,-5.114574,-11.252283,1.323842,2.388274,-2.513428,-2.01063,-64.2036,-15.317585,-1.034564
102,4134843818,56.279472,2.871109,-6.9827385,0.7560034,-0.10117245,0.04330504,-7.5428996,-16.761126,4.866061,2.400874,-2.515114,-2.009908,-64.329315,-15.596937,-0.953463
103,4134860485,55.62226,2.9569168,-7.434985,0.72725105,-0.09306717,0.030670762,-8.181837,-19.290089,6.0623055,2.412995,-2.516665,-2.009397,-64.465679,-15.918438,-0.852425
104,4134877152,54.77073,3.080101,-8.214975,0.7861481,-0.16543484,-0.022310495,-10.580772,-19.518063,4.697422,2.426097,-2.519422,-2.009769,-64.642025,-16.243739,-0.774135
105,4134893819,53.295113,3.2427063,-9.880276,0.9857769,-0.3620243,-0.16789389,-14.019297,-16.02075,-0.5096179,2.442527,-2.525456,-2.012567,-64.87568,-16.510752,-0.782629
106,4134910486,52.041435,3.41568,-11.042636,1.0641823,-0.44787908,-0.25178838,-16.632147,-15.739223,-1.5926785,2.460263,-2.532921,-2.016763,-65.152882,-16.773072,-0.809174
107,4134927153,51.106865,3.6020584,-11.574635,1.0167294,-0.41947913,-0.26450038,-18.751522,-18.804354,1.5376115,2.477208,-2.539912,-2.021171,-65.465407,-17.086478,-0.783547
108,4134943820,49.709343,3.8189774,-12.62548,1.0172911,-0.42904162,-0.32634473,-20.676956,-20.59833,3.9125473,2.494163,-2.547063,-2.02661,-65.810023,-17.429783,-0.718338
109,4134960487,48.041557,4.061882,-13.876704,1.0100212,-0.42628026,-0.40337968,-22.071962,-22.603548,7.249113,2.510997,-2.554168,-2.033333,-66.177889,-17.806509,-0.597519
110,4134977154,46.33915,4.2513657,-15.313603,0.9874172,-0.39193034,-0.3359537,-21.91354,-24.910875,9.507187,2.527454,-2.5607,-2.038932,-66.543115,-18.22169,-0.439066
111,4134993821,44.521126,4.381584,-17.069796,0.9654579,-0.3378992,-0.12161505,-20.003855,-27.084753,10.0652485,2.543545,-2.566332,-2.040959,-66.876513,-18.673103,-0.271312
112,4135010488,42.605476,4.4874573,-18.926598,0.90752125,-0.23657012,0.18859434,-16.54155,-30.148981,11.153537,2.55867,-2.570275,-2.037816,-67.152205,-19.175586,-0.08542
113,4135027155,40.622856,4.5467606,-20.918928,0.81427765,-0.08417058,0.6372,-11.131569,-34.054226,12.153385,2.572241,-2.571678,-2.027196,-67.337731,-19.743156,0.117136
114,4135043822,38.252937,4.612137,-23.320591,0.73584366,0.06849766,1.1028965,-4.53943,-37.536015,12.953956,2.584505,-2.570536,-2.008814,-67.413388,-20.368756,0.333035
115,4135060489,35.48153,4.685875,-26.12444,0.6682148,0.22556281,1.5832348,3.3347158,-40.703457,13.788515,2.595642,-2.566777,-1.982427,-67.357809,-21.047147,0.562844
116,4135077156,32.48079,4.7218246,-29.236572,0.58657074,0.4167235,2.17669,13.308172,-44.153656,14.200497,2.605418,-2.559832,-1.946149,-67.136006,-21.783041,0.799519
117,4135093823,29.171783,4.730301,-32.721725,0.50017166,0.63330173,2.8599029,25.325277,-47.65306,14.216368,2.613754,-2.549277,-1.898484,-66.713918,-22.577259,1.036458
118,4135110490,27.244934,4.811264,-34.589314,0.49979877,0.7400379,3.0813055,29.033081,-45.968685,12.00365,2.622084,-2.536943,-1.847129,-66.230033,-23.343404,1.236519
119,4135127157,26.876877,4.968033,-34.644672,0.5929289,0.7265868,2.7983336,23.56822,-38.601334,7.2713776,2.631966,-2.524833,-1.80049,-65.837229,-23.98676,1.357709
120,4135143824,27.209137,5.1595764,-33.877483,0.7434521,0.6512172,2.2555277,13.83964,-27.834831,0.885715,2.644357,-2.513979,-1.762898,-65.606568,-24.450674,1.372471
121,4135160491,28.72499,5.4121017,-31.722752,0.97783184,0.47565627,1.2978635,-3.0487852,-12.139727,-7.743355,2.660654,-2.506051,-1.741267,-65.657381,-24.653003,1.243415
122,4135177158,30.48507,5.6547165,-29.305271,1.2352104,0.28870606,0.27101827,-20.77894,5.2727547,-17.604311,2.681241,-2.501239,-1.73675,-66.003697,-24.565124,0.95001
123,4135193825,32.435394,5.88369,-26.687473,1.5146255,0.09356141,-0.8111491,-39.013847,24.326183,-28.699762,2.706485,-2.49968,-1.750269,-66.653928,-24.159688,0.471681
124,4135210492,35.478615,6.1569138,-22.802013,1.8710117,-0.18867421,-2.260576,-63.48068,48.03792,-42.10796,2.737669,-2.502825,-1.787945,-67.711939,-23.359056,-0.230118
125,4135227159,39.435364,6.4595184,-17.864418,2.2936068,-0.5411303,-4.0115547,-92.93623,75.843796,-57.684544,2.775896,-2.511844,-1.854804,-69.260876,-22.094993,-1.191527
126,4135243826,42.40982,6.6217346,-13.851814,2.4956136,-0.7976699,-4.847457,-109.55999,91.531845,-65.81039,2.81749,-2.525138,-1.935595,-71.086876,-20.569462,-2.288367
127,4135260493,44.355423,6.6337204,-10.793861,2.4567518,-0.9535718,-4.6925116,-112.40093,93.95513,-65.71587,2.858436,-2.541031,-2.013804,-72.960225,-19.003543,-3.383632
128,4135277160,46.07052,6.5652924,-7.8739777,2.3063302,-1.0777352,-4.081662,-109.112144,90.45732,-61.884293,2.896875,-2.558993,-2.081832,-74.778761,-17.495921,-4.415037
129,4135293827,47.07023,6.369652,-5.5899925,1.9650869,-1.1271424,-2.6821845,-94.87896,76.56292,-51.631096,2.929626,-2.577779,-2.126535,-76.360077,-16.219872,-5.275555
130,4135310494,48.712044,6.15963,-2.4889555,1.6152697,-1.2210839,-1.2856648,-81.57962,62.54326,-40.862816,2.956547,-2.59813,-2.147963,-77.719737,-15.177484,-5.956602
131,4135327161,51.081093,5.939293,1.5226412,1.2657995,-1.36643,0.06948984,-69.7956,48.911945,-29.879536,2.977644,-2.620904,-2.146805,-78.882997,-14.362285,-6.454594
132,4135343828,53.093513,5.61055,5.3071985,0.7554865,-1.4671694,2.0716722,-49.38233,26.582247,-13.345465,2.990235,-2.645357,-2.112277,-79.706036,-13.919248,-6.677018
133,4135360495,55.045128,5.1951065,9.185948,0.12034035,-1.5488486,4.562914,-22.740427,-2.4105704,7.5827885,2.992241,-2.671171,-2.036228,-80.085043,-13.959424,-6.550638
134,4135377162,56.30358,4.93454,11.781045,-0.26489353,-1.5749643,5.9875116,-5.7655835,-20.334244,20.634874,2.987826,-2.69742,-1.936436,-80.181136,-14.298328,-6.206723
135,4135393829,56.67211,4.8387146,12.818803,-0.38595104,-1.5296913,6.286729,1.3580797,-26.730125,25.372263,2.981393,-2.722915,-1.831657,-80.158501,-14.74383,-5.783852
136,4135410496,56.64727,4.8065414,13.167235,-0.39788342,-1.4470202,6.0970736,4.638901,-28.745647,26.904528,2.974762,-2.747032,-1.730039,-80.081186,-15.222924,-5.335443
137,4135427163,56.004005,4.902054,12.387561,-0.2016573,-1.3123522,5.006555,0.017403126,-21.783222,22.009573,2.971401,-2.768905,-1.646596,-80.080896,-15.585978,-4.968617
138,4135443830,54.82905,4.95739,10.9872675,-0.05889225,-1.1214473,4.104664,-0.51853657,-18.640673,19.285091,2.970419,-2.787596,-1.578185,-80.089538,-15.896656,-4.647199
139,4135460497,53.13331,4.9638824,8.999438,0.017094612,-0.8743572,3.4445586,3.6280413,-19.998583,19.192656,2.970704,-2.802169,-1.520776,-80.029071,-16.229966,-4.327321
140,4135477164,50.652687,5.0606537,5.757327,0.2423954,-0.5582335,2.125677,3.034801,-15.551169,14.675514,2.974744,-2.811473,-1.485348,-79.978491,-16.489152,-4.082729
141,4135493831,47.38021,5.2128983,1.3334608,0.56277084,-0.16992188,0.37254763,0.2510395,-8.007111,7.53601,2.984124,-2.814305,-1.479139,-79.974307,-16.622604,-3.957129
142,4135510498,45.151367,5.2590256,-1.4982901,0.7574539,0.086135864,-0.6440809,-0.536252,-4.3726435,4.0744705,2.996748,-2.812869,-1.489874,-79.983245,-16.695481,-3.889221
143,4135527165,44.077484,5.2012024,-2.5967064,0.83283806,0.19429898,-0.9260192,-0.05987549,-4.0518885,4.0074844,3.010629,-2.809631,-1.505308,-79.984243,-16.763012,-3.82243
144,4135543832,43.257683,5.0932083,-3.2630386,0.85811424,0.2555163,-0.88099146,1.4183433,-5.5386105,5.540663,3.024931,-2.805372,-1.519991,-79.960604,-16.855322,-3.730086
145,4135560499,43.17765,4.8948135,-2.7686243,0.779583,0.21401,-0.21299875,4.7462187,-10.4294195,10.179303,3.037924,-2.801805,-1.523541,-79.8815,-17.029146,-3.560431
146,4135577166,42.675224,4.736801,-2.9356813,0.7830601,0.19388461,0.15786207,5.033801,-11.966347,12.40762,3.050975,-2.798574,-1.52091,-79.797603,-17.228585,-3.353637
147,4135593833,41.65998,4.624916,-3.895009,0.87676525,0.20372248,0.1911565,2.1540842,-9.91412,11.999602,3.065588,-2.795179,-1.517724,-79.761702,-17.39382,-3.153644
148,4135610500,41.12326,4.460144,-4.120427,0.92352486,0.13317275,0.5968337,-0.81443167,-8.928953,12.944684,3.08098,-2.792959,-1.507777,-79.775276,-17.542636,-2.937899
149,4135627167,40.811638,4.2704544,-4.0074863,0.963603,0.008046865,1.1802211,-4.9610896,-7.532177,14.045368,3.09704,-2.792825,-1.488107,-79.857961,-17.668172,-2.70381
150,4135643834,40.317932,4.1160126,-4.251849,1.0036507,-0.043123484,1.4889283,-7.277312,-6.3278103,14.30978,3.113768,-2.793544,-1.463292,-79.97925,-17.773636,-2.465314
151,4135660501,39.72985,3.991455,-4.728284,1.0291882,-0.022971869,1.5628101,-7.216309,-5.8310337,14.062435,3.130921,-2.793927,-1.437245,-80.099522,-17.87082,-2.23094
152,4135677168,39.07103,3.8876572,-5.372773,1.0652847,0.023963451,1.4834828,-7.017798,-4.683419,12.919516,3.148676,-2.793528,-1.41252,-80.216485,-17.948877,-2.015615
153,4135693835,38.26793,3.818779,-6.3208,1.1099863,0.1288681,1.1461208,-5.805959,-3.140517,10.693056,3.167176,-2.79138,-1.393418,-80.313251,-18.001219,-1.837397
154,4135710502,37.805412,3.7243958,-6.783759,1.1244001,0.1880343,0.9991547,-4.5688453,-2.0206845,8.96605,3.185916,-2.788246,-1.376765,-80.389398,-18.034897,-1.687963
155,4135727169,37.702133,3.6035538,-6.7340145,1.1097813,0.19594908,1.0537022,-3.5122619,-1.1962447,7.7014046,3.204412,-2.78498,-1.359203,-80.447936,-18.054834,-1.559606
156,4135743836,37.66735,3.4984055,-6.662239,1.0828848,0.22989416,0.9995573,-1.3881269,-0.48159933,5.951679,3.22246,-2.781148,-1.342544,-80.471071,-18.062861,-1.460411
157,4135760503,37.8145,3.3963928,-6.3880186,1.0351439,0.26699948,0.9321991,1.5775561,-0.026323318,4.033949,3.239712,-2.776698,-1.327007,-80.444778,-18.0633,-1.393179
158,4135777170,37.788155,3.301735,-6.326168,1.0111942,0.29207516,0.8949697,3.2931283,0.2981,2.7395465,3.256565,-2.77183,-1.312091,-80.389893,-18.058332,-1.34752
159,4135793837,37.535675,3.2194824,-6.552969,1.0155058,0.31195617,0.8602106,3.7553082,0.4775679,2.0630782,3.27349,-2.766631,-1.297754,-80.327305,-18.050373,-1.313135
160,4135810504,37.3152,3.1391678,-6.732566,1.0200319,0.31748843,0.8750472,3.8208394,0.3313923,1.8562372,3.290491,-2.76134,-1.28317,-80.263624,-18.04485,-1.282198
161,4135827171,37.02868,3.0631866,-6.98205,1.0365734,0.30631185,0.9451153,2.9784374,-0.13786936,2.337423,3.307767,-2.756235,-1.267418,-80.213983,-18.047148,-1.243241
162,4135843838,36.81971,3.0008621,-7.1728687,1.04354,0.30621862,0.9636562,2.7282925,-0.9135045,2.770302,3.325159,-2.751131,-1.251357,-80.168511,-18.062373,-1.197069
163,4135860505,36.71718,2.951805,-7.2677965,1.0377731,0.31646776,0.93485266,3.1735873,-2.0437088,3.161761,3.342455,-2.745857,-1.235776,-80.115618,-18.096435,-1.144373
164,4135877172,36.568657,2.9138718,-7.427512,1.0397129,0.3213706,0.91647804,3.1498697,-3.5613823,4.0831366,3.359784,-2.740501,-1.220501,-80.06312,-18.155791,-1.076321
165,4135893839,36.410713,2.8893738,-7.616623,1.0441437,0.3265829,0.887153,2.993768,-5.49259,5.4004955,3.377186,-2.735058,-1.205715,-80.013224,-18.247334,-0.986313
166,4135910506,36.25209,2.8674774,-7.7898965,1.0486174,0.33360028,0.8766492,3.045761,-6.6677036,5.8434114,3.394663,-2.729498,-1.191104,-79.962461,-18.358462,-0.888923
167,4135927173,36.073067,2.8477554,-7.9658885,1.0555038,0.34136343,0.89224917,3.2107291,-6.992649,5.365443,3.412255,-2.723809,-1.176233,-79.908949,-18.475006,-0.799499
168,4135943840,35.895294,2.8375092,-8.1409855,1.0622759,0.3532822,0.9045552,3.5691204,-7.057457,4.489191,3.42996,-2.717921,-1.161157,-79.849464,-18.59263,-0.724679
169,4135960507,35.713882,2.8343124,-8.311071,1.0690985,0.36978197,0.9220692,4.1860356,-6.5420465,2.879145,3.447778,-2.711758,-1.145789,-79.779697,-18.701664,-0.676693
170,4135977174,35.493645,2.8443222,-8.531103,1.0817337,0.38542914,0.94528794,4.587907,-6.1737947,1.4512463,3.465807,-2.705334,-1.130034,-79.703232,-18.804561,-0.652506
171,4135993841,35.233315,2.8688278,-8.804226,1.1002665,0.40081573,0.9711937,4.781327,-6.0063353,0.2529981,3.484145,-2.698654,-1.113847,-79.623543,-18.904667,-0.648289
172,4136010508,34.943146,2.903122,-9.103024,1.1222782,0.41924977,1.0064807,5.055386,-5.4000216,-1.4615431,3.50285,-2.691667,-1.097072,-79.539287,-18.994667,-0.672648
173,4136027175,34.613373,2.949051,-9.4417095,1.1491957,0.43990278,1.0506476,5.3136487,-4.509079,-3.5003624,3.522003,-2.684335,-1.079561,-79.450726,-19.069818,-0.730987
174,4136043842,34.400322,2.9990997,-9.669693,1.163311,0.4465394,1.0777693,5.556191,-4.0266185,-4.798628,3.541392,-2.676893,-1.061598,-79.358123,-19.136928,-0.810964
175,4136060509,34.31736,3.0522919,-9.772031,1.16294,0.43797183,1.0866318,5.809482,-3.9348392,-5.34445,3.560774,-2.669593,-1.043487,-79.261298,-19.202509,-0.900038
176,4136077176,34.281456,3.1138382,-9.832048,1.1576605,0.42142034,1.0891566,6.0053563,-4.0058327,-5.512465,3.580068,-2.662569,-1.025334,-79.161209,-19.269273,-0.991912
177,4136093843,34.33513,3.181694,-9.808176,1.1425905,0.39235497,1.0785773,6.1474786,-4.407663,-5.026684,3.599111,-2.65603,-1.007358,-79.058751,-19.342734,-1.07569
178,4136110510,34.38788,3.25988,-9.783545,1.1275558,0.36148882,1.0704699,6.3194523,-4.573662,-4.6984415,3.617904,-2.650005,-0.989517,-78.953427,-19.418962,-1.153997
179,4136127177,34.431923,3.3490295,-9.765707,1.1133957,0.329314,1.0658696,6.514055,-4.4765525,-4.55847,3.636461,-2.644516,-0.971753,-78.844859,-19.493571,-1.229971
180,4136143844,34.548897,3.4455109,-9.67732,1.0909834,0.28644967,1.051228,6.691763,-4.5374875,-3.963265,3.654644,-2.639742,-0.954233,-78.73333,-19.569196,-1.296025
181,4136160511,34.719284,3.550354,-9.536156,1.0623903,0.2350092,1.0298029,6.8680286,-4.632906,-3.0791924,3.672351,-2.635825,-0.93707,-78.618863,-19.646411,-1.347345
182,4136177178,34.807457,3.6411285,-9.474289,1.0443144,0.2011087,1.0196253,6.8749695,-4.6384897,-2.6204422,3.689756,-2.632473,-0.920076,-78.50428,-19.723719,-1.391019
183,4136193845,34.81086,3.7151184,-9.494089,1.0371351,0.18602967,1.020653,6.69269,-4.587949,-2.57617,3.707042,-2.629373,-0.903065,-78.392735,-19.800185,-1.433955
184,4136210512,34.78073,3.7835846,-9.544635,1.0342798,0.17875218,1.0264635,6.4103756,-4.45255,-2.7176356,3.72428,-2.626394,-0.885957,-78.285895,-19.874394,-1.479249
185,4136227179,34.68187,3.8398743,-9.659933,1.0400791,0.18630147,1.0415834,5.9794407,-4.2079754,-3.2232614,3.741615,-2.623289,-0.868597,-78.186238,-19.944527,-1.53297
186,4136243846,34.61316,3.896202,-9.744106,1.042532,0.19097972,1.0520239,5.481536,-4.031757,-3.5038319,3.758991,-2.620106,-0.851063,-78.094879,-20.011723,-1.591367
187,4136260513,34.578964,3.9530563,-9.792496,1.0410471,0.19193673,1.057122,4.9214773,-3.9217834,-3.5357444,3.776342,-2.616907,-0.833444,-78.012854,-20.077086,-1.650296
188,4136277180,34.499718,3.9982452,-9.881976,1.0453033,0.20414829,1.0676672,4.21451,-3.7696176,-3.763682,3.793764,-2.613505,-0.81565,-77.942612,-20.139913,-1.713024
189,4136293847,34.395874,4.0339127,-9.992449,1.0527945,0.22402453,1.0806735,3.3753438,-3.6116152,-4.062749,3.811311,-2.609771,-0.797639,-77.886356,-20.200107,-1.780736
190,4136310514,34.32965,4.0875397,-10.054949,1.0542545,0.2310791,1.0898325,2.8178227,-3.5176935,-4.267243,3.828882,-2.60592,-0.779475,-77.839392,-20.258735,-1.851857
191,4136327181,34.29695,4.159767,-10.072278,1.0499907,0.22532082,1.0957901,2.569361,-3.4852438,-4.412627,3.846382,-2.602165,-0.761212,-77.796569,-20.316822,-1.925401
192,4136343848,34.28167,4.238579,-10.063684,1.042717,0.21417809,1.0994807,2.4423,-3.5074186,-4.491978,3.863761,-2.598595,-0.742887,-77.755864,-20.375279,-2.000267
193,4136360515,34.298233,4.330948,-10.012465,1.0301723,0.19250393,1.0994607,2.5498166,-3.6033251,-4.4725447,3.880931,-2.595387,-0.724563,-77.713367,-20.435334,-2.074809
194,4136377182,34.28904,4.4171906,-9.978905,1.0202799,0.17627597,1.1021757,2.6283247,-3.701911,-4.5675545,3.897936,-2.592449,-0.706193,-77.669562,-20.497033,-2.150935
195,4136393849,34.251686,4.4959106,-9.965218,1.013341,0.16628814,1.1077582,2.6638198,-3.8047173,-4.779962,3.914825,-2.589678,-0.68773,-77.625165,-20.560445,-2.230601
196,4136410516,34.226494,4.5826416,-9.927403,1.0035143,0.1502502,1.1118009,2.8873148,-3.9652922,-4.978422,3.93155,-2.587174,-0.6692,-77.577043,-20.626533,-2.313575
197,4136427183,34.200737,4.6729736,-9.878351,0.9924879,0.13159847,1.1156688,3.2458096,-4.1709585,-5.2094536,3.948091,-2.584981,-0.650606,-77.522946,-20.696049,-2.400399
198,4136443850,34.167427,4.7572937,-9.862731,0.9832697,0.11557174,1.1211748,3.4988391,-4.315812,-5.264142,3.964479,-2.583055,-0.63192,-77.464632,-20.767979,-2.488135
199,4136460517,34.12976,4.83638,-9.880243,0.9755058,0.10125446,1.1280531,3.655634,-4.3968267,-5.1107793,3.980737,-2.581367,-0.613119,-77.403705,-20.841259,-2.573315
200,4136477184,34.081764,4.911621,-9.918938,0.9689541,0.08854079,1.1364182,3.7979772,-4.4568543,-4.882161,3.996886,-2.579891,-0.594179,-77.340405,-20.91554,-2.654684
201,4136493851,34.022087,4.980713,-9.990546,0.96431065,0.07852578,1.146702,3.8696065,-4.4682646,-4.5173626,4.012958,-2.578582,-0.575067,-77.275912,-20.990011,-2.729973
202,4136510518,33.9646,5.0529633,-10.057976,0.9583187,0.0650239,1.1566906,4.0743165,-4.5098877,-4.1030574,4.02893,-2.577498,-0.555789,-77.208007,-21.065176,-2.798357
203,4136527185,33.9084,5.1284256,-10.120729,0.9509535,0.047950983,1.166422,4.4243793,-4.585969,-3.6492414,4.044779,-2.576699,-0.536349,-77.134267,-21.141609,-2.859178
204,4136543852,33.84529,5.20047,-10.2077875,0.94443417,0.031263113,1.1773901,4.7736015,-4.6336136,-3.0586596,4.06052,-2.576178,-0.516726,-77.054707,-21.218836,-2.910156
205,4136560519,33.77774,5.270935,-10.311977,0.9380903,0.013633013,1.1891687,5.168559,-4.669629,-2.3485312,4.076155,-2.575951,-0.496907,-76.968564,-21.296663,-2.949298
206,4136577186,33.695335,5.3312836,-10.415348,0.93476486,0.0035831928,1.1986942,5.4131603,-4.687155,-1.8460616,4.091734,-2.575891,-0.476929,-76.878345,-21.374782,-2.980066
207,4136593853,33.59606,5.3798065,-10.520075,0.9349899,0.0023403168,1.20583,5.4733086,-4.6776075,-1.5679078,4.107317,-2.575852,-0.456832,-76.787123,-21.452742,-3.006198
208,4136610520,33.486305,5.421715,-10.630344,0.936985,0.004947901,1.2117383,5.475526,-4.655321,-1.3689805,4.122933,-2.57577,-0.436636,-76.695864,-21.530331,-3.029014
209,4136627187,33.36274,5.454262,-10.742458,0.9416361,0.013927698,1.2155814,5.3604827,-4.615721,-1.3364959,4.138627,-2.575538,-0.416376,-76.606523,-21.60726,-3.051289
210,4136643854,33.228424,5.480423,-10.875548,0.9479475,0.025431871,1.2195818,5.207039,-4.5461493,-1.2555224,4.154426,-2.575114,-0.39605,-76.519739,-21.683029,-3.072214
211,4136660521,33.083458,5.500305,-11.03075,0.9558468,0.03916669,1.2238107,5.023423,-4.446322,-1.1137137,4.170357,-2.574461,-0.375653,-76.436015,-21.757134,-3.090776
212,4136677188,32.923195,5.509804,-11.195898,0.9666605,0.059339285,1.2264109,4.716525,-4.3173523,-1.0937091,4.186468,-2.573472,-0.355213,-76.357406,-21.82909,-3.109004
213,4136693855,32.747932,5.5092926,-11.375589,0.98024654,0.085250616,1.2278173,4.300863,-4.15543,-1.1509397,4.202805,-2.572051,-0.334749,-76.285725,-21.898347,-3.128186
214,4136710522,32.611366,5.5220184,-11.514512,0.98816395,0.099062204,1.2307007,4.0580797,-4.006121,-1.1771789,4.219274,-2.5704,-0.314237,-76.21809,-21.965116,-3.147806
215,4136727189,32.517868,5.5494614,-11.6062355,0.98983,0.09970689,1.2350664,3.9996858,-3.8722415,-1.1865731,4.235771,-2.568738,-0.293653,-76.151429,-22.029653,-3.167582
216,4136743856,32.442062,5.580551,-11.680355,0.9891987,0.09526229,1.2399137,3.9990585,-3.728252,-1.2022285,4.252258,-2.56715,-0.272988,-76.084778,-22.091791,-3.187619
217,4136760523,32.398926,5.621559,-11.72093,0.9839716,0.080910206,1.2459126,4.129464,-3.5857468,-1.2021582,4.268658,-2.565801,-0.252223,-76.015954,-22.151553,-3.207655
218,4136777190,32.35592,5.657631,-11.757257,0.97944164,0.06816912,1.2509799,4.201392,-3.4170961,-1.298508,4.284982,-2.564665,-0.231373,-75.945931,-22.208505,-3.229297
219,4136793857,32.311302,5.6877747,-11.791275,0.97592354,0.057694435,1.2550027,4.202104,-3.2190278,-1.4974186,4.301247,-2.563703,-0.210456,-75.875896,-22.262155,-3.254254
220,4136810524,32.294624,5.724762,-11.794071,0.9687681,0.039546013,1.2595785,4.288084,-3.0146155,-1.7272927,4.317393,-2.563044,-0.189463,-75.804428,-22.312399,-3.283042
221,4136827191,32.2995,5.765465,-11.771265,0.95905495,0.01608634,1.2642534,4.4183407,-2.7971454,-2.014735,4.333377,-2.562776,-0.168392,-75.730789,-22.359018,-3.316621
222,4136843858,32.302956,5.8004837,-11.7531185,0.95366,0.0015120506,1.2675415,4.463275,-2.5647511,-2.2364378,4.349271,-2.562751,-0.147266,-75.656401,-22.401764,-3.353895
223,4136860525,32.307205,5.830574,-11.737925,0.95261765,-0.0041282177,1.2694747,4.4295135,-2.319739,-2.3750648,4.365148,-2.56282,-0.126108,-75.582576,-22.440426,-3.393479
224,4136877192,32.31951,5.8582153,-11.714251,0.9533529,-0.0060493946,1.2704327,4.3504868,-2.0579538,-2.5096786,4.381037,-2.562921,-0.104934,-75.510068,-22.474725,-3.435307
225,4136893859,32.335136,5.8812943,-11.6887,0.95760155,-0.0006661415,1.2700346,4.195147,-1.77945,-2.6051364,4.396997,-2.562932,-0.083767,-75.440149,-22.504383,-3.478726
226,4136910526,32.375908,5.9086,-11.635292,0.960124,0.001124382,1.269535,4.0779095,-1.4900072,-2.7176063,4.412999,-2.562913,-0.062608,-75.372184,-22.529216,-3.524019
227,4136927193,32.443512,5.9405823,-11.551831,0.9606495,-0.0012156963,1.2689538,4.002533,-1.1891913,-2.854225,4.42901,-2.562933,-0.041459,-75.305475,-22.549036,-3.571589
228,4136943860,32.523773,5.9712296,-11.456064,0.9632473,0.00077056885,1.2673297,3.8860726,-0.87421024,-2.9565332,4.445064,-2.56292,-0.020337,-75.240707,-22.563606,-3.620865
229,4136960527,32.622116,6.0025406,-11.341578,0.96679497,0.0047528744,1.26491,3.752827,-0.5461544,-3.0367358,4.461177,-2.562841,0.000745,-75.17816,-22.572709,-3.671477
230,4136977194,32.723785,6.0326233,-11.220503,0.9669657,0.0033364296,1.2604806,3.6562579,-0.31477165,-3.093295,4.477293,-2.562785,0.021753,-75.117222,-22.577955,-3.723032
231,4136993861,32.82641,6.0607758,-11.095313,0.96380615,-0.0032191277,1.2537892,3.5926142,-0.19117653,-3.11693,4.493356,-2.562839,0.042649,-75.057345,-22.581141,-3.774981
232,4137010528,32.9414,6.089386,-10.955102,0.95857143,-0.01302886,1.2455529,3.5536675,-0.12484169,-3.1154003,4.509332,-2.563056,0.063408,-74.998117,-22.583222,-3.826904
233,4137027195,33.064667,6.117859,-10.80327,0.9501505,-0.027933598,1.2353725,3.552558,-0.14776647,-3.0843413,4.525168,-2.563522,0.083998,-74.938908,-22.585685,-3.87831
234,4137043862,33.20227,6.14592,-10.636093,0.94207287,-0.041486263,1.2236547,3.5366864,-0.19619429,-3.0095968,4.540869,-2.564213,0.104392,-74.879963,-22.588955,-3.92847
235,4137060529,33.35559,6.1738358,-10.452175,0.93442154,-0.053533792,1.2104034,3.505651,-0.26813996,-2.8889713,4.556443,-2.565105,0.124565,-74.821535,-22.593424,-3.97662
236,4137077196,33.518326,6.201233,-10.256065,0.9244633,-0.068873644,1.1950263,3.497161,-0.4248669,-2.7234612,4.571851,-2.566253,0.144482,-74.763249,-22.600505,-4.022011
237,4137093863,33.692116,6.228157,-10.046549,0.9129076,-0.08618784,1.1775602,3.5007067,-0.6551231,-2.5077415,4.587066,-2.567689,0.164108,-74.704904,-22.611424,-4.063807
238,4137110530,33.821663,6.252571,-9.885839,0.9053726,-0.098024845,1.1661785,3.5027828,-0.83414674,-2.3277514,4.602156,-2.569323,0.183544,-74.646524,-22.625326,-4.102603
239,4137127197,33.90046,6.274185,-9.780863,0.9020767,-0.10420561,1.1615772,3.5065732,-0.9597862,-2.1894789,4.617191,-2.57106,0.202904,-74.588081,-22.641322,-4.139094
240,4137143864,33.955627,6.293968,-9.70153,0.9008312,-0.107354164,1.1598961,3.5116272,-1.0857549,-2.0464149,4.632205,-2.572849,0.222236,-74.529554,-22.659418,-4.173201
241,4137160531,33.970818,6.3112793,-9.666105,0.9031439,-0.105484486,1.1634312,3.515438,-1.1808121,-1.9210682,4.647257,-2.574607,0.241627,-74.470963,-22.679098,-4.205219
242,4137177198,33.97673,6.3273163,-9.63949,0.9050045,-0.104216814,1.1672673,3.5368462,-1.3363829,-1.7606863,4.66234,-2.576344,0.261081,-74.412016,-22.701371,-4.234564
243,4137193865,33.974495,6.342087,-9.620359,0.90625477,-0.103725195,1.1711566,3.5763807,-1.5590405,-1.5598955,4.677444,-2.578073,0.2806,-74.35241,-22.727355,-4.260562
244,4137210532,33.93371,6.354393,-9.643008,0.91022587,-0.09945631,1.1796019,3.622911,-1.7775731,-1.3636049,4.692614,-2.579731,0.30026,-74.292028,-22.756981,-4.283289
245,4137227199,33.85975,6.3644104,-9.7012,0.91611385,-0.09252691,1.1916513,3.6807675,-2.0126283,-1.159598,4.707883,-2.581273,0.320121,-74.230682,-22.790525,-4.302616
246,4137243866,33.816124,6.3742294,-9.727436,0.9195299,-0.08836961,1.1988435,3.7301621,-2.1780336,-0.98768127,4.723208,-2.582746,0.340102,-74.168513,-22.826826,-4.319077
247,4137260533,33.8039,6.3838425,-9.7207775,0.9204912,-0.0869112,1.201017,3.7684276,-2.2570057,-0.8573444,4.73855,-2.584195,0.360119,-74.105706,-22.864443,-4.333366
248,4137277200,33.795555,6.3923187,-9.710228,0.92057323,-0.08627868,1.2016273,3.8082855,-2.3045933,-0.7413554,4.753893,-2.585633,0.380146,-74.042235,-22.902853,-4.345722
249,4137293867,33.8069,6.4001465,-9.679003,0.9186754,-0.087813854,1.1985185,3.8441684,-2.2936494,-0.6529368,4.769204,-2.587097,0.400121,-73.978166,-22.94108,-4.356604
250,4137310534,33.79177,6.405739,-9.67683,0.9182739,-0.08707285,1.1978781,3.8849835,-2.256625,-0.5795442,4.784509,-2.588548,0.420086,-73.913416,-22.97869,-4.366263
251,4137327201,33.74672,6.4089584,-9.707354,0.9195442,-0.08383417,1.2000759,3.9319215,-2.1960592,-0.5202193,4.799835,-2.589945,0.440087,-73.847884,-23.015291,-4.374933
252,4137343868,33.707794,6.4109497,-9.732088,0.9198332,-0.08142805,1.2002174,3.9757578,-2.0704253,-0.4938507,4.815166,-2.591302,0.460091,-73.781621,-23.049798,-4.383164
253,4137360535,33.664528,6.411331,-9.762342,0.9198961,-0.078884125,1.1996479,4.018467,-1.8847584,-0.49892223,4.830498,-2.592617,0.480085,-73.714647,-23.081211,-4.391479
254,4137377202,33.634224,6.4116592,-9.7784195,0.92122936,-0.076848745,1.1992593,4.046285,-1.7480235,-0.49163377,4.845852,-2.593898,0.500073,-73.647209,-23.110345,-4.399673
255,4137393869,33.622612,6.412163,-9.774106,0.92367935,-0.075760365,1.1985536,4.056387,-1.6627669,-0.47187126,4.861247,-2.595161,0.520049,-73.579603,-23.138058,-4.407538
256,4137410536,33.61412,6.41185,-9.766774,0.9270649,-0.074637175,1.1980295,4.0563827,-1.5784434,-0.46085143,4.876698,-2.596405,0.540016,-73.511997,-23.164365,-4.415219
257,4137427203,33.61477,6.4111404,-9.749659,0.9317341,-0.07376528,1.1977665,4.0416713,-1.5221243,-0.44832718,4.892227,-2.597634,0.559979,-73.444636,-23.189734,-4.422691
258,4137443870,33.62317,6.4094086,-9.725052,0.9361477,-0.07361698,1.196007,4.01782,-1.4173784,-0.46627247,4.907829,-2.598861,0.579912,-73.377672,-23.213357,-4.430462
259,4137460537,33.638474,6.4065857,-9.69392,0.9402914,-0.07414937,1.192733,3.984784,-1.2577057,-0.51808476,4.923501,-2.600097,0.599791,-73.311259,-23.234319,-4.439097
260,4137477204,33.667183,6.4033813,-9.648758,0.94522476,-0.07540989,1.188833,3.9352555,-1.1030746,-0.5800942,4.939255,-2.601354,0.619605,-73.245671,-23.252704,-4.448765
261,4137493871,33.70935,6.3996735,-9.589678,0.950634,-0.077525854,1.1838987,3.8698087,-0.9357387,-0.66030693,4.955099,-2.602646,0.639337,-73.181174,-23.2683,-4.45977
262,4137510538,33.754776,6.3977127,-9.527183,0.9521637,-0.079591036,1.1783047,3.849415,-0.81737304,-0.7352829,4.970968,-2.603973,0.658975,-73.117017,-23.281923,-4.472025
263,4137527205,33.80423,6.397888,-9.460356,0.9494858,-0.081596375,1.1721056,3.8786244,-0.7607409,-0.80068684,4.986793,-2.605333,0.67851,-73.052373,-23.294602,-4.48537
264,4137543872,33.863327,6.3990784,-9.383539,0.94441795,-0.08410597,1.1647811,3.9285576,-0.7239872,-0.8739145,5.002533,-2.606735,0.697923,-72.986897,-23.306668,-4.499935
265,4137560539,33.93022,6.4019775,-9.298582,0.9357214,-0.08692503,1.1563953,4.0159807,-0.7265811,-0.9480722,5.018128,-2.608184,0.717196,-72.919964,-23.318778,-4.515736
266,4137577206,34.013107,6.4055023,-9.196868,0.9261894,-0.09062624,1.1469111,4.1030617,-0.7466296,-1.0323101,5.033564,-2.609694,0.736311,-72.85158,-23.331222,-4.532941
267,4137593873,34.113388,6.4096375,-9.076933,0.9158945,-0.09531593,1.136218,4.1875706,-0.78182054,-1.1283226,5.048829,-2.611283,0.755248,-72.781787,-23.344252,-4.551746
268,4137610540,34.226067,6.4156265,-8.943945,0.90231705,-0.100580215,1.1243427,4.3031,-0.861092,-1.2256047,5.063868,-2.612959,0.773987,-72.710069,-23.358604,-4.572173
269,4137627207,34.353653,6.42334,-8.795269,0.8859663,-0.10658884,1.1112176,4.4419875,-0.9808532,-1.3262932,5.078634,-2.614735,0.792507,-72.636036,-23.374952,-4.594278
270,4137643874,34.418793,6.4267044,-8.713774,0.8784199,-0.108086824,1.1051586,4.5031514,-1.0905983,-1.329371,5.093274,-2.616536,0.810926,-72.560983,-23.393129,-4.616434
271,4137660541,34.413597,6.4253616,-8.707867,0.8804598,-0.104519606,1.1069853,4.4811444,-1.191098,-1.2227875,5.107948,-2.618278,0.829376,-72.486297,-23.412981,-4.636814
272,4137677208,34.376663,6.4221497,-8.736263,0.88691044,-0.09849715,1.1127167,4.418775,-1.305496,-1.0550363,5.12273,-2.61992,0.847921,-72.412651,-23.434739,-4.654398
273,4137693875,34.28586,6.415428,-8.822651,0.9009609,-0.08850598,1.1247422,4.288613,-1.4222703,-0.7959753,5.137746,-2.621395,0.866667,-72.341174,-23.458444,-4.667664
274,4137710542,34.185356,6.409172,-8.919655,0.915184,-0.07752037,1.1382113,4.1580133,-1.5797455,-0.5009326,5.152999,-2.622687,0.885637,-72.271874,-23.484773,-4.676013
275,4137727209,34.07756,6.403633,-9.024704,0.9292145,-0.06569052,1.1529075,4.030033,-1.781828,-0.17147207,5.168486,-2.623782,0.904852,-72.204707,-23.51447,-4.678871
276,4137743876,33.920555,6.395439,-9.182728,0.9495764,-0.050160646,1.1734163,3.8469079,-2.0008614,0.24807715,5.184312,-2.624618,0.924409,-72.140592,-23.547818,-4.674736
277,4137760543,33.722755,6.3854218,-9.384673,0.9747944,-0.03148794,1.1988342,3.6220827,-2.246456,0.74840593,5.200559,-2.625143,0.94439,-72.080224,-23.585259,-4.662263
278,4137777210,33.66381,6.378044,-9.430391,0.9896412,-0.021435022,1.2101734,3.4295623,-2.1793196,0.90142465,5.217053,-2.6255,0.96456,-72.023065,-23.621581,-4.647239
279,4137793877,33.75537,6.373291,-9.306614,0.9935236,-0.02073574,1.2062411,3.268556,-1.762425,0.673316,5.233612,-2.625846,0.984664,-71.968589,-23.650955,-4.636017
280,4137810544,33.91764,6.3696136,-9.102397,0.9927263,-0.024154186,1.1954864,3.1122642,-1.1621617,0.26108384,5.250157,-2.626249,1.004589,-71.916718,-23.670324,-4.631666
281,4137827211,34.199867,6.368164,-8.762735,0.98321533,-0.03489828,1.1727266,2.9788709,-0.2797295,-0.45488918,5.266544,-2.626831,1.024134,-71.86707,-23.674986,-4.639247
282,4137843878,34.48661,6.365471,-8.4157295,0.97560215,-0.045356035,1.1502514,2.809286,0.6956532,-1.2108675,5.282804,-2.627587,1.043305,-71.820249,-23.663392,-4.659428
283,4137860545,34.772194,6.361397,-8.067585,0.9704151,-0.055137157,1.1286874,2.6002386,1.7558506,-1.9941758,5.298978,-2.628506,1.062116,-71.776912,-23.634128,-4.692664
284,4137877212,35.157707,6.358635,-7.605736,0.9588661,-0.07085872,1.0973446,2.39617,3.0855067,-3.0431232,5.314959,-2.629687,1.080405,-71.736976,-23.582703,-4.743383
285,4137893879,35.62017,6.356453,-7.055566,0.94314384,-0.09098911,1.0586917,2.1840372,4.6504126,-4.306473,5.330678,-2.631203,1.09805,-71.700575,-23.505196,-4.815158
286,4137910546,36.057495,6.362549,-6.549363,0.935812,-0.103316784,1.0344203,2.1494434,5.7719374,-5.29805,5.346275,-2.632925,1.11529,-71.664751,-23.408997,-4.903459
287,4137927213,36.474144,6.3780518,-6.083906,0.9369669,-0.10755062,1.0251985,2.3163805,6.412177,-6.0049076,5.361891,-2.634718,1.132377,-71.626145,-23.302127,-5.003541
288,4137943880,36.904785,6.3988953,-5.611661,0.9420996,-0.108508825,1.0223186,2.5888538,6.8737297,-6.626958,5.377593,-2.636526,1.149416,-71.582997,-23.187565,-5.11399
289,4137960547,37.325813,6.427414,-5.1642027,0.95443153,-0.10302353,1.0314689,3.0221708,6.9740314,-7.0385513,5.3935,-2.638243,1.166607,-71.532627,-23.071331,-5.231299
290,4137977214,37.82512,6.4599457,-4.632963,0.9643383,-0.099978924,1.0371689,3.52112,7.160228,-7.588974,5.409572,-2.639909,1.183893,-71.473942,-22.951994,-5.357782
291,4137993881,38.408195,6.4963455,-4.011285,0.971406,-0.09982157,1.0386553,4.081599,7.457432,-8.29804,5.425762,-2.641573,1.201204,-71.405915,-22.827703,-5.496083
292,4138010548,39.01281,6.5406647,-3.3786392,0.98318577,-0.09540844,1.0485513,4.8021746,7.483903,-8.884887,5.442148,-2.643163,1.21868,-71.325879,-22.702971,-5.644164
293,4138027215,39.6593,6.5923004,-2.7103806,0.9976673,-0.08860779,1.0636368,5.6664667,7.331806,-9.42418,5.458776,-2.64464,1.236407,-71.231438,-22.580774,-5.801234
294,4138043882,40.476562,6.63842,-1.8797188,0.9974375,-0.099865675,1.0534117,6.405229,7.4789085,-10.032318,5.4754,-2.646304,1.253964,-71.124684,-22.456126,-5.968439
295,4138060549,41.472244,6.678482,-0.88154984,0.98165894,-0.13036704,1.016409,7.0088873,7.9209356,-10.685926,5.491761,-2.648477,1.270904,-71.007869,-22.32411,-6.146538
296,4138077216,42.601555,6.7183914,0.24304485,0.9571562,-0.17176557,0.9648425,7.5976863,8.490749,-11.380007,5.507714,-2.65134,1.286985,-70.881241,-22.182598,-6.336205
297,4138093883,43.901337,6.7547684,1.5294771,0.9191761,-0.22970438,0.8904219,8.102201,9.307076,-12.136826,5.523034,-2.655168,1.301825,-70.746204,-22.02748,-6.538485
298,4138110550,45.28412,6.796417,2.886756,0.8797312,-0.29055953,0.8140574,8.70899,9.990664,-12.816091,5.537696,-2.660011,1.315393,-70.601054,-21.860969,-6.752087
299,4138127217,46.749672,6.8439484,4.314414,0.83922386,-0.35385847,0.7365346,9.430975,10.5230665,-13.413581,5.551683,-2.665909,1.327669,-70.443871,-21.685585,-6.975647
300,4138143884,48.376106,6.8902283,5.89054,0.7874193,-0.43145156,0.64006853,10.1169,11.192651,-14.015187,5.564807,-2.6731,1.338337,-70.275256,-21.499041,-7.209233
301,4138160551,50.148445,6.9371567,7.5989923,0.7266464,-0.520725,0.5287658,10.807749,11.917568,-14.588983,5.576918,-2.681779,1.34715,-70.095127,-21.300415,-7.452383
302,4138177218,51.577995,6.9765625,8.971066,0.69238186,-0.5885794,0.44745994,11.215908,12.03299,-14.686857,5.588458,-2.691589,1.354608,-69.908195,-21.099865,-7.697164
303,4138193885,52.627876,7.006729,9.971208,0.68674755,-0.63342285,0.3981508,11.293278,11.50391,-14.268398,5.599904,-2.702146,1.361244,-69.719974,-20.908133,-7.934971
304,4138210552,53.520348,7.032776,10.810967,0.69446087,-0.6693189,0.36221492,11.202194,10.5848,-13.5179205,5.611478,-2.713301,1.367281,-69.533271,-20.73172,-8.16027
305,4138227219,54.11933,7.0520554,11.359509,0.72522354,-0.6873956,0.3516507,10.853071,9.091476,-12.30408,5.623565,-2.724758,1.373142,-69.352386,-20.580195,-8.365338
306,4138243886,54.73124,7.0674515,11.910991,0.7556553,-0.7101939,0.3355353,10.372593,7.478652,-10.902511,5.636159,-2.736595,1.378734,-69.179509,-20.455551,-8.547047
307,4138260553,55.370674,7.0790863,12.478816,0.7846937,-0.73884916,0.31239247,9.766067,5.7579145,-9.316555,5.649237,-2.748909,1.383941,-69.016741,-20.359586,-8.702323
308,4138277220,55.76365,7.083008,12.799409,0.83257866,-0.7543862,0.308115,8.88595,3.5359313,-7.2859564,5.663113,-2.761482,1.389076,-68.868642,-20.300654,-8.823756
309,4138293887,55.97004,7.0795517,12.929833,0.8946686,-0.76141953,0.31639767,7.7515287,0.8980055,-4.857173,5.678024,-2.774172,1.394349,-68.73945,-20.285687,-8.904709
310,4138310554,56.326424,7.082176,13.2298765,0.9318743,-0.77018905,0.3150456,7.0287967,-0.817811,-3.2141964,5.693555,-2.787008,1.3996,-68.622303,-20.299317,-8.958279
311,4138327221,56.82534,7.0913544,13.695743,0.9431553,-0.7791064,0.3053795,6.7561293,-1.5350289,-2.4324837,5.709274,-2.799993,1.40469,-68.509701,-20.324901,-8.99882
312,4138343888,57.34205,7.1006775,14.189841,0.9441376,-0.7861936,0.29394317,6.624501,-1.8348563,-1.9756868,5.72501,-2.813096,1.409589,-68.399293,-20.355482,-9.031748
313,4138360555,57.956703,7.1135483,14.799478,0.92465115,-0.79342914,0.2756424,6.811846,-1.3539307,-2.16616,5.740421,-2.82632,1.414183,-68.285762,-20.378048,-9.067851
314,4138377222,58.39544,7.120796,15.239947,0.9129658,-0.78962994,0.270478,6.8853693,-0.980827,-2.2374263,5.755637,-2.83948,1.418691,-68.171006,-20.394395,-9.105141
315,4138393889,58.640495,7.12162,15.492936,0.910532,-0.7741461,0.27950108,6.817015,-0.7594166,-2.1473389,5.770813,-2.852382,1.423349,-68.057389,-20.407052,-9.14093
316,4138410556,58.89225,7.1234055,15.771028,0.89453983,-0.7538829,0.28872085,6.9757237,0.072594166,-2.5604742,5.785722,-2.864947,1.428161,-67.941127,-20.405842,-9.183605
317,4138427223,59.08802,7.124031,16.009743,0.8709326,-0.7261319,0.30267715,7.270154,1.3359079,-3.3208513,5.800238,-2.877049,1.433206,-67.819958,-20.383577,-9.238953
318,4138443890,59.154762,7.1255417,16.06702,0.8605261,-0.7264552,0.30826867,7.5634003,1.6128292,-3.2501006,5.81458,-2.889157,1.438344,-67.693901,-20.356697,-9.293121
319,4138460557,59.104576,7.1289673,15.950303,0.8625145,-0.758878,0.30285692,7.8915615,0.8671582,-2.3226016,5.828955,-2.901805,1.443392,-67.562375,-20.342244,-9.331831
320,4138477224,58.924965,7.131859,15.678905,0.8710184,-0.8045368,0.29597318,8.261043,-0.3440653,-0.99671865,5.843472,-2.915214,1.448325,-67.424691,-20.347978,-9.348443
321,4138493891,58.598137,7.135002,15.216212,0.89109325,-0.8736453,0.28362525,8.650454,-2.3903966,1.0329657,5.858324,-2.929775,1.453052,-67.280517,-20.387818,-9.331227
322,4138510558,58.211525,7.138954,14.69325,0.9046812,-0.94713664,0.2700796,9.236936,-4.2428913,2.9047043,5.873402,-2.945561,1.457553,-67.126568,-20.458533,-9.282815
323,4138527225,57.761024,7.1435547,14.108378,0.91111946,-1.0237623,0.2560525,10.029982,-5.8516927,4.5764856,5.888587,-2.962624,1.461821,-66.959402,-20.556061,-9.20654
324,4138543892,57.186058,7.149353,13.362725,0.9236326,-1.1221824,0.23584294,10.930054,-8.047627,6.7397423,5.903981,-2.981327,1.465752,-66.777234,-20.690188,-9.094211
325,4138560559,56.501747,7.1565094,12.480268,0.9383688,-1.2387227,0.21028686,11.981066,-10.615917,9.213806,5.91962,-3.001972,1.469257,-66.57755,-20.86712,-8.940648
326,4138577226,55.869682,7.122978,11.72058,0.9512787,-1.2836169,0.20121145,12.046324,-11.747341,11.033603,5.935475,-3.023366,1.472611,-66.376778,-21.062909,-8.756755
327,4138593893,55.297905,7.044655,11.096213,0.9634304,-1.2507111,0.20977283,11.006367,-11.364127,12.188933,5.951532,-3.044211,1.476107,-66.193339,-21.252311,-8.553606
328,4138610560,54.718956,6.941475,10.499021,0.97405434,-1.1801593,0.22605526,9.43035,-10.174363,13.014123,5.967766,-3.06388,1.479875,-66.036166,-21.421884,-8.336704
329,4138627227,54.17646,6.8013153,9.999005,0.9823675,-1.047216,0.25586355,6.991637,-7.6887865,13.258523,5.984139,-3.081334,1.484139,-65.919639,-21.55003,-8.115729
330,4138643894,53.556313,6.648491,9.415051,0.99416447,-0.9088075,0.2850827,4.324561,-5.1691213,13.661613,6.000708,-3.096481,1.48889,-65.847563,-21.636182,-7.888035
331,4138660561,52.853096,6.4839783,8.7386465,1.0094242,-0.7676692,0.3128401,1.462409,-2.661403,14.249947,6.017532,-3.109275,1.494104,-65.82319,-21.680539,-7.650536
332,4138677228,52.161995,6.284706,8.121438,1.0246382,-0.5734675,0.35117495,-2.2061334,0.8970432,14.437149,6.034609,-3.118833,1.499957,-65.859959,-21.665588,-7.409917
333,4138693895,51.459694,6.0551147,7.5265455,1.0410261,-0.33742476,0.39713335,-6.56195,5.257639,14.374077,6.051959,-3.124457,1.506576,-65.969325,-21.577961,-7.170349
334,4138710562,50.945442,5.8454437,7.05449,1.0473528,-0.17038727,0.42474616,-9.150902,7.9798527,14.015619,6.069415,-3.127297,1.513655,-66.12184,-21.444963,-6.936755
335,4138727229,50.652885,5.656967,6.7367716,1.0421648,-0.07616043,0.4329952,-9.822531,8.966916,13.279775,6.086784,-3.128566,1.520872,-66.285549,-21.295514,-6.715425
336,4138743896,50.474663,5.468239,6.5040693,1.0316153,-0.00917387,0.43217778,-9.667707,9.216726,12.282257,6.103978,-3.128719,1.528075,-66.446677,-21.141902,-6.510721
337,4138760563,50.473793,5.2920685,6.393737,1.0124111,0.001458168,0.41534686,-8.018463,8.080228,10.982487,6.120852,-3.128695,1.534997,-66.580318,-21.007232,-6.32768
338,4138777230,50.563164,5.0924683,6.391164,0.9900255,0.03394413,0.4006245,-6.4668546,7.2678003,9.240389,6.137352,-3.128129,1.541674,-66.688099,-20.886102,-6.173674
339,4138793897,50.741158,4.8670273,6.4981337,0.96480656,0.09234691,0.38875842,-5.0951114,6.8610096,7.0471134,6.153432,-3.12659,1.548153,-66.773018,-20.771752,-6.056222
340,4138810564,51.11155,4.6444855,6.7602205,0.9310322,0.11260462,0.3646127,-2.5225754,5.44244,4.4227867,6.168949,-3.124713,1.55423,-66.815061,-20.681045,-5.982509
341,4138827231,51.662514,4.4169006,7.180747,0.88969994,0.11105704,0.3318237,0.9297466,3.363022,1.3232422,6.183777,-3.122862,1.55976,-66.799565,-20.624995,-5.960455
342,4138843898,51.51333,4.2610855,7.53444,0.8652344,0.114084005,0.31988966,3.2557077,2.256652,-1.2061425,6.198198,-3.120961,1.565091,-66.745303,-20.587384,-5.980557
343,4138860565,50.595604,4.1883545,7.812886,0.85912895,0.11592054,0.3297063,4.449548,2.097489,-3.077712,6.212517,-3.119029,1.570586,-66.671144,-20.552426,-6.031852
344,4138877232,49.321877,4.157379,8.131898,0.8603573,0.11463356,0.34964573,5.261434,2.3381922,-4.829262,6.226856,-3.117118,1.576413,-66.583453,-20.513456,-6.11234
345,4138893899,47.447807,4.1915817,8.43551,0.8755436,0.11489344,0.38747096,5.187335,3.3825204,-6.1747103,6.241448,-3.115203,1.582871,-66.496997,-20.457081,-6.215252
346,4138910566,45.51596,4.254204,8.875352,0.88891315,0.084165335,0.42193758,5.7696304,3.899193,-7.73065,6.256263,-3.1138,1.589903,-66.400836,-20.392094,-6.344096
347,4138927233,43.55548,4.343704,9.467238,0.89959335,0.02095604,0.45206285,7.0899487,3.826609,-9.544332,6.271256,-3.113451,1.597437,-66.28267,-20.328317,-6.503168
348,4138943900,41.079384,4.5002975,10.091174,0.9212322,-0.055550575,0.4951613,7.9569597,4.165676,-11.060517,6.28661,-3.114377,1.60569,-66.150054,-20.258889,-6.68751
349,4138960567,38.195236,4.7179947,10.783826,0.95061684,-0.15314984,0.5468482,8.704411,4.629119,-12.408946,6.302454,-3.116929,1.614804,-66.00498,-20.181737,-6.894326
350,4138977234,39.02307,4.858757,11.630801,1.000104,-0.24003053,0.5360353,9.359825,5.1777678,-14.04467,6.319122,-3.12093,1.623738,-65.848983,-20.095441,-7.128404
351,4138993901,43.91294,4.916176,12.628863,1.0729227,-0.312047,0.45772016,9.785688,5.9219046,-15.934819,6.337004,-3.126131,1.631367,-65.685888,-19.996743,-7.393984
352,4139010568,50.99888,4.9533386,13.765904,1.1613846,-0.3905418,0.34237707,10.19764,6.681327,-17.945496,6.35636,-3.13264,1.637073,-65.515927,-19.885388,-7.693076
353,4139027235,61.45002,4.934044,15.064555,1.2698622,-0.4667759,0.17013097,10.562525,7.4761734,-20.177881,6.377524,-3.14042,1.639909,-65.339885,-19.760785,-8.029374
354,4139043902,72.76745,4.9509583,16.451408,1.3951216,-0.55532527,-0.013543367,10.558751,8.58694,-22.222382,6.400776,-3.149675,1.639683,-65.163906,-19.617669,-8.399747
355,4139060569,84.85294,5.0104218,17.928265,1.5373144,-0.65850735,-0.20697534,10.18852,10.008468,-24.055437,6.426398,-3.16065,1.636233,-64.994097,-19.450861,-8.800671
356,4139077236,100.01104,5.035507,19.552929,1.7024603,-0.7617662,-0.45073676,9.568924,11.62792,-25.958933,6.454772,-3.173346,1.628721,-64.834615,-19.257062,-9.23332
357,4139093903,117.775154,5.046234,21.312809,1.8905592,-0.8686156,-0.7361984,8.621465,13.51041,-27.838104,6.486281,-3.187823,1.616451,-64.690924,-19.031888,-9.697288
358,4139110570,121.68876,5.0603943,23.594326,1.8185844,-0.8878331,-0.85317063,9.728536,16.01473,-31.367928,6.516591,-3.20262,1.602231,-64.528782,-18.764976,-10.220087
359,4139127237,110.43435,5.069908,26.446377,1.4590988,-0.8080523,-0.78641057,13.123564,19.183033,-36.744812,6.540909,-3.216088,1.589124,-64.310056,-18.445259,-10.832501
360,4139143904,91.47698,5.079727,29.682453,0.94526386,-0.67430687,-0.6297066,17.620363,22.905052,-43.11302,6.556663,-3.227326,1.578629,-64.016383,-18.063508,-11.551051
361,4139160571,60.192238,5.0916595,33.41914,0.19568253,-0.4593017,-0.32461452,23.895185,27.2972,-50.96236,6.559924,-3.234981,1.573219,-63.61813,-17.608555,-12.400424
362,4139177238,26.7128,5.075737,37.455704,-0.6249933,-0.2120626,-0.003856659,30.599293,32.133358,-59.39646,6.549507,-3.238515,1.573155,-63.108142,-17.072999,-13.390365
363,4139193905,-8.520729,5.0309067,41.787853,-1.5101137,0.06581187,0.32661033,37.657284,37.42763,-68.37121,6.524338,-3.237418,1.578599,-62.480521,-16.449205,-14.529885
364,4139210572,-54.71495,4.9724655,46.625313,-2.615878,0.42415714,0.78513587,46.347637,43.410824,-78.78057,6.48074,-3.230349,1.591685,-61.70806,-15.725691,-15.842895
365,4139227239,-109.93436,4.893051,51.93623,-3.9120874,0.8546829,1.345933,56.411434,50.05661,-90.46229,6.415539,-3.216104,1.614117,-60.767869,-14.891414,-17.3506
366,4139243906,-149.20291,4.1191864,56.423046,-4.706216,1.1982412,1.669959,63.738503,57.263237,-99.92148,6.337102,-3.196133,1.64195,-59.705561,-13.937027,-19.015958
367,4139260573,-171.41022,2.5815887,59.992702,-4.9533005,1.447638,1.7405597,68.11355,65.07063,-106.95484,6.254547,-3.172006,1.670959,-58.570335,-12.852516,-20.798539
368,4139277240,-187.23369,0.5886154,63.244022,-4.963297,1.6745086,1.7023066,71.32785,73.53143,-113.128136,6.171825,-3.144098,1.699331,-57.381537,-11.626992,-22.684008
369,4139293907,-190.03836,-2.0569077,65.81983,-4.5466595,1.8370609,1.4642148,72.27724,82.644,-117.49798,6.096047,-3.11348,1.723735,-56.176916,-10.249592,-24.642308
370,4139310574,-196.91469,-4.9672318,68.536026,-4.1489496,2.0430913,1.2556325,73.69782,92.56392,-122.34757,6.026898,-3.079428,1.744662,-54.948619,-8.70686,-26.681434
371,4139327241,-208.78412,-8.131535,71.4367,-3.7928724,2.2996387,1.0880953,75.73448,103.32288,-127.80406,5.963683,-3.041101,1.762797,-53.686378,-6.984812,-28.811502
372,4139343908,-211.3855,-11.925499,73.79996,-3.089181,2.5173893,0.7678561,76.06066,114.86124,-131.90654,5.912197,-2.999145,1.775595,-52.4187,-5.070458,-31.009944
373,4139360575,-208.26907,-16.281837,75.789276,-2.1271286,2.7195039,0.34175253,75.23684,127.234505,-135.12328,5.876745,-2.95382,1.781291,-51.164753,-2.949883,-33.261999
374,4139377242,-211.53345,-19.244427,77.85692,-1.3236427,2.80506,0.21268344,71.91691,128.89352,-130.17836,5.854684,-2.907069,1.784836,-49.966138,-0.801658,-35.431638
375,4139393909,-220.48755,-20.678516,79.941986,-0.66431236,2.752129,0.3949721,65.63549,118.66592,-116.045235,5.843612,-2.8612,1.791419,-48.872213,1.176107,-37.365725
376,4139410576,-231.69421,-21.472393,81.92643,-0.005610466,2.623065,0.72865653,57.36119,102.01065,-96.40709,5.843518,-2.817482,1.803563,-47.916193,2.876285,-38.97251
377,4139427243,-247.96536,-21.088413,83.89784,0.55430126,2.384513,1.3207033,46.57617,75.58124,-69.036476,5.852756,-2.77774,1.825575,-47.139923,4.135972,-40.123118
378,4139443910,-258.46414,-20.770313,85.389694,1.3661385,2.0709648,1.8861052,33.399178,46.006577,-37.548244,5.875525,-2.743224,1.85701,-46.58327,4.902748,-40.748922
379,4139460577,-262.6822,-20.582645,86.368004,2.450972,1.6834426,2.4122844,17.797602,13.538997,-2.03086,5.916375,-2.715167,1.897215,-46.286643,5.128398,-40.78277
380,4139477244,-268.27875,-19.430595,87.122765,3.555808,1.1724539,3.1346269,-0.8254285,-28.187916,41.419495,5.975638,-2.695626,1.949459,-46.3004,4.658599,-40.092445
381,4139493911,-272.83932,-17.56274,87.53748,4.760564,0.54163384,3.9950976,-22.540432,-77.978546,92.241844,6.054981,-2.686599,2.016044,-46.676074,3.358957,-38.555081
382,4139510578,-268.5348,-15.781002,85.75172,5.266668,0.16493845,4.4148164,-40.49864,-114.40856,130.12378,6.142759,-2.68385,2.089624,-47.351051,1.452148,-36.386351
383,4139527245,-255.30905,-14.005318,81.58734,4.9674454,0.06908655,4.366601,-54.204372,-136.36652,153.74646,6.22555,-2.682699,2.162401,-48.254457,-0.820627,-33.82391
384,4139543912,-235.04892,-12.002575,75.81555,4.2956867,0.07667971,4.085551,-67.02905,-153.34969,172.49588,6.297145,-2.681421,2.230494,-49.371608,-3.376455,-30.948979
385,4139560579,-205.6076,-9.939697,67.88644,3.0145898,0.28984642,3.4151788,-77.11756,-159.63211,180.85774,6.347388,-2.67659,2.287414,-50.656901,-6.03699,-27.934683
386,4139577246,-173.30948,-7.041588,58.91251,1.5229111,0.4754014,2.7532578,-88.70519,-169.5118,191.83144,6.37277,-2.668667,2.333302,-52.135321,-8.862187,-24.737492
387,4139593913,-138.10818,-3.2545319,48.902966,-0.15676975,0.61901784,2.1162326,-102.093506,-183.80977,206.18431,6.370157,-2.65835,2.368573,-53.836879,-11.925683,-21.301087
388,4139610580,-94.854614,0.9165878,36.78591,-2.4399881,0.9262121,1.1676974,-113.56857,-190.44067,212.6248,6.329491,-2.642913,2.388035,-55.729689,-15.099694,-17.75734
389,4139627247,-44.66905,5.6603546,22.74329,-5.2555847,1.3492007,-0.013124824,-124.02377,-192.3794,213.82399,6.241898,-2.620426,2.387816,-57.796752,-18.306017,-14.193607
390,4139643914,-10.1742935,8.276497,10.974772,-6.9145136,1.3469563,-0.99374366,-129.8842,-194.0293,214.7766,6.126656,-2.597977,2.371254,-59.961489,-21.539839,-10.613997
391,4139660581,7.1097717,8.455399,1.7158995,-7.317954,0.89357305,-1.7781439,-130.26266,-194.18524,214.38548,6.00469,-2.583084,2.341618,-62.132533,-24.77626,-7.040906
392,4139677248,17.211395,7.613289,-6.9375944,-7.2283525,0.21362877,-2.5223057,-127.38353,-192.63754,211.91959,5.884217,-2.579524,2.29958,-64.255592,-27.986886,-3.508913
393,4139693915,13.89341,4.9699783,-13.860015,-6.190383,-0.8386195,-3.1194985,-120.00726,-190.05026,208.20303,5.781044,-2.593501,2.247588,-66.255713,-31.15439,-0.038862
394,4139710582,11.8353195,1.9760895,-21.828558,-5.303014,-1.8962435,-3.9151294,-109.183914,-180.59581,197.23424,5.69266,-2.625105,2.182336,-68.075445,-34.16432,3.248375
395,4139727249,11.736191,-1.280693,-31.010826,-4.6291714,-2.9427416,-4.9278526,-94.89825,-163.93875,178.60979,5.615507,-2.674151,2.100205,-69.657082,-36.896633,6.225205
396,4139743916,0.74757385,-6.2269554,-39.048653,-3.2246418,-4.289092,-5.8971806,-75.39276,-143.30548,155.76672,5.561763,-2.745636,2.001919,-70.913628,-39.285058,8.821317
397,4139760583,-18.2202,-12.588181,-46.52277,-1.3156996,-5.8615866,-6.8989954,-50.71559,-117.23136,127.18178,5.539835,-2.843329,1.886936,-71.758888,-41.238914,10.941013
398,4139777250,-27.583889,-16.471828,-52.464737,-0.2064867,-6.738269,-7.3678627,-33.328728,-93.98995,102.633965,5.536394,-2.955633,1.764138,-72.314367,-42.805413,12.651579
399,4139793917,-27.448643,-17.717129,-56.451763,0.10189533,-6.868746,-7.216588,-24.048258,-74.48786,83.20739,5.538092,-3.070112,1.643862,-72.715171,-44.046877,14.038369
400,4139810584,-24.388,-18.01437,-59.298847,0.081822395,-6.640484,-6.7628937,-16.854769,-53.578384,63.001842,5.539456,-3.180787,1.531147,-72.996084,-44.93985,15.0884
401,4139827251,-14.068443,-16.340435,-60.60358,-0.59524155,-5.8024073,-5.8345003,-15.094849,-33.50416,44.70354,5.529535,-3.277494,1.433905,-73.247665,-45.498253,15.833459
402,4139843918,-10.302361,-15.356319,-60.279358,-0.92091084,-4.971477,-4.689974,-10.88274,-10.011697,23.217514,5.514186,-3.360352,1.355739,-73.429044,-45.665115,16.220418
403,4139860585,-13.890205,-15.219528,-58.297108,-0.8462019,-4.1744585,-3.342858,-3.6631007,17.460945,-2.0551682,5.500083,-3.429926,1.300025,-73.490096,-45.374099,16.186165
404,4139877252,-14.377815,-13.727112,-54.27394,-1.1508942,-2.8817081,-1.5041997,-0.24468184,44.921978,-26.296236,5.480901,-3.477954,1.274955,-73.494174,-44.625399,15.747894
405,4139893919,-14.823944,-11.442127,-48.11104,-1.6193409,-1.2156276,0.78335524,1.0482826,73.37195,-50.658096,5.453912,-3.498214,1.288011,-73.476703,-43.402533,14.903592
406,4139910586,-14.930565,-9.892845,-43.91871,-1.8053293,-0.118769646,2.213697,4.156585,94.265594,-68.96632,5.423823,-3.500193,1.324906,-73.407427,-41.83144,13.754153
407,4139927253,-13.513496,-8.946503,-41.954845,-1.7566023,0.3894961,2.70856,8.555689,106.199196,-79.91748,5.394546,-3.493701,1.370049,-73.264832,-40.061453,12.422195
408,4139943920,-12.881195,-8.250874,-40.12643,-1.5361767,0.6795268,2.8678381,13.462072,113.852135,-87.14688,5.368943,-3.482376,1.417846,-73.040464,-38.163917,10.969747
409,4139960587,-12.652931,-8.148922,-39.514473,-1.0425806,0.50815797,2.3400092,19.679333,114.552536,-88.60494,5.351567,-3.473907,1.456846,-72.712475,-36.254708,9.492998
410,4139977254,-10.433235,-7.178467,-37.532555,-0.73551464,0.56946754,1.9692832,23.1486,112.29247,-86.6635,5.339308,-3.464416,1.489667,-72.326665,-34.383167,8.048606
411,4139993921,-6.3519974,-5.2796364,-33.95527,-0.6243143,0.89929414,1.8068829,23.666313,107.20811,-81.35831,5.328903,-3.449428,1.519782,-71.932226,-32.596365,6.692634
412,4140010588,-1.1975937,-3.4525986,-30.978336,-0.39618874,0.94436455,1.1270403,23.837782,94.78194,-69.510864,5.3223,-3.433689,1.538566,-71.53493,-31.016666,5.53412
413,4140027255,5.564743,-1.3714447,-28.022827,-0.14865112,0.85183525,0.10509467,22.712574,75.62441,-51.386,5.319822,-3.419492,1.540318,-71.156387,-29.756259,4.677687
414,4140043922,10.416016,0.2106018,-24.851437,0.05252552,0.85041904,-0.42041135,22.527071,63.90174,-40.697586,5.320697,-3.405318,1.533311,-70.780936,-28.69123,3.999394
415,4140060589,13.071678,1.1238327,-21.715603,0.2323389,0.8939109,-0.46455646,23.69144,60.15828,-38.11756,5.324569,-3.390419,1.525568,-70.386079,-27.688592,3.364101
416,4140077256,15.651306,1.9626846,-18.33236,0.3525238,0.9722078,-0.3116927,24.404531,57.859924,-37.098392,5.330444,-3.374216,1.520373,-69.979337,-26.72426,2.745794
417,4140093923,17.247475,2.495079,-14.722734,0.4004488,1.1288924,0.24378443,25.298988,60.649605,-41.211517,5.337118,-3.355401,1.524436,-69.557687,-25.713433,2.058935
418,4140110590,19.706451,2.9120255,-11.555664,0.4969921,1.0859051,0.5230664,25.64,58.830338,-41.37135,5.345401,-3.337303,1.533154,-69.130354,-24.732927,1.369413
419,4140127257,23.282684,3.2598877,-8.844123,0.6377964,0.83451915,0.493024,25.22597,51.67236,-36.872383,5.356031,-3.323394,1.541371,-68.709921,-23.871721,0.754873
420,4140143924,26.323128,3.236557,-6.306678,0.75126076,0.5443413,0.6626115,24.94542,47.04583,-35.239445,5.368552,-3.314322,1.552415,-68.294164,-23.087624,0.167549
421,4140160591,29.279251,2.8803558,-4.110524,0.86088467,0.1517961,0.88421375,24.597645,42.78991,-34.45834,5.3829,-3.311792,1.567152,-67.884203,-22.374459,-0.406757
422,4140177258,32.775894,2.815506,-1.5760479,0.9445753,-0.08838272,0.963334,24.197544,39.018303,-32.808598,5.398643,-3.313265,1.583208,-67.480911,-21.724154,-0.953567
423,4140193925,36.682526,3.0454407,1.3497572,0.9931555,-0.13902068,0.93712,23.872341,36.686188,-31.04441,5.415196,-3.315582,1.598827,-67.083039,-21.112718,-1.470974
424,4140210592,41.03736,3.2883072,4.1957064,1.0328798,-0.16948366,0.7934464,23.473326,34.245396,-28.598148,5.432411,-3.318407,1.612051,-66.691817,-20.541961,-1.94761
425,4140227259,45.966034,3.6940308,7.1266317,1.0560989,-0.10741472,0.49085963,23.052704,32.013866,-25.265865,5.450013,-3.320197,1.620232,-66.307605,-20.008397,-2.368708
426,4140243926,50.77201,3.8217697,9.786746,1.0527925,-0.061011076,0.2699498,22.763065,31.845879,-23.887356,5.46756,-3.321214,1.624731,-65.928221,-19.477632,-2.766831
427,4140260593,55.459953,3.6326523,12.103593,1.0245123,-0.045978785,0.130144,22.613997,33.722927,-24.513954,5.484635,-3.32198,1.6269,-65.551321,-18.915583,-3.175397
428,4140277260,60.479683,3.4648056,14.375152,0.9691887,0.053917408,-0.083034515,22.596586,37.101936,-25.647041,5.500788,-3.321081,1.625516,-65.174711,-18.297217,-3.602848
429,4140293927,65.69044,3.2140045,16.49847,0.88433456,0.21463704,-0.32017708,22.760624,42.451645,-27.949484,5.515527,-3.317504,1.62018,-64.795367,-17.58969,-4.068673
430,4140310594,68.04882,3.0191956,19.096073,0.75983524,0.29293585,-0.43394017,24.077862,45.910477,-30.451727,5.528191,-3.312622,1.612948,-64.394069,-16.824515,-4.576202
431,4140327261,67.28773,2.9283447,22.25364,0.5927248,0.29226613,-0.424371,26.674648,47.19498,-33.013676,5.53807,-3.307751,1.605875,-63.949492,-16.037932,-5.12643
432,4140343928,64.73316,2.7979279,25.591122,0.38488483,0.26555848,-0.32580304,30.154108,48.56478,-36.643448,5.544485,-3.303325,1.600445,-63.446924,-15.228519,-5.737154
433,4140360595,59.50846,2.674736,29.288296,0.13185883,0.1789105,-0.09816015,34.822536,49.028294,-41.123207,5.546683,-3.300343,1.598809,-62.866548,-14.411381,-6.422541
434,4140377262,53.485847,2.551361,33.022465,-0.16169453,0.1433053,0.13042259,40.15067,50.77457,-46.70894,5.543988,-3.297955,1.600983,-62.19737,-13.565138,-7.201023
435,4140393929,46.717995,2.415619,36.76018,-0.4974413,0.16584873,0.35997224,46.15312,54.084724,-53.579334,5.535697,-3.295191,1.606983,-61.428151,-12.663726,-8.094012
436,4140410596,37.46659,2.3131561,40.81991,-0.8829298,0.16409183,0.6912421,53.394382,57.06932,-61.481743,5.520982,-3.292456,1.618504,-60.538245,-11.712571,-9.118708
437,4140427263,26.067963,2.2418213,45.133026,-1.3187838,0.16319752,1.1004897,61.806408,60.26312,-70.55391,5.499002,-3.289736,1.636845,-59.508138,-10.708186,-10.294606
438,4140443930,10.827553,1.4239655,49.071896,-1.8044815,0.39405727,1.32567,71.21715,65.81852,-79.97024,5.468927,-3.283168,1.65894,-58.321186,-9.611211,-11.627443
439,4140460597,-8.722832,-0.20939636,52.620632,-2.3425226,0.8719685,1.3545549,81.729225,73.74454,-89.661575,5.429885,-3.268635,1.681516,-56.959032,-8.382135,-13.121803
440,4140477264,-31.641823,-2.293167,56.032833,-2.935234,1.5074549,1.2967067,93.427444,83.432144,-100.1688,5.380964,-3.243511,1.703128,-55.401908,-6.991599,-14.791283
441,4140493931,-58.559822,-5.0475426,59.14619,-3.5841646,2.366006,1.0817709,106.327644,95.45263,-111.282715,5.321228,-3.204078,1.721158,-53.629781,-5.400722,-16.645995
442,4140510598,-89.07019,-8.016514,62.404163,-4.294297,3.2963133,0.89219165,120.75163,108.18987,-123.547554,5.249656,-3.149139,1.736028,-51.617254,-3.597557,-18.705121
443,4140527265,-123.24786,-11.17939,65.83026,-5.067795,4.2957363,0.7368182,136.7701,121.63279,-137.04865,5.165193,-3.077543,1.748308,-49.337752,-1.570344,-20.989265
444,4140543932,-161.95694,-14.961994,69.064835,-5.9048853,5.499965,0.46326053,154.28175,137.10432,-151.35612,5.066778,-2.985877,1.756029,-46.766389,0.714728,-23.511867
445,4140560599,-205.24393,-19.278503,72.20129,-6.808297,6.8819957,0.10886264,173.40756,154.3069,-166.61761,4.953306,-2.871177,1.757843,-43.876263,3.28651,-26.288827
446,4140577266,-236.89969,-22.445518,74.97544,-7.014308,7.564508,-0.011690736,179.06844,158.93938,-169.11343,4.836401,-2.745102,1.757648,-40.891789,5.9355,-29.107384
447,4140593933,-255.52838,-24.359417,77.31347,-6.446021,7.4797683,0.11291611,169.75609,149.73085,-157.39886,4.728967,-2.620439,1.75953,-38.062521,8.431014,-31.730698
448,4140610600,-268.89453,-25.765034,79.399315,-5.463953,7.0256066,0.35843265,152.6554,133.21016,-138.01031,4.637901,-2.503346,1.765504,-35.518264,10.651183,-34.03087
449,4140627267,-272.45285,-26.2034,81.13992,-3.8470745,5.9568057,0.8085849,123.417984,105.2959,-106.951805,4.573783,-2.404066,1.77898,-33.461298,12.406115,-35.8134
450,4140643934,-275.92645,-26.768745,82.58978,-2.0351553,4.819802,1.2405705,90.73117,74.59657,-72.011475,4.539864,-2.323736,1.799656,-31.949112,13.649391,-37.013591
451,4140660601,-279.83932,-27.51627,83.74965,-0.045067787,3.6395526,1.6448467,54.95673,41.44491,-33.480434,4.539113,-2.263077,1.82707,-31.033167,14.340139,-37.571598
452,4140677268,-275.29407,-27.496452,84.50006,2.5444813,1.9242711,2.205679,7.8034754,-2.1567566,16.18969,4.581521,-2.231006,1.863831,-30.903109,14.304193,-37.30177
453,4140693935,-264.19427,-26.92912,84.840164,5.653943,-0.22030711,2.8778949,-49.13686,-54.612907,75.60724,4.675753,-2.234678,1.911796,-31.722057,13.393978,-36.041649
454,4140710602,-253.16238,-25.817913,83.564224,7.3238974,-1.4927061,3.247467,-88.784805,-94.925575,119.96759,4.797818,-2.259556,1.96592,-33.201804,11.811885,-34.042189
455,4140727269,-241.49203,-24.024567,80.51416,7.424786,-1.8355731,3.2973065,-109.7562,-122.25333,148.02954,4.921564,-2.290149,2.020875,-35.031074,9.77433,-31.57503
456,4140743936,-227.10687,-21.675003,76.235916,6.837739,-1.8010467,3.1935153,-123.98973,-145.65228,170.80557,5.035526,-2.320166,2.0741,-37.09757,7.346792,-28.72827
457,4140760603,-211.3371,-18.714458,70.356995,5.025824,-1.0430145,2.8251336,-124.24939,-159.60641,181.69374,5.11929,-2.33755,2.121186,-39.168393,4.686685,-25.700041
458,4140777270,-187.76605,-14.86808,63.514957,3.2447643,-0.45363688,2.48148,-128.64719,-178.6367,197.32262,5.173369,-2.345111,2.162544,-41.312513,1.709407,-22.411331
459,4140793937,-155.8765,-10.105335,55.70895,1.5589895,-0.079713345,2.1748948,-138.20844,-203.59555,218.673,5.199352,-2.34644,2.198792,-43.615987,-1.683852,-18.766781
460,4140810604,-119.76062,-4.4840927,46.263424,-1.1311064,0.823565,1.6637695,-137.63513,-222.52103,231.75984,5.1805,-2.332714,2.226521,-45.909906,-5.392536,-14.904117
461,4140827271,-77.80442,2.0867767,35.270187,-4.574129,2.071632,1.0063903,-130.68927,-238.49083,240.06757,5.104265,-2.298187,2.243294,-48.088061,-9.367383,-10.902991
462,4140843938,-47.272514,5.8826447,25.128025,-6.6867933,2.4232392,0.16003954,-126.6004,-248.45085,245.93797,4.992818,-2.2578,2.245961,-50.198068,-13.508231,-6.804025
463,4140860605,-30.146492,6.557274,15.946523,-7.4170237,1.8523016,-0.9136982,-124.2166,-250.52312,247.7184,4.869201,-2.226928,2.230733,-52.268345,-17.683616,-2.675385
464,4140877272,-16.99459,5.9530334,6.6141787,-7.5942774,0.8243761,-2.1600173,-121.55676,-248.12392,246.50674,4.74263,-2.213188,2.194733,-54.294291,-21.819015,1.433061
465,4140893939,-12.748711,3.0206604,-2.2432604,-6.6778154,-0.98444724,-3.6044962,-120.52415,-239.81798,242.29112,4.631333,-2.229595,2.134658,-56.303027,-25.815981,5.471246
466,4140910606,-8.200562,-0.069984436,-12.2496605,-6.176593,-2.6583004,-5.2920437,-111.639694,-224.1689,229.94368,4.52839,-2.2739,2.046457,-58.163689,-29.552129,9.303641
467,4140927273,-2.658493,-3.1927032,-23.522282,-6.167987,-4.1581492,-7.2282495,-94.40404,-201.0829,209.16194,4.42559,-2.343202,1.925986,-59.73709,-32.903511,12.789673
468,4140943940,-5.0955124,-8.364033,-34.72428,-5.436923,-6.2208834,-9.420774,-74.92423,-169.72377,182.17456,4.334975,-2.446883,1.768973,-60.985827,-35.732241,15.825916
469,4140960607,-13.682541,-15.158676,-46.21202,-4.301201,-8.657872,-11.887379,-50.970512,-129.48265,147.59831,4.263288,-2.591181,1.57085,-61.835336,-37.890285,18.285888
470,4140977274,-16.225761,-19.061626,-54.423786,-3.6752462,-9.989347,-13.16056,-33.121586,-95.79228,117.53446,4.202034,-2.75767,1.351507,-62.387362,-39.486823,20.244796
471,4140993941,-12.914101,-19.925888,-58.826294,-3.4968739,-10.160486,-13.101802,-22.886108,-69.654854,93.05145,4.143753,-2.927011,1.133144,-62.768797,-40.647737,21.795654
472,4141010608,-8.492119,-19.636421,-61.32482,-3.5448875,-9.744039,-12.419387,-13.541491,-43.028023,67.17253,4.084672,-3.089412,0.926154,-62.994489,-41.364871,22.915196
473,4141027275,-0.048553467,-17.01633,-60.827835,-4.032384,-8.343592,-10.696062,-8.123461,-19.960075,43.12252,4.017466,-3.228472,0.747886,-63.12988,-41.697539,23.633905
474,4141043942,2.850853,-15.2425,-59.037457,-4.1094217,-7.011012,-8.787049,-1.84133,9.103236,14.082132,3.948976,-3.345322,0.601435,-63.160569,-41.545818,23.868607
475,4141060609,-0.45879364,-14.493137,-56.016685,-3.7450962,-5.786752,-6.734873,5.88451,45.04815,-20.720802,3.886558,-3.441768,0.489187,-63.062494,-40.795016,23.52326
476,4141077276,-2.8886337,-12.178707,-49.89331,-3.536951,-3.7973733,-3.7376301,10.0156975,79.73528,-55.202038,3.827609,-3.505058,0.426893,-62.895566,-39.466095,22.603226
477,4141093943,-6.639801,-8.972012,-40.938198,-3.3000622,-1.2531041,0.042071223,11.569471,115.32826,-90.94177,3.772608,-3.525943,0.427594,-62.702741,-37.543957,21.08753
478,4141110610,-7.963318,-6.817539,-34.913235,-3.0113688,0.3553698,2.3764164,15.105646,139.30176,-115.4289,3.722419,-3.52002,0.467201,-62.45098,-35.222261,19.163715
479,4141127277,-5.7691574,-5.5803986,-32.043293,-2.7293587,0.9980531,3.1665182,20.285948,149.35626,-126.604355,3.67693,-3.503386,0.519976,-62.112881,-32.73299,17.053642
480,4141143944,-3.448059,-4.78854,-29.692978,-2.3320875,1.2470813,3.3729072,25.53981,152.83582,-131.40752,3.638062,-3.482601,0.576191,-61.687217,-30.185726,14.863517
481,4141160611,0.22384644,-4.8932724,-29.349297,-1.8253841,0.7160778,2.4051466,31.839544,145.76804,-125.93868,3.607639,-3.470666,0.616277,-61.156558,-27.756259,12.764539
482,4141177278,4.7008896,-4.092079,-27.068863,-1.3737192,0.5114856,1.7820559,35.240715,133.38368,-115.961464,3.584744,-3.462141,0.645978,-60.569213,-25.533198,10.831848
483,4141193945,9.72316,-2.3180847,-22.564362,-0.96580124,0.6860688,1.5883305,35.43538,115.91153,-101.69838,3.568647,-3.450707,0.67245,-59.978623,-23.601339,9.136875
484,4141210612,16.668732,-0.836853,-19.046339,-0.5252075,0.35687733,0.55727553,35.092014,86.97918,-76.5989,3.559894,-3.444759,0.681738,-59.393756,-22.151686,7.860227
485,4141227279,25.434303,0.7447281,-15.642752,-0.084067345,-0.24403477,-0.99396086,33.247047,47.34687,-41.554314,3.558493,-3.448826,0.665172,-58.839639,-21.362571,7.167655
486,4141243946,30.82685,1.959877,-12.315813,0.29486465,-0.4842217,-1.7799056,32.353046,23.241457,-20.556902,3.563407,-3.456896,0.635507,-58.300422,-20.975213,6.82504
487,4141260613,32.627846,2.632515,-9.452377,0.60877895,-0.41168594,-1.8390718,32.847866,16.017662,-14.755844,3.573553,-3.463757,0.604856,-57.752958,-20.708252,6.579109
488,4141277280,33.291702,3.2639008,-6.4729347,0.86320686,-0.17156768,-1.572722,32.80369,13.431915,-13.075213,3.58794,-3.466616,0.578644,-57.20623,-20.484387,6.361189
489,4141293947,31.483795,3.6922073,-3.48775,1.0380201,0.3820405,-0.66865635,32.916,22.394388,-21.806843,3.60524,-3.460249,0.5675,-56.65763,-20.111147,5.997742
490,4141310614,30.56089,3.8657837,-1.3127222,1.1941242,0.6481588,-0.20732558,32.280323,25.628542,-24.934689,3.625142,-3.449446,0.564045,-56.119625,-19.684005,5.582164
491,4141327281,30.786316,3.8196259,0.050164223,1.327733,0.60518837,-0.23630488,30.679144,21.922285,-21.342087,3.647271,-3.43936,0.560107,-55.608306,-19.318634,5.226463
492,4141343948,29.373222,3.430931,0.8656359,1.387681,0.6710355,0.04182434,29.13933,25.763374,-24.348171,3.670399,-3.428176,0.560804,-55.122651,-18.889244,4.82066
493,4141360615,27.06594,2.6850662,0.9256773,1.3827152,0.7143936,0.39304817,27.420595,33.419495,-30.48019,3.693444,-3.416269,0.567355,-54.665641,-18.332252,4.312657
494,4141377282,28.63195,2.3473969,2.1835508,1.3911619,0.6913371,0.5758642,25.984484,36.462,-33.00714,3.71663,-3.404747,0.576953,-54.232566,-17.724552,3.762538
495,4141393949,34.216217,2.4554596,4.795907,1.4115372,0.63878274,0.6536238,25.019737,35.906128,-32.94335,3.740156,-3.394101,0.587847,-53.81557,-17.126117,3.213482
496,4141410616,42.09693,2.624176,7.6494265,1.4093103,0.482193,0.575467,24.140198,33.243713,-31.136856,3.763645,-3.386064,0.597438,-53.413233,-16.572055,2.694534
497,4141427283,53.552193,3.0495453,11.257628,1.4024715,0.21657777,0.29372728,23.532286,26.66942,-26.204071,3.78702,-3.382454,0.602333,-53.021028,-16.127565,2.257799
498,4141443950,65.16782,3.255272,14.515836,1.325633,-0.028086424,0.15063131,23.124035,24.743351,-25.410503,3.809114,-3.382922,0.604844,-52.635627,-15.715176,1.834291
499,4141460617,76.84463,3.197731,17.29787,1.1725683,-0.26049423,0.14285517,22.914625,27.782473,-28.999622,3.828657,-3.387264,0.607225,-52.253717,-15.252135,1.350964
500,4141477284,91.42098,3.2759247,20.578514,0.98921776,-0.5506513,0.060792208,23.131287,30.126637,-32.30666,3.845144,-3.396442,0.608238,-51.868196,-14.750024,0.81252
501,4141493951,108.232735,3.3813553,24.099648,0.7592306,-0.87446284,-0.025146484,23.785322,33.694084,-36.966354,3.857798,-3.411016,0.607819,-51.471774,-14.188456,0.196414
502,4141510618,109.55993,3.1204758,27.757622,0.35159492,-0.9083016,-0.050918102,27.724276,39.518215,-44.141716,3.863658,-3.426154,0.60697,-51.009703,-13.529819,-0.539281
503,4141527285,93.9921,2.5009155,31.66241,-0.24389172,-0.62516713,-0.028769612,35.31146,47.225014,-53.586437,3.859593,-3.436573,0.606491,-50.421179,-12.742735,-1.432388
504,4141543952,69.434456,1.6307526,35.681427,-0.9793501,-0.1603055,0.06159401,45.260548,57.78307,-66.01132,3.84327,-3.439245,0.607518,-49.666837,-11.779684,-2.532577
505,4141560619,30.891052,0.41000366,39.822792,-1.8932037,0.5797236,0.23649514,58.446262,71.45712,-81.75074,3.811717,-3.429583,0.61146,-48.692733,-10.588732,-3.895089
506,4141577286,-10.646149,-0.842659,44.36515,-2.9023943,1.3853087,0.3998226,73.34406,86.32021,-99.053444,3.763344,-3.406495,0.618124,-47.470332,-9.150062,-5.54598
507,4141593953,-54.74068,-2.1207657,49.30962,-4.0073185,2.2514415,0.55612683,89.95151,102.57965,-118.118095,3.696555,-3.368971,0.627393,-45.97114,-7.440401,-7.514615
508,4141610620,-111.37988,-3.6706772,54.53716,-5.285784,3.3686833,0.7695009,109.86579,121.504105,-140.19823,3.608459,-3.312826,0.640218,-44.140043,-5.415333,-9.851252
509,4141627287,-178.48682,-5.429184,60.11475,-6.7244787,4.699245,1.0229067,132.8621,142.81358,-165.0599,3.496384,-3.234505,0.657266,-41.925675,-3.035107,-12.60225
510,4141643954,-224.12042,-7.5051804,64.646515,-7.4625063,5.5816236,1.2030219,145.67285,154.08899,-178.7234,3.372009,-3.141478,0.677316,-39.497794,-0.466957,-15.580973
511,4141660621,-246.59216,-9.942688,67.99361,-7.4255285,5.979445,1.3066674,147.25243,154.25804,-179.97737,3.24825,-3.041821,0.699094,-37.043587,2.10401,-18.580596
512,4141677288,-259.78403,-12.652145,70.86834,-7.0117445,6.18463,1.3772329,143.76968,149.02312,-175.3024,3.131388,-2.938744,0.722048,-34.647426,4.587729,-21.502303
513,4141693955,-255.09927,-15.677135,72.87605,-5.977437,6.019034,1.3847739,131.52821,134.86023,-160.73927,3.031764,-2.838427,0.745128,-32.455289,6.835399,-24.181291
514,4141710622,-253.88858,-19.028137,74.79676,-4.84295,5.922857,1.4167838,118.70665,119.42662,-144.84848,2.951048,-2.739713,0.768741,-30.476845,8.825843,-26.595432
515,4141727289,-257.26608,-22.70797,76.67921,-3.6312113,5.9200892,1.4772251,105.72235,103.052124,-128.01672,2.890528,-2.641045,0.793361,-28.714806,10.543378,-28.729044
516,4141743956,-247.08463,-26.757034,77.78297,-1.8631725,5.636062,1.4965602,85.20897,78.7402,-102.41235,2.859475,-2.547111,0.818304,-27.294657,11.855715,-30.435917
517,4141760623,-227.7102,-31.186047,78.260414,0.36253166,5.1612754,1.4930767,58.772305,47.946354,-69.670876,2.865517,-2.46109,0.843189,-26.315119,12.654821,-31.597098
518,4141777290,-217.04071,-33.472683,78.80417,1.7988329,4.738917,1.5389178,36.132217,21.061218,-40.242107,2.895498,-2.382108,0.868838,-25.712915,13.005841,-32.2678
519,4141793957,-214.36514,-33.3749,79.3668,2.3945436,4.3415537,1.6325998,17.156229,-1.9645596,-13.953592,2.935407,-2.309749,0.896048,-25.426978,12.973098,-32.50036
520,4141810624,-213.95615,-32.090054,79.70352,2.6830635,3.910583,1.7522302,-1.8241491,-25.24878,13.2414875,2.980125,-2.244573,0.925252,-25.45738,12.552285,-32.279669
521,4141827291,-220.04404,-28.895733,79.963554,2.3354697,3.4967623,1.9158036,-18.459501,-46.25948,38.849167,3.019049,-2.186294,0.957182,-25.765038,11.781294,-31.632183
522,4141843958,-217.29547,-25.2597,79.53234,2.2120028,2.856605,2.063093,-40.48236,-73.0809,71.22864,3.055916,-2.138684,0.991567,-26.439744,10.563279,-30.445039
523,4141860625,-204.90425,-21.246029,78.36084,2.3610015,1.976285,2.191948,-68.384674,-106.25942,110.96193,3.095266,-2.105746,1.028099,-27.579489,8.792289,-28.595674
524,4141877292,-193.92346,-15.467922,76.86316,2.0706978,1.0141215,2.347684,-96.41339,-139.71698,151.89891,3.129778,-2.088844,1.067227,-29.186379,6.463673,-26.064025
525,4141893959,-180.92102,-8.197994,74.88828,1.5217667,-0.08749533,2.517659,-126.319626,-175.29265,195.97046,3.155141,-2.090302,1.109188,-31.291706,3.542129,-22.797851
526,4141910626,-165.62296,-3.5020447,70.22212,0.99712753,-0.9480562,2.244774,-146.5895,-202.66373,228.8396,3.17176,-2.106103,1.146601,-33.734864,0.1644,-18.983858
527,4141927293,-149.10953,-1.567688,62.66463,0.43135738,-1.5174422,1.487392,-155.44414,-220.13544,248.43199,3.178949,-2.131394,1.171391,-36.3256,-3.504524,-14.843325
528,4141943960,-128.99698,-0.6226425,53.127476,-0.19269371,-2.0195422,0.4507079,-159.54584,-233.87802,262.89566,3.175737,-2.165053,1.178903,-38.984697,-7.402491,-10.461731
529,4141960627,-105.42125,-1.7454453,40.961884,-0.8263664,-2.344645,-0.9968095,-155.41406,-240.74664,267.95013,3.161964,-2.20413,1.16229,-41.574931,-11.414935,-5.995895
530,4141977294,-81.18079,-2.1772385,27.510452,-1.8237047,-2.6782124,-2.5813758,-148.29025,-245.23706,270.42413,3.131569,-2.248767,1.119267,-44.046435,-15.502219,-1.488826
531,4141993961,-56.021667,-1.7602997,12.788085,-3.2012224,-3.037311,-4.294139,-138.51738,-247.67265,270.7713,3.078215,-2.299389,1.047698,-46.355058,-19.630097,3.024029
532,4142010628,-28.658066,-2.7999878,-4.481804,-4.752599,-3.2322378,-6.3919973,-120.2802,-242.9162,261.676,2.999005,-2.35326,0.941165,-48.359728,-23.6787,7.385296
533,4142027295,0.39530182,-4.718754,-24.07504,-6.5631666,-3.3002186,-8.825534,-94.4871,-231.74075,244.36409,2.889619,-2.408264,0.794073,-49.934513,-27.541046,11.458031
534,4142043962,20.442833,-5.9819527,-38.21017,-7.6447287,-3.5290127,-10.293198,-76.48163,-217.5981,226.70097,2.762207,-2.467081,0.62252,-51.209207,-31.167681,15.236381
535,4142060629,30.462708,-6.7421837,-46.31608,-7.8870726,-3.9169996,-10.704544,-66.74444,-199.85713,208.16255,2.630756,-2.532364,0.444111,-52.321614,-34.498633,18.705757
536,4142077296,35.095238,-7.352417,-51.95069,-7.8235025,-4.348677,-10.645995,-58.38722,-177.12503,185.52779,2.500364,-2.604842,0.266678,-53.294734,-37.450717,21.797887
537,4142093963,31.208961,-7.478615,-52.95966,-7.1725492,-4.893729,-9.758666,-55.324337,-149.90312,160.4307,2.380822,-2.686404,0.104034,-54.216806,-39.949102,24.471732
538,4142110630,25.397552,-8.624176,-54.23467,-6.4616385,-5.3336434,-8.869822,-46.895813,-114.55297,126.05908,2.273128,-2.775298,-0.043796,-54.998403,-41.858318,26.572717
539,4142127297,17.809425,-10.8594475,-56.02309,-5.729167,-5.6531715,-8.020396,-32.325214,-70.56601,81.715256,2.177642,-2.869518,-0.177469,-55.537157,-43.034418,27.934638
540,4142143964,2.2529526,-13.178963,-53.975117,-4.4620047,-6.017376,-6.4799843,-20.180626,-19.900856,31.896135,2.103275,-2.969808,-0.285469,-55.873501,-43.366099,28.46624
541,4142160631,-20.117481,-15.926037,-49.058277,-2.7643528,-6.3764095,-4.4124813,-8.088575,38.529346,-25.170586,2.057202,-3.076081,-0.35901,-56.008311,-42.723943,28.04673
542,4142177298,-31.906113,-17.282768,-46.346226,-1.7105312,-6.387433,-3.0522692,2.6834285,79.666306,-65.84684,2.028693,-3.182538,-0.409881,-55.963587,-41.396171,26.949283
543,4142193965,-32.39537,-16.978813,-45.703255,-1.3282595,-6.032366,-2.4167106,10.9889345,101.02412,-87.47997,2.006555,-3.283077,-0.45016,-55.780438,-39.712436,25.491283
544,4142210632,-29.241535,-16.127262,-45.296535,-1.169344,-5.434948,-2.0208213,19.068577,115.3743,-102.638084,1.987066,-3.373659,-0.48384,-55.462628,-37.789531,23.780648
545,4142227299,-17.8867,-14.193947,-46.328865,-1.5098486,-4.4990625,-2.1786568,26.252472,115.62883,-104.547424,1.961902,-3.448643,-0.520151,-55.025087,-35.862384,22.038191
546,4142243966,-10.334557,-11.991898,-44.62523,-1.586133,-3.4589248,-1.9706857,31.174908,116.125786,-106.07897,1.935466,-3.506292,-0.552996,-54.505505,-33.926954,20.270208
547,4142260633,-7.3375244,-9.600212,-39.921093,-1.3524923,-2.3177304,-1.3460217,33.889545,117.76956,-108.10053,1.912924,-3.544921,-0.57543,-53.940679,-31.964128,18.468532
548,4142277300,0.97068787,-6.1355896,-35.256546,-1.4228659,-0.87041783,-1.0276759,34.371323,107.10592,-98.14212,1.88921,-3.559428,-0.592558,-53.367824,-30.179029,16.83283
549,4142293967,12.016312,-1.7559052,-29.676886,-1.632698,0.8409667,-0.81734776,32.23405,86.96494,-78.716835,1.861998,-3.545412,-0.60618,-52.83059,-28.729613,15.520883
550,4142310634,18.508278,1.1306076,-25.019543,-1.6000557,1.9428091,-0.5375595,31.985222,75.87406,-68.18063,1.83533,-3.513032,-0.615139,-52.297503,-27.465045,14.384539
551,4142327301,20.96341,2.4303513,-21.77044,-1.3620243,2.3786283,-0.2575791,33.86398,73.61893,-66.39536,1.81263,-3.473388,-0.619432,-51.733103,-26.238063,13.27795
552,4142343968,21.09977,3.1982117,-18.35968,-0.9871645,2.5370073,0.073724866,35.3297,73.046486,-66.05811,1.796177,-3.431105,-0.618203,-51.144275,-25.020622,12.176981
553,4142360635,17.223679,2.806015,-15.37473,-0.388896,2.1785402,0.48105526,37.504917,78.62972,-71.60716,1.789695,-3.394796,-0.610185,-50.519193,-23.710127,10.983528
554,4142377302,16.08339,2.8903046,-12.458157,0.05535698,1.8702106,0.6760454,37.645176,75.84351,-68.86784,1.790618,-3.363626,-0.598918,-49.891773,-22.446068,9.835731
555,4142393969,17.91362,3.5530624,-9.48985,0.33517265,1.6403284,0.6542704,35.40598,63.725876,-56.855907,1.796204,-3.336287,-0.588013,-49.301673,-21.38397,8.888133
556,4142410636,17.967056,3.4438858,-7.177039,0.7091217,0.9949355,0.5729134,33.037888,53.12135,-46.20569,1.808023,-3.319705,-0.578464,-48.751042,-20.498614,8.118038
557,4142427303,17.70546,2.9124603,-5.4507017,1.0959005,0.047493935,0.3658116,29.857243,40.725533,-33.675274,1.826288,-3.318913,-0.572367,-48.253421,-19.819855,7.556783
558,4142443970,20.98397,2.802063,-2.9620075,1.36796,-0.4944229,0.245718,27.471607,32.02213,-24.95869,1.849087,-3.327153,-0.568272,-47.795561,-19.286153,7.140805
559,4142460637,27.711143,3.024498,0.2742262,1.5379133,-0.630641,0.24072051,26.272503,28.691189,-21.73322,1.874719,-3.337664,-0.56426,-47.357686,-18.807967,6.778585
560,4142477304,37.12908,3.4138489,3.629407,1.6070356,-0.62658167,0.1971848,24.980698,25.74502,-18.950405,1.901503,-3.348107,-0.560974,-46.941341,-18.378883,6.462745
561,4142493971,50.25715,4.155533,7.412219,1.543108,-0.30560684,0.17200005,24.107658,25.015898,-18.496595,1.927221,-3.3532,-0.558107,-46.539547,-17.961951,6.154468
562,4142510638,63.677345,4.412552,10.65231,1.4858313,-0.2151103,0.07704425,23.162868,25.879116,-19.550959,1.951985,-3.356785,-0.556823,-46.153499,-17.530632,5.828619
563,4142527305,77.40226,4.1538467,13.248698,1.432147,-0.38519788,-0.106146336,22.046429,27.992449,-21.764723,1.975854,-3.363205,-0.558592,-45.786059,-17.064091,5.465874
564,4142543972,94.06812,3.9423218,15.915854,1.2825565,-0.3958578,-0.28784323,21.464317,33.350555,-27.276855,1.99723,-3.369803,-0.563389,-45.42832,-16.508248,5.01126
565,4142560639,113.04084,3.5917664,18.411522,1.06281,-0.366575,-0.49146295,21.318048,41.87247,-35.964943,2.014943,-3.375913,-0.57158,-45.073019,-15.810373,4.411844
566,4142577306,118.28954,3.2194824,21.595188,0.720809,-0.26889873,-0.5774524,24.099503,48.690548,-44.068764,2.026956,-3.380395,-0.581204,-44.671361,-14.998864,3.677365
567,4142593973,108.54311,2.887947,25.613087,0.23780155,-0.051519156,-0.52046275,30.2026,53.80182,-51.71589,2.030919,-3.381254,-0.589878,-44.167984,-14.102167,2.815434
568,4142610640,90.94392,2.403244,29.868721,-0.34704018,0.18938065,-0.40327024,38.4308,59.60521,-60.759438,2.025135,-3.378098,-0.596599,-43.527471,-13.108747,1.802777
569,4142627307,60.972588,1.8054199,34.614235,-1.0538216,0.47565436,-0.18183732,49.58063,64.97569,-70.40165,2.007571,-3.37017,-0.59963,-42.701127,-12.025819,0.629416
570,4142643974,28.652916,1.162735,39.4872,-1.8856802,0.89710546,0.07994425,62.4232,73.31196,-83.44634,1.976143,-3.355218,-0.598298,-41.66074,-10.803953,-0.761356
571,4142660641,-5.6142807,0.45349884,44.433384,-2.8442717,1.450799,0.37854195,76.96849,84.99552,-100.253235,1.928738,-3.331038,-0.591989,-40.377932,-9.387361,-2.432243
572,4142677308,-50.90152,-0.3241272,49.853245,-3.9490528,2.1157618,0.7871429,94.6047,97.491425,-118.88629,1.86292,-3.295775,-0.57887,-38.801187,-7.762504,-4.413681
573,4142693975,-105.307915,-1.1616821,55.666927,-5.204772,2.9143777,1.2953544,115.17202,111.65873,-140.10182,1.776174,-3.247202,-0.557281,-36.881653,-5.901525,-6.748711
574,4142710642,-144.56311,-2.701416,60.436794,-5.966153,3.5651321,1.607389,128.1945,120.40705,-153.70859,1.676738,-3.187783,-0.530491,-34.745078,-3.894741,-9.310521
575,4142727309,-167.61334,-5.0061455,64.07925,-6.175025,4.0457926,1.7072575,132.89287,122.80242,-158.56194,1.573821,-3.120353,-0.502037,-32.530197,-1.848034,-11.95322
576,4142743976,-184.83418,-7.7703514,67.22128,-6.141448,4.509966,1.730978,134.17825,122.853714,-160.08301,1.471464,-3.045187,-0.473187,-30.293893,0.199528,-14.62127
577,4142760643,-189.79163,-11.178337,69.47247,-5.683223,4.882781,1.5999157,129.1634,118.48986,-155.3507,1.376744,-2.963807,-0.446522,-28.14117,2.174359,-17.210448
578,4142777310,-199.15619,-14.87328,71.75674,-5.181448,5.3251843,1.5079902,124.378006,113.32331,-149.94955,1.290387,-2.875054,-0.421389,-26.068203,4.063081,-19.709607
579,4142793977,-213.83856,-18.840687,74.11867,-4.6558094,5.8531413,1.4677635,120.19034,107.62717,-144.25766,1.21279,-2.777502,-0.396926,-24.065031,5.856867,-22.113901
580,4142810644,-219.97116,-23.426285,75.75372,-3.7531128,6.3234754,1.3150525,110.8005,97.74005,-132.88159,1.150238,-2.672111,-0.375008,-22.218356,7.485868,-24.328594
581,4142827311,-221.02997,-28.565697,76.845955,-2.546836,6.7722926,1.0909448,97.521774,84.35971,-116.91529,1.107791,-2.559239,-0.356826,-20.592993,8.891863,-26.277182
582,4142843978,-224.34198,-31.467186,78.117645,-1.6305246,6.919678,1.055619,83.34566,68.41978,-97.32531,1.080616,-2.443911,-0.339232,-19.203899,10.032193,-27.89927
583,4142860645,-228.7926,-31.90306,79.52431,-1.0089331,6.7179523,1.2137754,67.71776,49.398994,-73.33833,1.0638,-2.331945,-0.319002,-18.07527,10.85551,-29.121576
584,4142877312,-233.1435,-31.150635,80.83352,-0.44250298,6.321998,1.4699473,49.9918,27.19349,-45.063152,1.056425,-2.226578,-0.294503,-17.242073,11.308735,-29.872629
585,4142893979,-238.84833,-28.424812,82.20723,-0.0792923,5.643641,1.8919206,30.685293,1.7894683,-12.391563,1.055103,-2.132517,-0.262971,-16.730651,11.338559,-30.079155
586,4142910646,-237.92935,-25.433357,82.99864,0.5263252,4.80827,2.2871351,6.426469,-28.433556,26.812893,1.063875,-2.052379,-0.224852,-16.623543,10.864666,-29.632273
587,4142927313,-229.99551,-22.252415,83.16627,1.402813,3.819788,2.6478467,-23.043516,-63.703392,72.836876,1.087255,-1.988716,-0.180721,-17.007602,9.802943,-28.418325
588,4142943980,-220.05093,-17.32545,83.15607,2.2058144,2.5318985,3.1288168,-55.752968,-103.39033,124.93434,1.124019,-1.946518,-0.128574,-17.936818,8.079771,-26.336086
589,4142960647,-206.21497,-10.979,82.81616,3.0344095,0.96291614,3.6906185,-92.56933,-148.015,183.79678,1.174592,-1.930469,-0.067064,-19.47964,5.612854,-23.272806
590,4142977314,-190.6761,-6.7586517,79.27119,3.2958221,-0.16514015,3.678327,-118.33588,-181.1925,227.24567,1.229522,-1.933221,-0.005759,-21.451905,2.592979,-19.485378
591,4142993981,-173.97388,-4.7821236,72.26181,2.8901854,-0.8083992,3.0451338,-131.44559,-201.36697,253.19617,1.277692,-1.946694,0.044993,-23.642665,-0.763137,-15.265442
592,4143010648,-153.57062,-3.5601578,63.0137,2.1644945,-1.3032637,2.0724814,-139.74332,-216.74449,272.7518,1.313767,-1.968415,0.079534,-25.97172,-4.375545,-10.719579
593,4143027315,-130.0407,-4.017021,50.69089,0.93565464,-1.4557992,0.5769681,-138.9049,-222.7065,279.6719,1.329361,-1.992678,0.08915,-28.286802,-8.08732,-6.058381
594,4143043982,-103.15108,-3.6512985,37.032665,-0.54119587,-1.7316867,-1.0232217,-137.32948,-228.75287,286.8416,1.320341,-2.021539,0.072096,-30.575627,-11.899868,-1.277687
595,4143060649,-72.51775,-2.3199768,22.07346,-2.2514038,-2.1606743,-2.712785,-135.54378,-235.45952,295.0493,1.282818,-2.05755,0.026883,-32.83469,-15.824193,3.639801
596,4143077316,-38.649055,-2.0588684,4.170848,-4.492917,-2.3430247,-4.8655167,-125.49303,-233.98177,292.32648,1.207936,-2.0966,-0.054209,-34.92624,-19.723889,8.511909
597,4143093983,-1.3392944,-2.3362732,-16.374765,-7.224847,-2.3763704,-7.4022017,-108.80753,-226.19215,281.22116,1.087522,-2.136206,-0.177579,-36.739699,-23.493758,13.198928
598,4143110650,24.07872,-2.6377182,-31.306688,-8.874047,-2.7004972,-9.032917,-97.128075,-214.87155,267.3156,0.939621,-2.181214,-0.328128,-38.3585,-27.074951,17.654188
599,4143127317,36.019005,-3.171997,-40.06322,-9.338243,-3.305504,-9.683939,-90.34563,-198.91766,249.31387,0.783984,-2.236306,-0.489527,-39.86426,-30.390245,21.809419
600,4143143984,41.883057,-3.8323746,-46.385223,-9.345195,-4.046584,-9.91749,-83.84562,-178.03148,225.97865,0.628231,-2.303749,-0.654819,-41.261687,-33.357436,25.57573
601,4143160651,37.233162,-4.558037,-48.00563,-8.4679575,-5.0311403,-9.383623,-80.43388,-152.42035,198.12793,0.487098,-2.387601,-0.811213,-42.602252,-35.897775,28.877862
602,4143177318,30.966751,-6.1825905,-50.198357,-7.7076006,-5.8994317,-8.935411,-71.05975,-117.90675,159.08054,0.358638,-2.485925,-0.960137,-43.786581,-37.862888,31.529204
603,4143193985,23.473549,-8.736801,-53.23763,-7.123273,-6.634577,-8.615521,-55.091385,-74.04424,108.20826,0.239917,-2.596501,-1.103729,-44.704771,-39.096959,33.332675
604,4143210652,6.278183,-11.785744,-52.4939,-5.8433657,-7.5049915,-7.6913996,-39.289833,-22.773922,49.150547,0.142528,-2.721584,-1.231919,-45.359602,-39.476524,34.151851
605,4143227319,-18.97578,-15.533405,-49.02334,-4.073292,-8.432625,-6.335368,-21.578884,37.122257,-19.91429,0.07464,-2.862128,-1.337508,-45.71925,-38.85782,33.819946
606,4143243986,-32.01834,-17.437733,-47.215008,-2.9723883,-8.784269,-5.400975,-7.445514,78.91032,-68.36402,0.0251,-3.008532,-1.427524,-45.843342,-37.542648,32.680546
607,4143260653,-32.187103,-17.232735,-46.835987,-2.5351696,-8.524811,-4.8706665,1.8606176,100.00878,-93.0928,-0.017153,-3.150612,-1.508702,-45.812332,-35.875835,31.128999
608,4143277320,-28.199501,-16.283844,-46.44023,-2.3426409,-7.8957524,-4.4470844,10.440098,114.112785,-110.096886,-0.056197,-3.282208,-1.58282,-45.63833,-33.973955,29.294051
609,4143293987,-14.80896,-13.875645,-47.0268,-2.6834612,-6.720572,-4.3371572,16.5574,113.710526,-110.73846,-0.100921,-3.394218,-1.655106,-45.362373,-32.07878,27.44841
610,4143310654,-6.268944,-11.391689,-44.750484,-2.6512356,-5.430015,-3.8435304,21.813736,114.1306,-112.23937,-0.145108,-3.484718,-1.719165,-44.998811,-30.176603,25.577754
611,4143327321,-3.4711304,-8.93745,-39.368626,-2.199418,-4.033926,-2.9281552,26.477793,116.39252,-115.79374,-0.181765,-3.55195,-1.767968,-44.557514,-28.236728,23.647858
612,4143343988,5.12825,-5.1925774,-33.570995,-2.0209208,-2.1570587,-2.107876,28.164646,106.20767,-105.169304,-0.215447,-3.587901,-1.803099,-44.088103,-26.4666,21.895036
613,4143360655,16.448769,-0.4368286,-26.46252,-1.9193411,0.12079048,-1.2279372,27.151726,86.64452,-83.81371,-0.247436,-3.585888,-1.823565,-43.635574,-25.022525,20.498141
614,4143377322,23.05632,2.6474762,-20.89282,-1.6767645,1.5926204,-0.54587793,28.165478,75.85517,-72.51849,-0.275382,-3.559344,-1.832663,-43.166149,-23.758272,19.289499
615,4143393989,25.62854,3.990509,-17.388674,-1.3511295,2.1935735,-0.14329219,31.193443,73.49367,-70.88804,-0.297901,-3.522784,-1.835051,-42.646258,-22.533378,18.108032
616,4143410656,25.58216,4.6927032,-13.929974,-0.9089527,2.4476728,0.21117926,34.058167,72.75849,-71.07924,-0.31305,-3.481989,-1.831531,-42.078622,-21.320736,16.923378
617,4143427323,21.220802,4.0616074,-11.368044,-0.3096199,2.0293484,0.4296329,37.86806,77.989334,-78.05468,-0.31821,-3.448167,-1.82437,-41.447488,-20.020914,15.622467
618,4143443990,19.77153,4.005272,-8.656189,0.14483166,1.7480989,0.5333011,39.18317,74.701195,-75.266,-0.315796,-3.419032,-1.815482,-40.794435,-18.775894,14.368034
619,4143460657,21.439629,4.6308823,-5.629325,0.45320702,1.6456909,0.5354328,37.66971,61.952812,-61.620132,-0.308243,-3.391604,-1.806558,-40.166607,-17.743347,13.341032
620,4143477324,21.238556,4.3986053,-3.562111,0.7968607,1.0340238,0.34311914,35.891216,50.44279,-49.334694,-0.294962,-3.37437,-1.800839,-39.56842,-16.902634,12.518787
621,4143493991,20.72297,3.7148285,-2.2369146,1.110858,0.07836962,-0.043729544,33.006474,36.868675,-34.62644,-0.276448,-3.373064,-1.801568,-39.018312,-16.288156,11.94168
622,4143510658,23.938667,3.5157166,0.075935364,1.3442144,-0.46067905,-0.22630215,30.881823,27.360586,-24.406384,-0.254044,-3.380742,-1.80534,-38.503615,-15.832146,11.534907
623,4143527325,30.798317,3.702057,3.3283548,1.5055084,-0.6018264,-0.18907285,29.933916,23.626177,-20.607817,-0.228952,-3.390772,-1.808491,-38.004716,-15.438376,11.191443
624,4143543992,40.521675,4.1035233,6.811904,1.5697689,-0.60094714,-0.12911832,28.628859,20.361238,-17.198202,-0.202789,-3.400788,-1.810643,-37.527568,-15.099022,10.904806
625,4143560659,54.18592,4.9275055,10.921828,1.5220165,-0.27391863,0.054086685,27.531647,19.562761,-16.425356,-0.177422,-3.405353,-1.809742,-37.068707,-14.772976,10.63105
626,4143577326,68.18571,5.2320023,14.323064,1.438282,-0.24946952,0.100162506,26.070526,20.186611,-17.130533,-0.153451,-3.409511,-1.808073,-36.634198,-14.436532,10.345541
627,4143593993,82.54127,4.9859314,16.902504,1.3112364,-0.5599997,-0.014972091,24.097425,21.853739,-18.871855,-0.131597,-3.418844,-1.808323,-36.232574,-14.072303,10.03101
628,4143610660,100.03997,4.8236084,19.62637,1.0863571,-0.74113417,-0.07977033,22.386251,26.903389,-24.268013,-0.113491,-3.431196,-1.809653,-35.85947,-13.623913,9.626543
629,4143627327,120.01771,4.5376663,22.172981,0.77450943,-0.9315896,-0.15466511,20.797693,35.158894,-33.11463,-0.100583,-3.446722,-1.812231,-35.512842,-13.037931,9.074632
630,4143643994,124.33463,4.126129,25.371567,0.34252644,-0.8966756,-0.16619205,23.015398,42.605247,-42.011265,-0.094874,-3.461667,-1.815001,-35.129252,-12.327844,8.374444
631,4143660661,111.52824,3.6471252,29.39006,-0.22245312,-0.5624747,-0.08297539,29.549536,49.367676,-51.206165,-0.098582,-3.471042,-1.816384,-34.63676,-11.505049,7.521008
632,4143677328,89.71502,2.9484863,33.588665,-0.9015684,-0.13769126,0.016947389,38.600506,57.379013,-62.340786,-0.113608,-3.473337,-1.816102,-33.993418,-10.548732,6.481995
633,4143693995,53.77323,2.0376205,38.215294,-1.7090225,0.457855,0.16128314,51.301765,65.77432,-74.76165,-0.142092,-3.465706,-1.813414,-33.138389,-9.452493,5.235967
634,4143710662,14.989616,1.0719681,42.988407,-2.649129,1.2045145,0.3555658,65.72133,77.54485,-91.17683,-0.186244,-3.445631,-1.807488,-32.043034,-8.160079,3.716353
635,4143727329,-26.183868,0.031921387,47.848537,-3.725731,2.090804,0.59570265,81.825035,93.0536,-111.96455,-0.24834,-3.410784,-1.79756,-30.679283,-6.609186,1.850277
636,4143743996,-79.99582,-1.1581726,53.151485,-4.952758,3.2018356,0.90560216,101.65086,110.21108,-135.3909,-0.330886,-3.35742,-1.782467,-28.985102,-4.772335,-0.406238
637,4143760663,-144.31036,-2.472725,58.83231,-6.335702,4.5379896,1.288219,124.89884,129.80922,-162.22331,-0.436481,-3.281787,-1.760997,-26.903455,-2.608848,-3.10996
638,4143777330,-188.91876,-4.3504868,63.540783,-7.0978556,5.4972167,1.5345348,138.71329,140.84453,-177.69649,-0.554779,-3.190167,-1.735421,-24.591567,-0.261439,-6.071568
639,4143793997,-212.3498,-6.844166,67.19802,-7.166499,6.0411296,1.6312438,142.17046,142.06616,-180.25891,-0.674221,-3.089482,-1.708234,-22.222059,2.10633,-9.075883
640,4143810664,-227.64233,-9.733837,70.399925,-6.9135866,6.461368,1.6820023,141.21683,139.2945,-177.51416,-0.789447,-2.981793,-1.680201,-19.868445,4.427905,-12.034452
641,4143827331,-226.72052,-13.148918,72.78082,-6.11814,6.597059,1.6313483,132.31487,129.36258,-165.25015,-0.891416,-2.871842,-1.653012,-17.663197,6.583948,-14.788621
642,4143843998,-230.0195,-16.87165,75.19901,-5.2357845,6.822724,1.6081495,123.543236,118.27199,-151.77423,-0.978679,-2.75813,-1.62621,-15.604143,8.555148,-17.318192
643,4143860665,-238.62952,-20.894123,77.69793,-4.288458,7.1652675,1.6225268,115.34283,106.4107,-137.60236,-1.050153,-2.638709,-1.599168,-13.681763,10.32866,-19.611565
644,4143877332,-235.34729,-25.44463,79.5284,-2.8498783,7.299997,1.5630798,100.56653,87.94629,-114.82708,-1.097651,-2.517042,-1.573117,-12.005654,11.794431,-21.52535
645,4143893999,-224.38934,-30.486984,80.862206,-1.0064268,7.3065734,1.4577405,80.83536,64.03885,-85.06711,-1.114425,-2.395266,-1.548821,-10.658398,12.861745,-22.943135
646,4143910666,-219.30948,-33.078026,81.66659,0.17501068,7.23527,1.5213606,62.06616,40.49792,-55.49843,-1.111508,-2.274678,-1.523465,-9.623962,13.53671,-23.868109
647,4143927333,-219.12811,-32.957897,81.82781,0.65401363,7.046779,1.761177,43.806305,16.96361,-25.586725,-1.100608,-2.157232,-1.494112,-8.893857,13.819437,-24.294554
648,4143944000,-220.1059,-31.491528,81.46002,0.88651276,6.7678733,2.0948646,24.217361,-8.70317,7.1902494,-1.085833,-2.044434,-1.459198,-8.490234,13.674384,-24.174717
649,4143960667,-225.29828,-27.843307,80.50879,0.5929003,6.396666,2.579678,4.5875993,-35.24355,41.307842,-1.075951,-1.937823,-1.416203,-8.413774,13.086992,-23.486253
650,4143977334,-222.182,-23.774231,78.77683,0.51385975,5.8185096,3.0640974,-20.521141,-67.718185,83.21046,-1.067387,-1.840848,-1.365135,-8.755793,11.958356,-22.099412
651,4143994001,-210.11584,-19.360214,76.23958,0.6922951,5.026235,3.542401,-51.470806,-106.54708,133.4245,-1.055849,-1.757077,-1.306095,-9.61364,10.182571,-19.87567
652,4144010668,-197.72876,-12.968521,72.922035,0.51967907,4.067692,4.140483,-84.593506,-148.2972,187.65356,-1.047188,-1.689282,-1.237087,-11.023532,7.710951,-16.748111
653,4144027335,-182.16803,-4.930313,68.75487,0.15291977,2.9114485,4.8281345,-121.18556,-194.2174,247.4946,-1.044639,-1.640758,-1.156618,-13.043291,4.473994,-12.623201
654,4144044002,-165.87576,-0.0009460449,62.568317,-0.26115417,1.7766027,4.681044,-146.55255,-225.68561,288.64172,-1.048992,-1.611148,-1.078601,-15.485834,0.712567,-7.812506
655,4144060669,-149.86928,1.5961227,54.208347,-0.78680134,0.68088174,3.6219203,-158.90822,-240.55278,308.32202,-1.062105,-1.5998,-1.018236,-18.134304,-3.296646,-2.673806
656,4144077336,-130.84639,1.9209976,44.141594,-1.3911734,-0.50858283,2.0649548,-166.15138,-248.54347,319.21198,-1.085291,-1.608276,-0.98382,-20.903494,-7.439037,2.646394
657,4144094003,-109.60177,-0.2919464,31.996624,-2.0591002,-1.7352941,-0.25217736,-164.01074,-244.26253,314.28494,-1.119609,-1.637198,-0.988023,-23.637006,-11.510079,7.884476
658,4144110670,-86.70799,-1.817955,18.403843,-3.0366821,-3.123655,-2.7639992,-160.15434,-237.74225,306.68564,-1.17022,-1.689259,-1.03409,-26.306245,-15.47245,12.995903
659,4144127337,-61.796978,-2.4788742,3.3402205,-4.3343267,-4.6907344,-5.449195,-155.07074,-229.5694,297.19073,-1.242459,-1.767438,-1.12491,-28.890757,-19.298607,17.949082
660,4144144004,-35.2336,-4.977455,-13.87562,-5.827113,-6.3293133,-8.827443,-141.08119,-209.86752,272.9066,-1.339578,-1.872927,-1.272034,-31.24211,-22.796399,22.497525
661,4144160671,-7.042801,-8.6432,-33.16706,-7.5765066,-8.070417,-12.793399,-119.630104,-180.5229,236.3158,-1.465853,-2.007434,-1.485257,-33.235945,-25.805114,26.436122
662,4144177338,12.901077,-10.726738,-46.74051,-8.630248,-9.195553,-15.102312,-103.200424,-154.77414,205.05292,-1.60969,-2.160693,-1.736962,-34.955952,-28.384683,29.853671
663,4144194005,23.48188,-11.313225,-53.94241,-8.890782,-9.619148,-15.607954,-91.76762,-132.31401,178.765,-1.75787,-2.321012,-1.997095,-36.485412,-30.589917,32.833088
664,4144210672,29.304077,-11.269451,-58.42811,-8.857692,-9.700531,-15.308397,-80.15722,-107.8284,150.3753,-1.905498,-2.482688,-2.252235,-37.821366,-32.387057,35.339343
665,4144227339,27.431824,-9.930515,-58.00965,-8.262254,-9.227602,-13.587945,-71.39345,-84.39842,124.01883,-2.043202,-2.636481,-2.478701,-39.011257,-33.793697,37.406323
666,4144244006,23.579239,-9.610203,-57.421604,-7.631362,-8.590635,-11.893173,-55.992897,-51.42524,85.67452,-2.170391,-2.779658,-2.676921,-39.944472,-34.650784,38.834232
667,4144260673,17.901367,-10.414719,-56.89957,-7.001754,-7.8057756,-10.2953,-33.250454,-8.069136,34.25457,-2.287087,-2.909754,-2.848509,-40.498646,-34.78527,39.405142
668,4144277340,4.8180923,-10.642136,-52.127132,-5.8726873,-6.4832463,-7.529022,-10.315655,38.00659,-20.032413,-2.384965,-3.017808,-2.973993,-40.670574,-34.151827,39.071268
669,4144294007,-14.687447,-10.796825,-44.022854,-4.3491306,-4.6919413,-3.8825023,15.000967,89.32578,-80.50205,-2.457451,-3.096007,-3.038701,-40.420558,-32.663064,37.729567
670,4144310674,-24.408653,-10.535099,-38.853466,-3.31985,-3.4713674,-1.593673,33.39107,124.17077,-122.05858,-2.512782,-3.153863,-3.065262,-39.86404,-30.593551,35.695257
671,4144327341,-23.676052,-9.636326,-36.586967,-2.797306,-2.8591344,-0.7052984,43.17057,139.63283,-141.19395,-2.559404,-3.201515,-3.077017,-39.14453,-28.266337,33.342024
672,4144344008,-19.698162,-8.617092,-34.77959,-2.422329,-2.3962154,-0.33556294,50.314407,147.8213,-152.18823,-2.599776,-3.241452,-3.08261,-38.305957,-25.802649,30.805553
673,4144360675,-8.240173,-7.33144,-34.963097,-2.4193869,-2.351808,-1.0596104,51.96464,142.3429,-147.61775,-2.640099,-3.280649,-3.10027,-37.43988,-23.430267,28.345257
674,4144377342,-0.43714142,-5.5458794,-32.26296,-2.1357222,-2.0045881,-1.2298119,51.841187,134.0424,-139.69258,-2.675694,-3.314059,-3.120767,-36.57586,-21.196227,26.017047
675,4144394009,2.9871216,-3.2880096,-26.363522,-1.531909,-1.3067056,-0.75900793,50.296856,123.655525,-129.28308,-2.701226,-3.335837,-3.133417,-35.737579,-19.135302,23.862329
676,4144410676,11.178474,-0.5318756,-20.940464,-1.1208811,-0.84480953,-0.9572308,42.85872,99.98071,-103.56778,-2.719907,-3.349917,-3.149371,-35.023267,-17.468957,22.136199
677,4144427343,21.734306,2.7817078,-14.894116,-0.7600241,-0.46187568,-1.4735227,30.180433,65.03498,-64.8096,-2.732574,-3.357615,-3.17393,-34.52026,-16.385041,21.056039
678,4144444010,29.999886,4.980011,-9.593393,-0.40298176,-0.09464955,-1.617928,23.907536,44.784725,-42.595814,-2.73929,-3.359192,-3.200895,-34.121801,-15.638629,20.346109
679,4144460677,36.66005,5.9305954,-5.569393,-0.105828285,0.190444,-1.4830279,24.372047,39.942226,-37.703094,-2.741054,-3.356018,-3.225612,-33.7156,-14.972925,19.717724
680,4144477344,42.299988,6.4813156,-1.3855896,0.20772171,0.46944308,-1.1588151,26.314009,39.235214,-37.244915,-2.737592,-3.348194,-3.244926,-33.277033,-14.319005,19.096975
681,4144494011,45.953247,6.1770325,2.4692583,0.53310966,0.7372694,-0.49751496,32.68075,49.292118,-48.748116,-2.728707,-3.335906,-3.253218,-32.732354,-13.49747,18.284506
682,4144510678,52.646492,5.997345,5.910041,0.71436214,0.80846834,-0.23971367,35.39759,51.81187,-51.33758,-2.716801,-3.322432,-3.257213,-32.142394,-12.633939,17.42888
683,4144527345,62.541725,6.015457,9.0280905,0.75166035,0.6793442,-0.4068823,33.852955,45.559364,-43.575436,-2.704273,-3.31111,-3.263994,-31.578178,-11.874616,16.702623
684,4144544012,72.39773,5.348854,11.408391,0.7129469,0.42905664,-0.514323,34.50487,45.196335,-42.136185,-2.692391,-3.303959,-3.272566,-31.003097,-11.121344,16.000353
685,4144560679,83.33996,4.2025375,13.013938,0.5613222,0.0113482475,-0.7255018,35.53799,46.694668,-42.401943,-2.683036,-3.30377,-3.284658,-30.410797,-10.3431,15.293654
686,4144577346,87.44788,3.619339,15.796531,0.46534157,-0.22873878,-0.76509,36.35334,46.646767,-41.965794,-2.67528,-3.307582,-3.297409,-29.804908,-9.565654,14.594224
687,4144594013,83.64567,3.5791245,19.823643,0.4403944,-0.26001835,-0.5628934,37.638767,46.46376,-42.56125,-2.66794,-3.311916,-3.306791,-29.177595,-8.791258,13.88487
688,4144610680,76.49372,3.7179413,24.099628,0.37519836,-0.28607917,-0.36993408,38.396965,44.973526,-42.12073,-2.661687,-3.316684,-3.312957,-28.537646,-8.041699,13.182858
689,4144627347,63.676125,4.289032,29.10672,0.3126974,-0.2153523,-0.102241874,38.66592,41.718292,-40.531963,-2.656475,-3.320273,-3.314661,-27.893214,-7.346394,12.507325
690,4144644014,48.960045,4.4567184,33.58714,0.16826153,-0.23560214,0.20109427,40.334354,42.302032,-43.28868,-2.653671,-3.3242,-3.311309,-27.220975,-6.64136,11.785847
691,4144660681,32.643105,4.1763535,37.410053,-0.07286072,-0.36965132,0.5166999,43.370014,46.77635,-50.39163,-2.654885,-3.330361,-3.302697,-26.498141,-5.861754,10.945987
692,4144677348,10.763283,4.072365,41.585976,-0.33489895,-0.44809365,0.93645686,46.921913,52.099136,-59.178646,-2.660467,-3.337829,-3.287089,-25.716109,-4.993435,9.959676
693,4144694015,-15.966476,3.960617,45.81339,-0.64025307,-0.5150094,1.4493803,51.41606,59.53887,-70.91326,-2.671138,-3.346412,-3.262933,-24.859175,-4.00112,8.777788
694,4144710682,-39.808865,2.9894257,49.719784,-1.1293898,-0.2209239,1.7158203,58.318966,67.10857,-82.33158,-2.689961,-3.350094,-3.234336,-23.887192,-2.882644,7.405595
695,4144727349,-60.659454,1.1393433,53.372517,-1.8089457,0.491503,1.7192707,67.78416,74.47548,-93.07093,-2.72011,-3.341902,-3.205681,-22.757456,-1.641386,5.854413
696,4144744016,-81.822395,-1.3221893,56.71935,-2.6309242,1.4281907,1.6144928,79.48636,83.59711,-105.723816,-2.763959,-3.318099,-3.178773,-21.432683,-0.248101,4.092349
697,4144760683,-101.37328,-4.6263084,59.674877,-3.634632,2.697947,1.3121452,93.91096,93.985695,-119.49208,-2.824536,-3.273133,-3.156904,-19.8675,1.318327,2.100814
698,4144777350,-124.93347,-8.131161,62.66293,-4.7269917,4.138761,1.026365,110.03407,106.10004,-135.69635,-2.903319,-3.204154,-3.139798,-18.033599,3.086661,-0.160792
699,4144794017,-152.90683,-11.828327,65.666885,-5.907666,5.744168,0.77092683,127.94289,120.2434,-154.72845,-3.00178,-3.108418,-3.126949,-15.901218,5.090718,-2.7396
700,4144810684,-180.91623,-16.247406,68.396484,-7.259488,7.69741,0.36252594,148.6524,135.8579,-175.35735,-3.122771,-2.980128,-3.120907,-13.423678,7.355016,-5.662222
701,4144827351,-210.23105,-21.268559,70.92741,-8.766469,9.973183,-0.15384305,172.05165,153.16548,-198.01378,-3.268879,-2.813908,-3.123471,-10.55615,9.907774,-8.962452
702,4144844018,-232.61841,-24.691261,73.5645,-9.3269,11.217125,-0.336226,179.29936,156.481,-203.00189,-3.424327,-2.626956,-3.129075,-7.567827,12.515791,-12.345817
703,4144860685,-246.74457,-26.368954,76.30001,-8.841489,11.326538,-0.16429698,168.68184,144.17389,-188.21239,-3.571685,-2.43818,-3.131813,-4.756463,14.918689,-15.48269
704,4144877352,-257.3658,-27.266293,79.033936,-7.818528,10.93013,0.18351209,149.03786,123.80673,-163.24275,-3.701994,-2.256011,-3.128754,-2.272499,16.982135,-18.203403
705,4144894019,-261.95813,-26.775696,81.840645,-5.9436846,9.652658,0.8265692,115.005325,90.83478,-122.36828,-3.801055,-2.095133,-3.114978,-0.355744,18.496048,-20.242874
706,4144910686,-264.1961,-26.323982,84.44496,-3.8754988,8.332693,1.4626374,77.81003,54.291245,-76.7814,-3.865647,-1.956255,-3.090601,0.94109,19.400902,-21.522564
707,4144927353,-264.2923,-25.975555,86.83253,-1.6406097,7.0143056,2.0795295,37.951794,14.561999,-26.96654,-3.89299,-1.83935,-3.055942,1.57362,19.643602,-21.972006
708,4144944020,-258.07016,-24.478863,89.201256,1.3743553,4.946816,2.933354,-15.009113,-36.999565,37.881134,-3.870084,-1.756903,-3.007053,1.323468,19.026943,-21.340654
709,4144960687,-246.13644,-22.11443,91.48951,5.0469203,2.2962437,3.9641635,-78.95738,-98.736496,115.71873,-3.785969,-1.718632,-2.940984,0.007512,17.381335,-19.412009
710,4144977354,-232.66245,-20.0638,90.345055,6.9519444,0.564275,4.316454,-123.09806,-144.34229,172.96693,-3.670103,-1.709227,-2.869043,-2.044122,14.97563,-16.529227
711,4144994021,-217.26077,-18.26019,85.44257,6.940921,-0.20854735,3.9393144,-145.96274,-172.57378,208.01524,-3.554421,-1.712703,-2.803388,-4.476834,12.0994,-13.062306
712,4145010688,-198.12703,-16.307499,78.30373,6.0888696,-0.63198423,3.1979427,-160.90565,-194.97948,235.65604,-3.45294,-1.723236,-2.750089,-7.158595,8.849742,-9.134705
713,4145027355,-176.05353,-14.471466,67.95567,3.735289,-0.31646252,1.8579658,-159.72137,-204.57762,246.97247,-3.390685,-1.72851,-2.719123,-9.820618,5.440115,-5.018497
714,4145044022,-147.25833,-11.706718,56.363567,1.4591856,-0.34026194,0.48380768,-163.24338,-219.1463,264.5964,-3.366365,-1.734181,-2.71106,-12.541341,1.787677,-0.608557
715,4145060689,-111.27965,-7.9429436,43.587036,-0.6586504,-0.7615018,-0.8999233,-172.6177,-239.71837,289.85037,-3.377343,-1.746873,-2.726059,-15.418303,-2.207629,4.222283
716,4145077356,-70.46276,-3.9036484,27.751274,-3.986124,-0.710062,-2.7824962,-170.35197,-251.41345,303.76593,-3.443778,-1.758707,-2.772434,-18.257503,-6.397853,9.285049
717,4145094023,-23.760437,0.65805054,9.204259,-8.205062,-0.4143176,-5.0525656,-160.77054,-257.9587,311.08826,-3.580529,-1.765612,-2.856643,-20.937012,-10.697165,14.469853
