PacketCounter,SampleTimeFine,Euler_X,Euler_Y,Euler_Z,Acc_X,Acc_Y,Acc_Z,Gyr_X,Gyr_Y,Gyr_Z,Velo_X,Velo_Y,Velo_Z,ANG_X,ANG_Y,ANG_Z
0,4133177118,0.553566,-5.451893,-80.035805,-1.2697873,-0.18981647,0.3576588,2.2476392,-17.83591,-17.834349,0.0,0.0,0.0,0.0,0.0,0.0
1,4133193785,0.5430603,-5.7989693,-79.67665,-0.8462448,-0.1619153,0.30833226,7.2709217,-19.15554,-19.096806,-0.014104,-0.002699,0.005139,0.121182,-0.319259,-0.31828
2,4133210452,0.5351944,-6.165394,-79.299286,-0.3863039,-0.13539076,0.25610775,12.465227,-20.54108,-20.439932,-0.020542,-0.004956,0.009407,0.328936,-0.66161,-0.658946
3,4133227119,0.53071594,-6.5459023,-78.90944,0.10381031,-0.11015463,0.20151311,17.743288,-21.968159,-21.843386,-0.018812,-0.006792,0.012766,0.624657,-1.027746,-1.023002
4,4133243786,0.5167694,-7.0481224,-78.39128,0.75226784,-0.08621168,0.13291818,24.85953,-23.921219,-23.71974,-0.006274,-0.008229,0.014981,1.038982,-1.426433,-1.418331
5,4133260453,0.4965515,-7.6487846,-77.77003,1.5330448,-0.06397915,0.052832186,33.42131,-26.29486,-25.98128,0.019277,-0.009295,0.015862,1.596004,-1.864681,-1.851352
6,4133277120,0.42687988,-8.176662,-77.06953,1.9895153,-0.02628231,0.008224964,39.936165,-28.128868,-26.96765,0.052436,-0.009733,0.015999,2.261607,-2.333495,-2.300813
7,4133293787,0.3015213,-8.63081,-76.27435,2.0955315,0.028413296,0.0021217465,44.309208,-29.399181,-26.572811,0.087362,-0.009259,0.016034,3.000094,-2.823481,-2.743693
8,4133310454,0.14263153,-9.078899,-75.38698,2.0516748,0.09161997,0.013894677,47.95516,-30.497894,-25.526936,0.121557,-0.007732,0.016266,3.799347,-3.331779,-3.169142
9,4133327121,-0.063064575,-9.478199,-74.4067,1.734293,0.16814041,0.05644709,49.966988,-31.177235,-23.374548,0.150462,-0.00493,0.017207,4.63213,-3.8514,-3.558718
10,4133343788,-0.29444122,-9.95908,-73.28521,1.4440126,0.24799967,0.09938121,52.86282,-32.13145,-21.190228,0.174529,-0.000797,0.018863,5.513177,-4.386924,-3.911888
11,4133360455,-0.550972,-10.529575,-72.017136,1.1963615,0.33059788,0.14127547,56.77735,-33.399662,-19.02492,0.194468,0.004713,0.021218,6.459466,-4.943585,-4.22897
12,4133377122,-0.8556595,-11.089359,-70.621735,0.7331209,0.42516875,0.20871884,59.680344,-34.42541,-15.939758,0.206687,0.011799,0.024697,7.454138,-5.517342,-4.494633
13,4133393789,-1.2052383,-11.667309,-69.08432,0.11527252,0.5297413,0.29569763,62.10486,-35.357246,-12.147879,0.208608,0.020628,0.029625,8.489219,-6.106629,-4.697098
14,4133410456,-1.3227463,-12.148159,-67.656586,-0.40682697,0.66182446,0.34138805,66.00244,-35.23762,-9.217247,0.201828,0.031658,0.035315,9.58926,-6.693923,-4.850719
15,4133427123,-1.1842651,-12.508709,-66.36123,-0.8444042,0.8246598,0.34349865,71.314224,-33.89828,-7.169584,0.187755,0.045402,0.04104,10.77783,-7.258894,-4.970212
16,4133443790,-0.91864014,-12.823185,-65.06557,-1.2782941,1.0090022,0.32706934,77.47591,-31.885315,-5.392728,0.16645,0.062219,0.046491,12.069095,-7.790316,-5.060091
17,4133460457,-0.44760132,-13.054966,-63.83886,-1.6501317,1.2205734,0.27601808,84.96822,-28.896984,-4.286044,0.138948,0.082562,0.051091,13.485232,-8.271932,-5.131525
18,4133477124,0.06225586,-13.24538,-62.53492,-2.1763992,1.4520502,0.23292989,92.133156,-25.335274,-2.678397,0.102675,0.106763,0.054973,15.020785,-8.694187,-5.176165
19,4133493791,0.6033554,-13.397579,-61.141975,-2.8693037,1.703496,0.19994015,98.91306,-21.21505,-0.506155,0.054853,0.135155,0.058305,16.669336,-9.047771,-5.184601
20,4133510458,1.3292084,-13.456562,-59.79296,-3.5745606,1.9841661,0.1418969,106.54081,-16.049622,1.30985,-0.004723,0.168224,0.06067,18.445016,-9.315265,-5.16277
21,4133527125,2.2081528,-13.428387,-58.457,-4.3413415,2.2932558,0.06761545,114.66707,-9.896345,3.0215344,-0.077079,0.206445,0.061797,20.356134,-9.480204,-5.112411
22,4133543792,3.267006,-13.446697,-57.570564,-4.7835193,2.5145154,0.03713113,118.23856,-4.9732227,3.6896768,-0.156804,0.248354,0.062416,22.326777,-9.563091,-5.050916
23,4133560459,4.5332184,-13.513424,-57.197746,-4.846644,2.6381216,0.051881015,116.87939,-1.4053288,3.105692,-0.237581,0.292323,0.063281,24.274767,-9.586513,-4.999154
24,4133577126,5.9782677,-13.5658455,-57.115807,-4.74787,2.7188048,0.089318216,112.715485,1.8442112,1.8784003,-0.316712,0.337636,0.06477,26.153358,-9.555776,-4.967847
25,4133593793,7.6209373,-13.636417,-57.459473,-4.372355,2.7239232,0.16520113,104.3166,4.18548,-0.30057836,-0.389585,0.383035,0.067523,27.891968,-9.486018,-4.972857
26,4133610460,9.492687,-13.629559,-58.014587,-3.905365,2.7236855,0.23547667,94.905624,7.0629807,-3.1329281,-0.454674,0.42843,0.071448,29.473728,-9.368302,-5.025072
27,4133627127,11.600739,-13.536419,-58.776367,-3.358931,2.7216148,0.29833442,84.57812,10.574282,-6.6025,-0.510656,0.47379,0.07642,30.883363,-9.192064,-5.135114
28,4133643794,13.952927,-13.43021,-59.97924,-2.5358386,2.6535282,0.38943464,70.42521,13.493847,-11.15382,-0.55292,0.518015,0.082911,32.057116,-8.967167,-5.321011
29,4133660461,16.563877,-13.288059,-61.590668,-1.4693775,2.5330374,0.49977237,53.040962,16.129562,-16.75387,-0.57741,0.560232,0.091241,32.941132,-8.698341,-5.600242
30,4133677128,18.870495,-13.223667,-62.94004,-0.71142006,2.4812174,0.59902793,40.640186,18.073658,-20.456165,-0.589267,0.601586,0.101225,33.618468,-8.397113,-5.941178
31,4133693795,20.825695,-13.255802,-64.00535,-0.28294754,2.5004377,0.68887216,33.595028,19.12019,-22.062643,-0.593983,0.64326,0.112706,34.178385,-8.078443,-6.308889
32,4133710462,22.711773,-13.3139305,-65.09499,0.061473846,2.5412734,0.7778794,28.352642,19.656956,-22.972244,-0.592958,0.685615,0.125671,34.650929,-7.750827,-6.69176
33,4133727129,24.373535,-13.432377,-66.03841,0.17868042,2.634604,0.8589589,27.0931,19.506107,-22.387297,-0.58998,0.729525,0.139987,35.102481,-7.425725,-7.064882
34,4133743796,26.148354,-13.561283,-67.30296,0.44674683,2.6919804,0.9595029,24.194864,18.577686,-22.161688,-0.582534,0.774391,0.155979,35.505729,-7.116097,-7.434243
35,4133760463,28.059513,-13.696148,-68.925064,0.89087105,2.7081432,1.08077,19.342379,16.860401,-22.414927,-0.567686,0.819527,0.173992,35.828102,-6.83509,-7.807825
36,4133777130,29.803219,-13.893024,-70.53097,1.2016582,2.753145,1.2033899,17.21944,14.209481,-21.530449,-0.547658,0.865413,0.194048,36.115093,-6.598265,-8.166666
37,4133793797,31.449059,-14.142696,-72.226326,1.4611826,2.807787,1.3334506,16.650303,10.570152,-19.89378,-0.523305,0.912209,0.216272,36.392598,-6.422096,-8.498229
38,4133810464,32.855145,-14.299557,-73.57981,1.6729183,2.8522437,1.4544733,14.691265,7.9660463,-18.62839,-0.495423,0.959746,0.240513,36.637452,-6.289329,-8.808702
39,4133827131,33.962353,-14.358906,-74.504005,1.7983322,2.892949,1.5628548,11.66914,6.533058,-17.621466,-0.465451,1.007962,0.266561,36.831938,-6.180445,-9.102393
40,4133843798,34.878033,-14.385311,-75.27531,1.8906536,2.926133,1.6707535,8.217974,5.240446,-16.582813,-0.43394,1.056731,0.294407,36.968904,-6.093104,-9.378773
41,4133860465,35.542885,-14.341427,-75.7561,1.9381332,2.9486275,1.7730193,3.7089295,4.6252046,-15.75135,-0.401638,1.105875,0.323957,37.030719,-6.016017,-9.641296
42,4133877132,35.954056,-14.327694,-76.10464,1.859683,2.9896722,1.874387,1.0988817,3.4320526,-14.041948,-0.370643,1.155703,0.355197,37.049034,-5.958816,-9.875328
43,4133893799,36.104862,-14.351086,-76.33228,1.6534252,3.049708,1.9756546,0.5265732,1.5549326,-11.392521,-0.343086,1.206531,0.388125,37.05781,-5.9329,-10.065203
44,4133910466,35.933033,-14.330257,-76.230644,1.3441439,3.1121287,2.0697708,0.04309845,0.07348895,-8.520835,-0.320684,1.2584,0.422621,37.058528,-5.931675,-10.207217
45,4133927133,35.424824,-14.287273,-75.822845,0.9100113,3.1835408,2.1575572,0.3281598,-1.2893367,-5.1717186,-0.305517,1.311459,0.45858,37.063997,-5.953164,-10.293412
46,4133943800,35.305542,-14.363705,-75.73741,0.7830963,3.2156143,2.20431,0.6759186,-3.2185159,-3.1666048,-0.292465,1.365053,0.495318,37.075262,-6.006806,-10.346189
47,4133960467,35.624214,-14.564236,-75.99425,1.0022955,3.2025003,2.2049825,0.8606334,-5.644352,-2.7460895,-0.27576,1.418428,0.532068,37.089606,-6.100879,-10.391957
48,4133977134,36.01616,-14.837696,-76.29883,1.3439083,3.1720698,2.175891,1.7394586,-8.43081,-2.8570743,-0.253362,1.471296,0.568333,37.118597,-6.241392,-10.439575
49,4133993801,36.674786,-15.222279,-76.80971,1.9273834,3.1105912,2.1061318,3.1049867,-11.729174,-4.0279846,-0.221239,1.523139,0.603435,37.170347,-6.436878,-10.506708
50,4134010468,37.146797,-15.616604,-77.094635,2.504489,3.0419598,2.0133874,4.9295826,-14.878612,-5.3662176,-0.179498,1.573838,0.636991,37.252507,-6.684855,-10.596145
51,4134027135,37.395718,-16.017895,-77.11777,3.0567884,2.9683585,1.8976071,7.322358,-17.855991,-6.7966986,-0.128552,1.623311,0.668618,37.374546,-6.982455,-10.709423
52,4134043802,37.811897,-16.510677,-77.224266,3.812357,2.8657844,1.7394426,10.137922,-21.11055,-9.236213,-0.065013,1.671074,0.697609,37.543511,-7.334297,-10.86336
53,4134060469,38.296352,-17.075344,-77.31518,4.71996,2.7390885,1.541336,13.40624,-24.496777,-12.510029,0.013653,1.716725,0.723298,37.766948,-7.742577,-11.07186
54,4134077136,38.06601,-17.598858,-76.71003,5.352536,2.6517813,1.351264,16.380081,-27.808151,-13.460878,0.102862,1.760921,0.745819,38.039949,-8.206046,-11.296208
55,4134093803,37.09171,-18.081974,-75.37759,5.7000866,2.6065292,1.1701229,18.96381,-31.065475,-11.918041,0.197863,1.804363,0.765321,38.356012,-8.723804,-11.494842
56,4134110470,35.674606,-18.566586,-73.56484,5.932391,2.5762155,0.97554773,21.540842,-34.25812,-9.27271,0.296736,1.8473,0.78158,38.715026,-9.294773,-11.649387
57,4134127137,33.604683,-19.024784,-71.08382,5.9389706,2.5776227,0.7793284,23.887695,-37.332195,-4.676318,0.395719,1.89026,0.794569,39.113154,-9.916976,-11.727326
58,4134143804,31.428967,-19.546894,-68.403465,6.0271034,2.5676823,0.5467053,26.453127,-40.516476,-0.20286727,0.496171,1.933055,0.803681,39.554039,-10.592251,-11.730707
59,4134160471,29.16719,-20.138088,-65.53275,6.2126093,2.544043,0.27458733,29.25911,-43.801743,4.0354238,0.599714,1.975456,0.808257,40.041691,-11.32228,-11.66345
60,4134177138,26.36105,-20.730389,-62.06701,6.247884,2.5426593,-0.0103084445,31.877079,-47.022007,9.812,0.703845,2.017834,0.808085,40.572976,-12.10598,-11.499917
61,4134193805,23.118534,-21.343822,-58.092712,6.1976423,2.5545728,-0.31621087,34.391148,-50.216667,16.702188,0.807139,2.06041,0.802815,41.146162,-12.942924,-11.221547
62,4134210472,19.340355,-21.807331,-53.559242,6.0835934,2.5458157,-0.5112097,37.03913,-52.927628,21.255365,0.908532,2.10284,0.794295,41.763481,-13.825051,-10.867291
63,4134227139,14.950127,-22.09586,-48.397507,5.8760996,2.5177677,-0.57906234,39.77418,-55.08317,23.366854,1.006467,2.144803,0.784644,42.426384,-14.743104,-10.477843
64,4134243806,10.056728,-22.303638,-42.674606,5.606991,2.480699,-0.58763206,42.524986,-56.917328,24.393326,1.099917,2.186148,0.77485,43.135134,-15.691726,-10.071288
65,4134260473,4.6048813,-22.378979,-36.34781,5.271717,2.4265065,-0.4979871,45.328114,-58.286476,23.426476,1.187779,2.22659,0.76655,43.890603,-16.663167,-9.680847
66,4134277140,-1.4837799,-22.403126,-29.316927,4.791275,2.3844707,-0.3799116,47.91511,-59.39338,22.937061,1.267634,2.266331,0.760218,44.689188,-17.653057,-9.298563
67,4134293807,-8.221771,-22.380276,-21.562931,4.162508,2.3559322,-0.23668885,50.257034,-60.23939,23.03742,1.337009,2.305597,0.756273,45.526805,-18.657047,-8.914606
68,4134310474,-15.634483,-22.222065,-13.080446,3.4160795,2.3196633,0.0021927953,52.502293,-60.58549,21.708042,1.393944,2.344258,0.75631,46.401843,-19.666805,-8.552805
69,4134327141,-23.756226,-21.942196,-3.8279781,2.5309534,2.2820911,0.3243186,54.575954,-60.458138,19.456968,1.436127,2.382293,0.761715,47.311442,-20.674441,-8.228522
70,4134343808,-30.009964,-21.613209,3.4348862,1.7261505,2.2728286,0.50821346,55.159576,-59.384174,19.234076,1.464896,2.420173,0.770185,48.230768,-21.664177,-7.907954
71,4134360475,-34.157722,-21.225773,8.45015,1.0206842,2.292691,0.54364353,54.11504,-57.262924,21.070963,1.481907,2.458385,0.779246,49.132685,-22.618559,-7.556771
72,4134377142,-37.449005,-20.750027,12.55927,0.29191875,2.332435,0.52925915,51.98862,-54.31247,23.90555,1.486772,2.497259,0.788067,49.999162,-23.523767,-7.158345
73,4134393809,-39.154808,-20.198544,14.980374,-0.40140724,2.4001837,0.4066308,48.38418,-50.366226,28.498041,1.480082,2.537262,0.794844,50.805565,-24.363204,-6.683378
74,4134410476,-40.78547,-19.50056,17.327183,-1.1834998,2.473706,0.32516187,44.06569,-45.604046,32.597294,1.460357,2.57849,0.800263,51.539993,-25.123271,-6.14009
75,4134427143,-42.420486,-18.647175,19.684593,-2.0671992,2.5527897,0.29412967,39.032867,-40.006023,36.108456,1.425904,2.621036,0.805165,52.190541,-25.790038,-5.538282
76,4134443810,-42.653755,-17.67989,20.547047,-2.9411445,2.6559398,0.18902475,32.527885,-33.309994,40.80724,1.376885,2.665302,0.808315,52.732672,-26.345205,-4.858161
77,4134460477,-41.77636,-16.578594,20.22506,-3.8333602,2.7790737,0.04157704,24.668827,-25.520447,46.225323,1.312996,2.71162,0.809008,53.143819,-26.770546,-4.087739
78,4134477144,-41.687317,-15.603245,20.861917,-4.5153265,2.8514023,-0.050890148,22.050734,-20.34174,49.181023,1.237741,2.759143,0.80816,53.511331,-27.109575,-3.268055
79,4134493811,-42.357025,-14.780361,22.436565,-4.948833,2.8684955,-0.09479016,25.207008,-18.08321,49.573902,1.15526,2.806951,0.80658,53.931448,-27.410962,-2.441823
80,4134510478,-43.04721,-13.9697,24.105747,-5.2594085,2.8613424,-0.1151824,31.083324,-16.978031,48.5887,1.067603,2.85464,0.80466,54.449503,-27.693929,-1.632011
81,4134527145,-44.21148,-13.244007,26.386633,-5.375316,2.8105462,-0.08952242,41.526386,-18.06091,45.37532,0.978014,2.901482,0.803168,55.141609,-27.994944,-0.875756
82,4134543812,-44.34118,-12.457157,27.60024,-5.400508,2.7625744,-0.106517136,52.488815,-19.087078,42.241444,0.888006,2.947525,0.801393,56.016423,-28.313062,-0.171732
83,4134560479,-43.33113,-11.597446,27.631,-5.338252,2.719643,-0.16976976,63.774315,-19.933826,39.267746,0.799035,2.992852,0.798564,57.079328,-28.645292,0.48273
84,4134577146,-42.29447,-10.801388,27.731009,-5.068658,2.6414404,-0.21683103,79.05102,-22.639824,34.55395,0.714557,3.036876,0.79495,58.396845,-29.022622,1.058629
85,4134593813,-40.88315,-10.038677,27.515663,-4.607131,2.5372338,-0.2671942,97.53325,-26.762337,28.559217,0.637771,3.079163,0.790497,60.022399,-29.468661,1.534616
86,4134610480,-39.5717,-9.393383,27.406183,-4.228641,2.4801228,-0.3779949,107.129196,-27.409828,23.908138,0.567294,3.120498,0.784197,61.807886,-29.925491,1.933085
87,4134627147,-38.518105,-8.894672,27.572763,-3.9367714,2.4717026,-0.5488659,107.16693,-24.392971,20.602966,0.501681,3.161693,0.775049,63.594002,-30.332041,2.276468
88,4134643814,-37.24035,-8.485691,27.534248,-3.604344,2.483126,-0.7672319,102.8807,-19.756618,17.688751,0.441609,3.203078,0.762262,65.30868,-30.661318,2.571281
89,4134660481,-35.89611,-8.19939,27.43874,-3.298212,2.5332823,-1.0485257,90.99529,-12.209666,15.82641,0.386639,3.245299,0.744787,66.825268,-30.864812,2.835055
90,4134677148,-34.463303,-8.025135,27.330957,-2.8181925,2.568656,-1.3445715,79.524185,-5.1478357,12.958809,0.339669,3.28811,0.722377,68.150671,-30.950609,3.051035
91,4134693815,-32.901573,-7.965992,27.172716,-2.1462722,2.586487,-1.6556647,68.86282,1.2503531,8.983152,0.303898,3.331218,0.694783,69.298385,-30.92977,3.200754
92,4134710482,-31.362854,-8.062031,27.076223,-1.4350533,2.6295712,-2.0200846,52.1408,9.792353,5.48086,0.27998,3.375044,0.661115,70.167398,-30.766564,3.292102
93,4134727149,-29.84079,-8.317654,27.050615,-0.63684654,2.6865847,-2.4291248,30.975471,19.771416,2.0089703,0.269366,3.41982,0.62063,70.683656,-30.43704,3.325585
94,4134743816,-28.501,-8.486362,26.820341,-0.08248806,2.6935353,-2.727566,17.024906,25.646805,-1.7130392,0.267991,3.464712,0.575171,70.967404,-30.009593,3.297034
95,4134760483,-27.397697,-8.55669,26.391987,0.17915344,2.6492655,-2.9052258,10.500938,27.22506,-5.527447,0.270977,3.508866,0.526751,71.14242,-29.555842,3.20491
96,4134777150,-26.46003,-8.655079,25.91339,0.3390255,2.5762668,-3.0301578,6.9078484,26.650951,-9.605337,0.276627,3.551804,0.476248,71.257551,-29.111659,3.044821
97,4134793817,-25.757828,-8.718998,25.326588,0.29822826,2.4577084,-3.059583,9.250932,22.44691,-13.973494,0.281597,3.592766,0.425255,71.411733,-28.737544,2.811929
98,4134810484,-25.233887,-8.911182,24.818289,0.21414757,2.341624,-3.0949988,8.897612,18.551582,-18.061811,0.285166,3.631793,0.373672,71.560027,-28.428351,2.510899
99,4134827151,-24.904701,-9.247692,24.41646,0.09793186,2.2296193,-3.1410916,5.4209747,15.120874,-21.867662,0.286798,3.668953,0.32132,71.650377,-28.176336,2.146438
100,4134843818,-24.876862,-9.596775,23.989737,-0.2190609,2.082995,-3.1093,5.690734,8.894224,-25.682604,0.283147,3.70367,0.269498,71.745223,-28.028099,1.718395
101,4134860485,-25.157875,-9.996838,23.590296,-0.7081938,1.9113944,-3.0197065,7.8852882,0.66268516,-29.376316,0.271344,3.735527,0.21917,71.876644,-28.017054,1.22879
102,4134877152,-25.295097,-10.461468,23.437454,-0.95063686,1.7760615,-2.9500537,8.82466,-4.7545595,-32.62167,0.2555,3.765128,0.170002,72.023722,-28.096297,0.685096
103,4134893819,-25.276886,-10.977711,23.547949,-0.9337816,1.6780095,-2.895151,9.051544,-7.3184805,-35.392395,0.239937,3.793095,0.121749,72.174581,-28.218272,0.095223
104,4134910486,-25.341515,-11.567516,23.86554,-0.84233284,1.5944746,-2.8299997,8.860145,-8.808317,-37.733276,0.225898,3.81967,0.074582,72.32225,-28.365077,-0.533665
105,4134927153,-25.380096,-12.231342,24.457964,-0.5692129,1.541328,-2.7718155,7.6137314,-7.9956427,-39.536102,0.216411,3.845359,0.028385,72.449146,-28.498338,-1.1926
106,4134943820,-25.712692,-12.932865,25.185772,-0.40671158,1.4723356,-2.6501787,8.9738655,-8.578045,-41.050232,0.209632,3.869898,-0.015785,72.59871,-28.641305,-1.876771
107,4134960487,-26.37648,-13.67416,26.058226,-0.3751192,1.3854463,-2.4604025,13.061844,-10.733212,-42.25098,0.20338,3.892989,-0.056792,72.816407,-28.820192,-2.580954
108,4134977154,-27.129105,-14.4734,27.212954,-0.23931217,1.3173597,-2.2505493,17.583012,-11.574831,-42.899815,0.199391,3.914945,-0.094301,73.109457,-29.013106,-3.295951
109,4134993821,-28.051643,-15.323444,28.633362,-0.06378937,1.2584343,-2.003916,23.368992,-11.8886795,-43.023132,0.198328,3.935919,-0.1277,73.49894,-29.211251,-4.013003
110,4135010488,-28.572922,-16.048626,29.646534,0.091721535,1.2325308,-1.770824,27.482841,-11.616527,-42.194286,0.199857,3.956461,-0.157214,73.956987,-29.40486,-4.716241
111,4135027155,-28.614021,-16.631954,30.2128,0.24936199,1.2468157,-1.5602036,29.45795,-10.3984165,-40.316307,0.204013,3.977241,-0.183217,74.447953,-29.578167,-5.388179
112,4135043822,-28.50734,-17.15041,30.648834,0.3927307,1.2839122,-1.3353629,31.315704,-8.785432,-37.58061,0.210559,3.99864,-0.205473,74.969881,-29.724591,-6.014522
113,4135060489,-28.085487,-17.552547,30.774939,0.51303005,1.3523736,-1.1109773,32.211792,-6.648794,-33.83303,0.21911,4.02118,-0.223989,75.506744,-29.835404,-6.578406
114,4135077156,-27.63276,-17.944752,31.034227,0.70277214,1.4485815,-0.8681119,33.306767,-3.2567348,-29.210188,0.230823,4.045323,-0.238458,76.061857,-29.889683,-7.065242
115,4135093823,-27.17263,-18.329449,31.456896,0.9628706,1.572494,-0.6032977,34.784534,1.4013637,-23.68749,0.246871,4.071531,-0.248513,76.641599,-29.866327,-7.460034
116,4135110490,-26.413284,-18.60596,31.668,1.2419004,1.7344532,-0.33863366,35.336666,7.120176,-17.034079,0.267569,4.100439,-0.254157,77.230543,-29.747657,-7.743935
117,4135127157,-25.410172,-18.792828,31.762297,1.5606518,1.9348776,-0.0697754,35.220337,14.095983,-9.243429,0.29358,4.132687,-0.25532,77.817549,-29.512724,-7.897992
118,4135143824,-24.514824,-18.864101,31.716072,1.8183699,2.0487046,0.13663381,35.182133,18.009384,-1.9244937,0.323886,4.166832,-0.253043,78.403918,-29.212568,-7.930067
119,4135160491,-23.714218,-18.799534,31.477047,2.0021496,2.066202,0.27016777,35.08672,18.470573,4.8267765,0.357255,4.201269,-0.24854,78.988697,-28.904725,-7.849621
120,4135177158,-22.870682,-18.618702,31.11736,2.175746,2.0477443,0.36447448,34.72902,17.695381,11.806858,0.393517,4.235398,-0.242465,79.567514,-28.609802,-7.65284
121,4135193825,-22.063858,-18.305614,30.61231,2.3110285,1.958905,0.3985613,34.23217,14.485981,18.591618,0.432034,4.268046,-0.235822,80.13805,-28.368369,-7.34298
122,4135210492,-21.007103,-17.841679,29.877083,2.4538908,1.8759413,0.4052363,32.840244,11.326595,26.221722,0.472932,4.299312,-0.229068,80.685387,-28.179592,-6.905951
123,4135227159,-19.677055,-17.220425,28.906712,2.6103182,1.80357,0.38487023,30.481876,8.3939,34.78158,0.516437,4.329372,-0.222653,81.193418,-28.039694,-6.326258
124,4135243826,-18.27678,-16.431324,27.713053,2.7333317,1.6735544,0.3009706,27.59667,3.3993518,43.395115,0.561993,4.357265,-0.217637,81.653363,-27.983038,-5.603006
125,4135260493,-16.737022,-15.463619,26.269554,2.8330975,1.5013866,0.15823704,23.98262,-3.1495385,52.292923,0.609211,4.382288,-0.215,82.053073,-28.03553,-4.731457
126,4135277160,-16.008125,-14.487362,25.75848,2.8795605,1.3969097,0.07143879,20.428204,-7.8782463,59.645504,0.657204,4.40557,-0.213809,82.393543,-28.166834,-3.737365
127,4135293827,-16.20433,-13.510662,26.289474,2.8625107,1.3613265,0.044841826,17.0195,-10.784325,65.15401,0.704913,4.428259,-0.213062,82.677201,-28.346573,-2.651465
128,4135310494,-16.826698,-12.439114,27.280401,2.8021135,1.3522575,0.025107443,13.206041,-13.154702,69.82925,0.751615,4.450797,-0.212644,82.897302,-28.565818,-1.487644
129,4135327161,-18.152618,-11.314892,29.064558,2.686654,1.3975759,0.041614473,9.192321,-14.149758,73.10178,0.796393,4.47409,-0.21195,83.050507,-28.801647,-0.269281
130,4135343828,-19.678436,-10.026691,30.954536,2.5215778,1.4151714,0.015256286,4.5749025,-16.340279,75.80184,0.838419,4.497676,-0.211696,83.126755,-29.073985,0.994083
131,4135360495,-21.375694,-8.560955,32.911293,2.305956,1.4006472,-0.060132146,-0.72168684,-19.873196,77.96013,0.876852,4.52102,-0.212698,83.114727,-29.405205,2.293418
132,4135377162,-23.747383,-7.006054,35.574883,2.0248032,1.4184358,-0.120771706,-6.3369317,-22.769855,78.62552,0.910599,4.544661,-0.214711,83.009111,-29.784703,3.603843
133,4135393829,-26.70044,-5.334049,38.811264,1.677042,1.4508924,-0.18447018,-12.380621,-25.59348,77.92446,0.93855,4.568843,-0.217786,82.802767,-30.211261,4.902584
134,4135410496,-28.6277,-3.910099,40.804565,1.216958,1.446867,-0.26275474,-17.706245,-26.122387,76.66698,0.958833,4.592957,-0.222165,82.507663,-30.646634,6.180367
135,4135427163,-29.450523,-2.7800713,41.469315,0.63497734,1.4089172,-0.34934688,-22.160671,-23.900402,74.74296,0.969416,4.616439,-0.227987,82.138318,-31.044974,7.426083
136,4135443830,-29.87931,-1.7512817,41.584007,-0.051041603,1.3490589,-0.45135903,-26.368437,-20.35773,71.79024,0.968565,4.638923,-0.23551,81.698844,-31.38427,8.622587
137,4135460497,-29.486855,-0.93126297,40.664085,-0.857605,1.254816,-0.5699979,-29.98968,-14.783624,67.941925,0.954272,4.659837,-0.24501,81.199016,-31.630664,9.754952
138,4135477164,-29.349075,-0.12742996,39.93802,-1.766254,1.1722038,-0.68342173,-33.62477,-7.9528255,62.399704,0.924834,4.679374,-0.2564,80.638603,-31.763211,10.794947
139,4135493831,-29.528862,0.6707039,39.47052,-2.7799268,1.1023333,-0.79177827,-37.30995,0.079755545,55.05057,0.878502,4.697746,-0.269596,80.01677,-31.761882,11.712457
140,4135510498,-29.121368,1.2689743,38.228264,-3.925352,1.0116386,-0.9064775,-40.436184,10.371034,46.348057,0.813079,4.714607,-0.284704,79.342834,-31.589031,12.484925
141,4135527165,-28.3517,1.7025185,36.46438,-5.2025356,0.90964365,-1.0227019,-43.11436,22.813683,36.05642,0.72637,4.729768,-0.301749,78.624261,-31.208803,13.085865
142,4135543832,-28.356766,2.164196,35.405506,-5.935074,0.90299845,-1.2568786,-48.178535,29.539268,27.256449,0.627452,4.744818,-0.322697,77.821285,-30.716482,13.540139
143,4135560499,-29.130829,2.639885,35.035164,-6.0609875,0.99874115,-1.6214539,-55.814346,29.970867,20.252924,0.526436,4.761464,-0.349721,76.891046,-30.216968,13.877688
144,4135577166,-30.283928,3.0541496,34.935627,-5.900734,1.1533754,-2.0581467,-64.74487,27.801949,13.379644,0.42809,4.780687,-0.384023,75.811965,-29.753602,14.100682
145,4135593833,-32.102158,3.4469376,35.410507,-5.26206,1.3968167,-2.6005204,-75.74524,20.869762,7.492972,0.340389,4.803967,-0.427365,74.549544,-29.405773,14.225565
146,4135610500,-33.6895,3.6467552,35.471016,-4.5455437,1.6587241,-3.1846995,-87.00495,14.050999,0.8407798,0.26463,4.831612,-0.480443,73.099461,-29.17159,14.239578
147,4135627167,-35.007126,3.6369057,35.070496,-3.7698812,1.9370325,-3.8074627,-98.429794,7.624483,-6.72261,0.201799,4.863896,-0.543901,71.458964,-29.044515,14.127535
148,4135643834,-36.74427,3.5298462,34.955544,-2.562055,2.2939343,-4.531074,-111.6052,-2.744226,-13.578863,0.159098,4.902128,-0.619419,69.598877,-29.090252,13.901221
149,4135660501,-38.711327,3.2813377,34.912773,-0.9979477,2.7162824,-5.343718,-126.16803,-16.072685,-20.096977,0.142466,4.947399,-0.708481,67.496077,-29.35813,13.566271
150,4135677168,-40.896347,2.9181595,35.410717,-0.07598972,2.8326693,-5.739093,-131.9021,-23.932114,-27.603554,0.1412,4.99461,-0.804133,65.297709,-29.756999,13.106212
151,4135693835,-43.381668,2.4486313,36.58335,0.16163063,2.6147323,-5.675677,-127.98948,-26.098618,-35.997963,0.143894,5.038189,-0.898728,63.164551,-30.191976,12.506246
152,4135710502,-46.046265,1.8224564,38.06449,0.14394379,2.2294235,-5.3847837,-118.99617,-25.94815,-44.88088,0.146293,5.075346,-0.988474,61.181281,-30.624445,11.758231
153,4135727169,-48.912544,1.044693,40.014603,-0.39273357,1.5728793,-4.7238603,-102.040924,-21.289062,-54.543194,0.139747,5.101561,-1.067205,59.480599,-30.979263,10.849178
154,4135743836,-52.171463,0.116817474,42.358124,-0.76298904,0.877059,-4.0019813,-83.42449,-18.181568,-63.791553,0.127031,5.116179,-1.133905,58.090191,-31.282289,9.785985
155,4135760503,-55.82525,-0.97185516,45.082138,-0.92815495,0.15216684,-3.232686,-63.39633,-16.936947,-72.5523,0.111562,5.118715,-1.187783,57.033585,-31.564571,8.57678
156,4135777170,-59.80867,-2.2217865,48.378517,-1.4568801,-0.8104949,-2.1337016,-36.214706,-12.655998,-81.63999,0.087281,5.105207,-1.223345,56.430007,-31.775504,7.216113
157,4135793837,-64.170876,-3.638462,52.24581,-2.2053537,-1.9662437,-0.7639054,-3.0671825,-6.6124716,-90.77483,0.050525,5.072436,-1.236077,56.378887,-31.885712,5.703199
158,4135810504,-66.69207,-4.7803993,54.472687,-2.5248084,-2.8189101,0.067368746,19.237839,-0.53412914,-93.059494,0.008445,5.025454,-1.234954,56.699518,-31.894614,4.152207
159,4135827171,-67.1536,-5.605915,54.883972,-2.4243054,-3.350058,0.32185656,29.89336,6.0357914,-87.84971,-0.03196,4.96962,-1.22959,57.197741,-31.794017,2.688045
160,4135843838,-66.64037,-6.329693,54.536125,-2.1157312,-3.768054,0.34781438,36.161194,13.08229,-78.150894,-0.067222,4.906819,-1.223793,57.800428,-31.575979,1.38553
161,4135860505,-64.518425,-6.826351,52.817123,-1.437314,-3.94248,-0.07065129,33.555187,20.32069,-61.955795,-0.091177,4.841111,-1.224971,58.359681,-31.237301,0.352933
162,4135877172,-62.05468,-7.3582726,51.067123,-0.9139919,-4.220174,-0.3844145,33.464584,30.061314,-43.38276,-0.10641,4.770775,-1.231378,58.917424,-30.736279,-0.370113
163,4135893839,-59.312492,-7.939289,49.363556,-0.56743336,-4.620102,-0.5640764,36.504616,42.396404,-22.524977,-0.115867,4.693773,-1.240779,59.525834,-30.029672,-0.745529
164,4135910506,-55.08838,-8.326199,46.497803,0.00071430206,-4.857272,-1.0707024,33.10591,56.004795,4.5294805,-0.115855,4.612818,-1.258624,60.077599,-29.096259,-0.670038
165,4135927173,-49.621094,-8.569744,42.737694,0.6791668,-5.0045376,-1.7907556,25.625381,71.4386,37.06629,-0.104536,4.529409,-1.28847,60.504689,-27.905616,-0.052266
166,4135943840,-45.79854,-8.620998,40.16149,1.1386042,-4.9499025,-2.2791445,24.223606,78.188286,58.50621,-0.085559,4.446911,-1.326456,60.908416,-26.602478,0.922838
167,4135960507,-43.719185,-8.436199,38.800133,1.3924952,-4.6442537,-2.553386,28.632488,75.12032,67.82925,-0.062351,4.369507,-1.369012,61.385624,-25.350473,2.053325
168,4135977174,-42.148308,-8.0645485,37.832367,1.5197668,-4.186534,-2.7513103,35.56155,67.6081,72.501945,-0.037022,4.299731,-1.414867,61.978317,-24.223671,3.261691
169,4135993841,-41.836723,-7.474758,37.78708,1.438653,-3.5308237,-2.7669194,47.480045,52.63324,68.023895,-0.013044,4.240884,-1.460982,62.769651,-23.34645,4.395423
170,4136010508,-40.76274,-6.622074,37.12683,1.4436073,-2.6642518,-2.9822907,55.933586,35.959415,65.18408,0.011016,4.19648,-1.510687,63.701877,-22.747126,5.481824
171,4136027175,-38.80439,-5.495838,35.7659,1.5410776,-1.5848188,-3.4157972,60.524147,17.914762,64.575455,0.036701,4.170066,-1.567617,64.710613,-22.448547,6.558082
172,4136043842,-37.607635,-4.0800285,34.91633,1.513814,-0.25090837,-3.790628,67.50653,-7.093437,56.881874,0.061931,4.165884,-1.630794,65.835722,-22.566771,7.506113
173,4136060509,-36.73931,-2.3529167,34.246693,1.4220343,1.3486311,-4.1911554,75.0377,-37.974487,44.304432,0.085632,4.188361,-1.700647,67.08635,-23.199679,8.24452
174,4136077176,-35.581337,-1.1746407,33.940636,1.3053875,2.4399097,-4.3837094,81.66137,-56.561897,35.5016,0.107388,4.229026,-1.773709,68.447373,-24.142377,8.836213
175,4136093843,-34.279495,-0.6163559,34.164368,1.1416063,2.9614048,-4.3154926,87.91413,-61.91869,30.031866,0.126415,4.278383,-1.845634,69.912609,-25.174355,9.336744
176,4136110510,-32.837112,-0.24700546,34.608326,0.9515209,3.2937598,-4.156488,93.17918,-62.01627,25.160599,0.142274,4.333279,-1.914909,71.465595,-26.207959,9.756087
177,4136127177,-31.144234,-0.30327606,35.371758,0.73847294,3.2243223,-3.832362,97.20539,-51.990585,22.8865,0.154582,4.387018,-1.978782,73.085685,-27.074469,10.137529
178,4136143844,-29.98484,-0.26856995,36.663002,0.41826153,3.220821,-3.408698,102.40689,-43.93937,15.63479,0.161553,4.440698,-2.035594,74.792467,-27.806792,10.398109
179,4136160511,-29.38453,-0.10695267,38.480858,-0.011048317,3.3141475,-2.895143,108.740456,-38.528492,2.9776988,0.161369,4.495934,-2.083846,76.604808,-28.448934,10.447737
180,4136177178,-28.879257,-0.28252792,40.828674,-0.5075245,3.0851765,-2.1902933,114.80519,-25.501904,-9.731971,0.15291,4.547354,-2.120351,78.518228,-28.873966,10.285537
181,4136193845,-28.650879,-0.6884346,43.76915,-1.0914397,2.629912,-1.3042047,121.098404,-7.3562145,-24.221786,0.134719,4.591186,-2.142088,80.536535,-28.99657,9.881841
182,4136210512,-27.877365,-1.0561028,45.363487,-1.409473,2.3243768,-0.7318785,121.10153,4.3698764,-35.04349,0.111228,4.629926,-2.154286,82.554894,-28.923739,9.297783
183,4136227179,-26.44873,-1.4255981,45.44877,-1.425137,2.145787,-0.5019775,114.032,9.913387,-41.13853,0.087476,4.665689,-2.162652,84.455427,-28.758516,8.612141
184,4136243846,-24.89618,-1.8590431,45.002937,-1.3211613,1.9747727,-0.38216877,103.29882,13.136585,-46.35149,0.065457,4.698602,-2.169021,86.177074,-28.539573,7.839616
185,4136260513,-22.98925,-2.3053627,43.492325,-0.99728584,1.8960316,-0.5043124,86.999466,11.218028,-49.02431,0.048836,4.730203,-2.177426,87.627065,-28.352606,7.022544
186,4136277180,-21.100555,-3.0460396,42.05757,-0.6484575,1.5777442,-0.55192745,68.46535,13.600334,-51.050797,0.038028,4.756499,-2.186625,88.768154,-28.125934,6.171697
187,4136293847,-19.281082,-4.100197,40.77877,-0.2871828,0.99950314,-0.5037365,47.875328,20.741463,-52.71085,0.033242,4.773157,-2.195021,89.566076,-27.780243,5.293183
188,4136310514,-17.14795,-5.2942543,38.6212,0.27312756,0.3919506,-0.6307375,21.83551,25.597652,-51.570896,0.037794,4.77969,-2.205533,89.930001,-27.353615,4.433668
189,4136327181,-14.784813,-6.6979103,35.81969,0.99443436,-0.32206964,-0.86590767,-9.05369,30.226162,-47.995453,0.054368,4.774322,-2.219965,89.779106,-26.849846,3.633744
190,4136343848,-13.054565,-7.6397133,33.92884,1.4071054,-0.7946615,-0.95905644,-28.630007,33.33242,-44.42178,0.07782,4.761078,-2.235949,89.301939,-26.294306,2.893381
191,4136360515,-11.988586,-8.042423,32.955784,1.4929094,-0.97020864,-0.92130595,-35.831955,34.000134,-40.63833,0.102702,4.744908,-2.251304,88.70474,-25.727637,2.216076
192,4136377182,-11.234726,-8.278599,32.311363,1.4518423,-1.0707173,-0.82725334,-37.972366,34.276554,-35.632156,0.126899,4.727063,-2.265092,88.071867,-25.156361,1.622207
193,4136393849,-11.020737,-8.157238,32.38624,1.1604977,-0.9932022,-0.61759984,-30.6336,33.581013,-29.87936,0.146241,4.71051,-2.275385,87.561307,-24.596677,1.124218
194,4136410516,-10.759056,-8.032925,32.004333,0.94261265,-0.88659906,-0.5076682,-24.139784,30.871094,-21.278223,0.161951,4.695733,-2.283846,87.158977,-24.082159,0.769581
195,4136427183,-10.421677,-7.934269,31.102339,0.8164339,-0.7672672,-0.50725543,-19.038216,26.24091,-9.589842,0.175558,4.682945,-2.2923,86.841673,-23.644811,0.60975
196,4136443850,-10.499298,-7.5156593,30.593971,0.5146227,-0.46895504,-0.46066275,-6.295079,19.63187,3.8423991,0.184135,4.675129,-2.299978,86.736755,-23.317613,0.67379
197,4136460517,-10.871994,-6.8485756,30.224981,0.1052742,-0.020954609,-0.41517243,12.012211,10.772268,19.584599,0.18589,4.67478,-2.306898,86.936959,-23.138075,1.0002
198,4136477184,-10.783379,-6.4637794,29.891848,-0.1389761,0.27384806,-0.3800621,24.211264,4.8464313,29.241226,0.183574,4.679344,-2.313232,87.34048,-23.057301,1.487554
199,4136493851,-10.223656,-6.3609657,29.692503,-0.22544193,0.413491,-0.33999372,30.426743,2.2209082,31.904833,0.179817,4.686236,-2.318899,87.847592,-23.020286,2.019301
200,4136510518,-9.473282,-6.3304024,29.501902,-0.23803616,0.52643037,-0.32450956,34.911892,0.1721096,32.000977,0.17585,4.69501,-2.324307,88.429457,-23.017418,2.552651
201,4136527185,-8.337692,-6.5026207,29.322271,-0.10989761,0.53839254,-0.3326823,34.803196,0.07167339,27.136747,0.174018,4.703983,-2.329852,89.00951,-23.016223,3.00493
202,4136543852,-7.3878098,-6.4760017,29.447802,-0.069005966,0.67060757,-0.32046658,39.366047,-1.144599,21.957968,0.172868,4.71516,-2.335193,89.665611,-23.0353,3.370896
203,4136560519,-6.6496887,-6.224758,29.879444,-0.12458801,0.9394598,-0.29038793,49.12075,-3.757566,16.77875,0.170792,4.730818,-2.340033,90.48429,-23.097926,3.650542
204,4136577186,-5.672226,-6.0559273,30.482985,-0.1069994,1.1745288,-0.26325756,57.09231,-5.085065,7.1511884,0.169009,4.750393,-2.344421,91.435829,-23.182677,3.769728
205,4136593853,-4.575142,-5.8796425,31.327833,-0.06497097,1.4263082,-0.23025024,65.32893,-5.8083334,-6.009227,0.167926,4.774165,-2.348259,92.524645,-23.279483,3.669574
206,4136610520,-3.7722702,-5.7709618,31.923115,-0.034713745,1.6273098,-0.16770577,69.53068,-6.7777367,-13.527872,0.167347,4.801287,-2.351054,93.68349,-23.392445,3.444109
207,4136627187,-3.249054,-5.7713585,32.220245,-0.0005464554,1.7522962,-0.07411426,68.4889,-7.7292776,-15.172487,0.167338,4.830492,-2.352289,94.824972,-23.521266,3.191234
208,4136643854,-2.8901596,-5.78162,32.50916,0.020998001,1.8695133,0.046133578,65.66658,-8.718097,-14.753319,0.167688,4.861651,-2.35152,95.919415,-23.666568,2.945345
209,4136660521,-2.7970734,-5.832119,32.657375,0.024749756,1.9549685,0.2004953,59.61789,-9.869371,-9.91234,0.1681,4.894234,-2.348178,96.913046,-23.831058,2.780139
210,4136677188,-2.6108932,-5.9538307,32.921562,0.07593727,2.0078995,0.36901563,51.08565,-10.0361595,-7.1962743,0.169366,4.927699,-2.342028,97.764474,-23.998327,2.660201
211,4136693855,-2.3195114,-6.141308,33.331726,0.17440319,2.032542,0.55273026,40.2383,-9.17513,-6.99311,0.172273,4.961575,-2.332816,98.435112,-24.151246,2.543649
212,4136710522,-2.1875076,-6.4085426,33.6485,0.28438473,2.0067637,0.76913506,25.340593,-7.9234953,-4.0459957,0.177013,4.995021,-2.319997,98.857455,-24.283304,2.476216
213,4136727189,-2.1391068,-6.7639503,33.93033,0.42018127,1.9293833,1.0153623,6.452017,-6.0058975,0.23545218,0.184016,5.027177,-2.303074,98.964989,-24.383402,2.48014
214,4136743856,-2.0815964,-6.9943123,34.183655,0.48924255,1.8704875,1.172607,-5.761114,-4.572946,2.2832084,0.19217,5.058352,-2.283531,98.86897,-24.459618,2.518193
215,4136760523,-2.0359192,-7.0861397,34.37666,0.4801464,1.8305993,1.2319653,-10.64637,-3.7629228,2.383997,0.200172,5.088862,-2.262998,98.691531,-24.522333,2.557926
216,4136777190,-1.9939423,-7.1496773,34.54496,0.4474163,1.7732975,1.2483466,-13.333541,-2.8054643,1.2639375,0.207629,5.118417,-2.242192,98.469305,-24.569091,2.578992
217,4136793857,-1.9372559,-7.1291084,34.678566,0.36482143,1.7147536,1.1888397,-10.981392,-2.0104933,-1.9052147,0.213709,5.146996,-2.222378,98.286282,-24.602599,2.547238
218,4136810524,-1.9899216,-7.1532097,34.716885,0.27655888,1.6073234,1.1283412,-10.314839,-0.8360894,-3.719597,0.218318,5.173785,-2.203572,98.114368,-24.616534,2.485245
219,4136827191,-2.152916,-7.2337303,34.656513,0.18699932,1.4451258,1.0707953,-11.81574,0.8066766,-4.0841837,0.221435,5.19787,-2.185725,97.917439,-24.603089,2.417175
220,4136843858,-2.3500137,-7.2597923,34.51346,0.051107407,1.2638507,0.9497172,-9.6997795,2.393476,-5.3787313,0.222287,5.218934,-2.169896,97.755776,-24.563198,2.327529
221,4136860525,-2.607933,-7.260273,34.26995,-0.12205887,1.0511849,0.7800254,-5.4036155,4.058938,-6.8765097,0.220253,5.236454,-2.156896,97.665716,-24.495549,2.212921
222,4136877192,-2.7690277,-7.2817574,34.09848,-0.22752953,0.90733767,0.659072,-3.8383956,5.319266,-7.581374,0.216461,5.251576,-2.145911,97.601743,-24.406895,2.086565
223,4136893859,-2.8109512,-7.3148994,34.01102,-0.26177406,0.84535074,0.5869029,-4.7273083,6.058337,-7.640021,0.212098,5.265665,-2.136129,97.522955,-24.305923,1.959231
224,4136910526,-2.8272858,-7.357502,33.908295,-0.26903725,0.8082595,0.52642685,-6.6907706,6.598777,-7.0058446,0.207614,5.279136,-2.127355,97.411442,-24.195943,1.842467
225,4136927193,-2.771881,-7.4184074,33.834515,-0.22197342,0.8252063,0.50186855,-10.873725,6.777938,-5.4446325,0.203914,5.292889,-2.118991,97.230213,-24.082977,1.751723
226,4136943860,-2.7152405,-7.444149,33.687115,-0.19311237,0.84467435,0.43825418,-12.9465,6.76612,-4.1516128,0.200695,5.306967,-2.111687,97.014438,-23.970208,1.682529
227,4136960527,-2.6635132,-7.4331856,33.45343,-0.18658352,0.8625891,0.33127218,-12.716402,6.57332,-3.1098967,0.197585,5.321343,-2.106166,96.802498,-23.860653,1.630697
228,4136977194,-2.5401459,-7.4185753,33.220108,-0.14286137,0.9306922,0.23838598,-13.267097,5.9581003,-1.5146648,0.195204,5.336855,-2.102193,96.58138,-23.761351,1.605453
229,4136993861,-2.3584213,-7.3882637,32.962086,-0.077281,1.0388644,0.14311737,-13.643268,4.941638,0.40178704,0.193916,5.354169,-2.099808,96.353992,-23.67899,1.612149
230,4137010528,-2.316986,-7.3698387,32.780384,-0.03973484,1.0949185,0.08182794,-13.845794,4.288239,1.5813041,0.193254,5.372418,-2.098444,96.123229,-23.607519,1.638504
231,4137027195,-2.4226837,-7.3685036,32.694847,-0.027580261,1.0979319,0.06479591,-14.186751,4.0213323,2.009201,0.192794,5.390717,-2.097364,95.886783,-23.540497,1.671991
232,4137043862,-2.5882034,-7.3619194,32.63948,-0.027393341,1.0859582,0.063501656,-13.973478,3.775795,2.0313659,0.192337,5.408816,-2.096306,95.653892,-23.477567,1.705847
233,4137060529,-2.8648376,-7.357937,32.64602,-0.05100155,1.0360436,0.09032148,-13.268965,3.742949,1.3672786,0.191487,5.426083,-2.094801,95.432743,-23.415185,1.728635
234,4137077196,-3.115921,-7.348377,32.6742,-0.053944588,1.0160143,0.13877815,-12.831532,3.3965638,0.87197495,0.190588,5.443017,-2.092488,95.218884,-23.358576,1.743168
235,4137093863,-3.3324127,-7.3308372,32.72036,-0.034503937,1.0304015,0.20773,-12.595059,2.6901653,0.56990266,0.190013,5.46019,-2.089026,95.008966,-23.31374,1.752666
236,4137110530,-3.6257095,-7.3159294,32.833946,-0.024558067,1.0265007,0.3122316,-12.237989,2.0409613,-0.21259594,0.189604,5.477298,-2.083822,94.805,-23.279724,1.749123
237,4137127197,-3.9661179,-7.301426,33.008102,-0.014472961,1.0194566,0.45193225,-11.9053,1.3264592,-1.3037828,0.189363,5.494289,-2.07629,94.606578,-23.257616,1.727393
238,4137143864,-4.203697,-7.292095,33.094902,-0.005961418,1.0175979,0.53466684,-11.307755,0.8958063,-1.9256718,0.189264,5.511249,-2.067379,94.418115,-23.242686,1.695298
239,4137160531,-4.3369446,-7.2899895,33.088913,-0.002576828,1.0158315,0.5549218,-10.404955,0.8300667,-2.0882308,0.189221,5.52818,-2.05813,94.244699,-23.228852,1.660494
240,4137177198,-4.416046,-7.2914467,33.057747,0.0033159256,1.0209782,0.557277,-9.439878,0.8762827,-2.0493019,0.189276,5.545196,-2.048842,94.087368,-23.214247,1.626339
241,4137193865,-4.4018326,-7.2985115,32.963417,0.010438919,1.0338714,0.51728565,-8.339966,1.1470338,-1.6148019,0.18945,5.562427,-2.040221,93.948369,-23.19513,1.599426
242,4137210532,-4.4085464,-7.3104744,32.906525,0.011637688,1.0369921,0.4933657,-7.1582747,1.5354091,-1.4250691,0.189644,5.57971,-2.031998,93.829064,-23.16954,1.575675
243,4137227199,-4.439621,-7.327511,32.8945,0.0074272156,1.0306938,0.4898488,-5.925235,2.0273266,-1.5081668,0.189768,5.596888,-2.023834,93.73031,-23.135751,1.550539
244,4137243866,-4.403801,-7.3521233,32.84549,0.000102996826,1.0241182,0.45678812,-4.5598855,2.7807448,-1.381582,0.18977,5.613957,-2.016221,93.654312,-23.089405,1.527513
245,4137260533,-4.3239365,-7.3845863,32.7818,-0.011873245,1.0135288,0.4067884,-3.0828066,3.779056,-1.1824927,0.189572,5.630849,-2.009441,93.602932,-23.026421,1.507805
246,4137277200,-4.2822876,-7.407093,32.733765,-0.019734383,1.0109234,0.3759411,-2.099217,4.3126216,-1.1208851,0.189243,5.647698,-2.003175,93.567945,-22.954544,1.489124
247,4137293867,-4.274872,-7.4186745,32.694595,-0.022785187,1.017988,0.3613276,-1.6618218,4.342622,-1.1624433,0.188863,5.664664,-1.997153,93.540248,-22.882167,1.46975
248,4137310534,-4.27713,-7.428303,32.665443,-0.026461601,1.0262027,0.3542468,-1.5055237,4.201354,-1.302918,0.188422,5.681767,-1.991249,93.515156,-22.812144,1.448035
249,4137327201,-4.3083954,-7.431385,32.652092,-0.028536797,1.0388496,0.36285,-1.8039477,3.7008982,-1.5875611,0.187946,5.699081,-1.985201,93.48509,-22.750462,1.421576
250,4137343868,-4.2950363,-7.439411,32.61703,-0.03343773,1.0514636,0.3535728,-2.2050526,3.2992435,-1.7701273,0.187389,5.716605,-1.979308,93.448339,-22.695475,1.392074
251,4137360535,-4.2333984,-7.4534035,32.559715,-0.041846275,1.063144,0.32503158,-2.699629,3.0278556,-1.8483074,0.186692,5.734324,-1.973891,93.403345,-22.645011,1.361269
252,4137377202,-4.175804,-7.4638176,32.503166,-0.049786568,1.0788362,0.30044264,-3.6228068,2.4978158,-1.9817812,0.185862,5.752305,-1.968884,93.342965,-22.603381,1.328239
253,4137393869,-4.1057587,-7.473255,32.439175,-0.05837536,1.0974326,0.2723586,-4.9129853,1.806968,-2.1186194,0.184889,5.770596,-1.964345,93.261082,-22.573265,1.292929
254,4137410536,-4.077034,-7.4895973,32.405018,-0.066456795,1.1009037,0.26003808,-5.54387,1.3792948,-2.1876302,0.183781,5.788944,-1.960011,93.168684,-22.550277,1.256468
255,4137427203,-4.1002426,-7.5124702,32.406303,-0.07346344,1.0881085,0.26766962,-5.4683504,1.206505,-2.19659,0.182557,5.807079,-1.95555,93.077545,-22.530169,1.219858
256,4137443870,-4.138176,-7.540066,32.419365,-0.080783844,1.0667377,0.2807625,-5.141215,1.1532582,-2.1415558,0.181211,5.824858,-1.950871,92.991858,-22.510948,1.184165
257,4137460537,-4.20739,-7.574337,32.45504,-0.08796406,1.0318203,0.30527836,-4.291456,1.3244228,-2.0041819,0.179745,5.842055,-1.945783,92.920334,-22.488874,1.150762
258,4137477204,-4.2896576,-7.6085243,32.49773,-0.094908714,0.9947133,0.335831,-3.6169374,1.3752482,-1.8682244,0.178163,5.858634,-1.940186,92.860052,-22.465953,1.119625
259,4137493871,-4.3825912,-7.642544,32.545616,-0.10171318,0.9558573,0.37139028,-3.1604338,1.2916824,-1.7310917,0.176468,5.874565,-1.933996,92.807378,-22.444425,1.090773
260,4137510538,-4.5103607,-7.6814384,32.61608,-0.10799217,0.90514207,0.42001897,-2.3418274,1.3338747,-1.5336199,0.174668,5.889651,-1.926996,92.768348,-22.422194,1.065213
261,4137527205,-4.6697235,-7.7238426,32.706013,-0.11371517,0.844738,0.480722,-1.3092506,1.4286289,-1.2909102,0.172773,5.90373,-1.918984,92.746527,-22.398384,1.043698
262,4137543872,-4.7845764,-7.737339,32.74729,-0.118834496,0.82929635,0.4993927,-1.4197068,1.5462627,-1.0045006,0.170792,5.917552,-1.910661,92.722865,-22.372613,1.026956
263,4137560539,-4.851921,-7.719219,32.735928,-0.123223305,0.8628638,0.47210985,-2.7364676,1.7143612,-0.6664337,0.168738,5.931933,-1.902793,92.677257,-22.34404,1.015849
264,4137577206,-4.9065933,-7.683796,32.702286,-0.12682915,0.9210322,0.4239685,-4.7207017,1.8972436,-0.2844174,0.166624,5.947284,-1.895727,92.598579,-22.312419,1.011109
265,4137593873,-4.928917,-7.6218452,32.627953,-0.12956142,1.0190396,0.3400795,-7.7408047,2.0952706,0.144166,0.164465,5.964268,-1.890059,92.469566,-22.277498,1.013512
266,4137610540,-4.969986,-7.5534096,32.556816,-0.13132095,1.122536,0.253779,-10.866396,2.3944845,0.64038754,0.162276,5.982977,-1.885829,92.288459,-22.23759,1.024185
267,4137627207,-5.0334473,-7.479183,32.49125,-0.13202667,1.2300093,0.16687149,-14.063458,2.7951996,1.2061107,0.160076,6.003477,-1.883048,92.054068,-22.191003,1.044287
268,4137643874,-5.0774,-7.3807716,32.39325,-0.13158512,1.3722177,0.049591362,-18.123047,3.257755,1.8348789,0.157883,6.026347,-1.882221,91.752017,-22.136707,1.074868
269,4137660541,-5.113037,-7.261883,32.271713,-0.12991142,1.5425231,-0.09142262,-22.86294,3.8024192,2.5331244,0.155718,6.052056,-1.883745,91.370968,-22.073333,1.117087
270,4137677208,-5.320366,-7.2348976,32.296967,-0.12695599,1.6049938,-0.16374177,-25.304762,3.4703608,2.3940482,0.153602,6.078806,-1.886474,90.949222,-22.015494,1.156988
271,4137693875,-5.712715,-7.308384,32.48105,-0.122633934,1.5504179,-0.16233939,-25.258522,2.1633258,1.3262551,0.151558,6.104646,-1.88918,90.528247,-21.979439,1.179092
272,4137710542,-6.213539,-7.4315834,32.749622,-0.11683941,1.4387963,-0.12668914,-24.013283,0.34707284,-0.23963904,0.149611,6.128626,-1.891291,90.128026,-21.973654,1.175098
273,4137727209,-6.873581,-7.6358376,33.15013,-0.10949707,1.2325852,-0.03173393,-20.748848,-2.2547398,-2.5657108,0.147786,6.149169,-1.89182,89.782212,-22.011233,1.132336
274,4137743876,-7.5794144,-7.8510857,33.574383,-0.10049343,1.0188012,0.061021626,-17.404556,-5.1008015,-5.1316495,0.146111,6.166149,-1.890803,89.492136,-22.096246,1.046809
275,4137760543,-8.327423,-8.074139,34.01798,-0.08974457,0.8014095,0.14868742,-14.065384,-8.166763,-7.9166846,0.144615,6.179506,-1.888325,89.257713,-22.232359,0.914864
276,4137777210,-9.220245,-8.368,34.5774,-0.077181816,0.5036361,0.28397638,-9.035246,-11.973673,-11.419434,0.143329,6.1879,-1.883592,89.107126,-22.43192,0.72454
277,4137793877,-10.2369,-8.719105,35.231873,-0.06271553,0.14254141,0.454552,-2.694738,-16.422016,-15.545357,0.142284,6.190276,-1.876016,89.062214,-22.70562,0.465451
278,4137810544,-10.944138,-8.966579,35.743774,-0.044314384,-0.07600212,0.5549442,1.5483136,-18.570515,-17.420803,0.141545,6.189009,-1.866767,89.088019,-23.015129,0.175104
279,4137827211,-11.314041,-9.103634,36.103687,-0.021698952,-0.14244413,0.58192676,3.598312,-18.204815,-16.835089,0.141183,6.186635,-1.857068,89.147991,-23.318543,-0.105481
280,4137843878,-11.538895,-9.198292,36.411705,0.00431633,-0.14359808,0.57759184,4.8364,-16.654835,-15.089703,0.141255,6.184242,-1.847441,89.228598,-23.596124,-0.356976
281,4137860545,-11.499962,-9.207882,36.60511,0.03437805,-0.024369717,0.514255,4.3760176,-13.104913,-11.387367,0.141828,6.183836,-1.83887,89.301532,-23.814539,-0.546765
282,4137877212,-11.477501,-9.243397,36.849106,0.06746292,0.07473278,0.4674459,4.6686783,-9.401626,-7.530875,0.142952,6.185082,-1.831079,89.379343,-23.971233,-0.67228
283,4137893879,-11.485329,-9.310703,37.152603,0.10361862,0.14673567,0.44081765,5.8444233,-5.633341,-3.6067595,0.144679,6.187528,-1.823732,89.47675,-24.065122,-0.732393
284,4137910546,-11.278877,-9.317585,37.379143,0.14400673,0.3097229,0.37281102,5.922658,-0.1536684,1.9932551,0.147079,6.19269,-1.817518,89.575461,-24.067683,-0.699172
285,4137927213,-10.914055,-9.287075,37.563248,0.18851566,0.5349574,0.27910346,5.421129,6.675578,8.915924,0.150221,6.201606,-1.812866,89.665813,-23.956423,-0.550573
286,4137943880,-10.666382,-9.217785,37.68058,0.20544815,0.68346334,0.20687586,5.4336634,11.011264,13.41378,0.153645,6.212997,-1.809418,89.756374,-23.772902,-0.32701
287,4137960547,-10.528076,-9.0970955,37.71042,0.1918087,0.75737715,0.1528123,5.818095,12.709589,15.347139,0.156842,6.22562,-1.806871,89.853342,-23.561076,-0.071224
288,4137977214,-10.402359,-8.94009,37.686012,0.16245651,0.8041706,0.1047743,6.3996897,13.368969,16.274467,0.15955,6.239023,-1.805125,89.960003,-23.33826,0.200017
289,4137993881,-10.354759,-8.741795,37.593727,0.10830784,0.78961205,0.07358813,7.4102736,11.976373,15.208218,0.161355,6.252183,-1.803899,90.083508,-23.138654,0.453487
290,4138010548,-10.156853,-8.477711,37.410362,0.047982216,0.8263726,0.015325367,7.693759,11.217607,14.768148,0.162155,6.265956,-1.803644,90.211737,-22.951694,0.699623
291,4138027215,-9.794968,-8.146122,37.134125,-0.017749786,0.91995215,-0.07192117,7.207773,11.233473,15.091778,0.161859,6.281289,-1.804843,90.331867,-22.764469,0.951153
292,4138043882,-9.435539,-7.7525826,36.76111,-0.10642052,0.9857211,-0.15760052,6.705885,9.811178,14.021402,0.160085,6.297718,-1.80747,90.443632,-22.600949,1.184843
293,4138060549,-9.026802,-7.28957,36.28275,-0.21458721,1.0481625,-0.25149012,5.9276037,7.51066,12.103384,0.156509,6.315187,-1.811662,90.542425,-22.475771,1.386566
294,4138077216,-8.715248,-6.938175,35.976456,-0.27657032,1.0990467,-0.31275856,5.132208,6.2202787,10.936129,0.151899,6.333504,-1.816875,90.627962,-22.3721,1.568835
295,4138093883,-8.532539,-6.7142143,35.864708,-0.28852844,1.1279864,-0.33429027,4.40742,5.8390226,10.396355,0.14709,6.352304,-1.822447,90.701419,-22.274783,1.742108
296,4138110550,-8.371956,-6.524967,35.80721,-0.27955627,1.1558843,-0.3423844,3.4329462,5.8383107,10.082645,0.142431,6.371569,-1.828153,90.758635,-22.177478,1.910152
297,4138127217,-8.27932,-6.4204063,35.87982,-0.23186016,1.1777828,-0.32467693,2.286654,6.6620116,10.357235,0.138567,6.391199,-1.833564,90.796746,-22.066444,2.082773
298,4138143884,-8.209579,-6.2945595,35.916794,-0.18851471,1.1768477,-0.29716164,0.99543524,6.6253552,9.716602,0.135425,6.410813,-1.838517,90.813337,-21.956021,2.244716
299,4138160551,-8.155708,-6.139736,35.905987,-0.15179634,1.1539094,-0.26148874,-0.47941375,5.6550407,8.094219,0.132895,6.430045,-1.842875,90.805347,-21.86177,2.37962
300,4138177218,-8.181938,-6.0523643,35.995872,-0.084653854,1.1121786,-0.19844872,-2.090258,4.9515157,6.5264287,0.131484,6.448581,-1.846182,90.770509,-21.779245,2.488394
301,4138193885,-8.28035,-6.0105247,36.15176,0.0041532516,1.0475047,-0.11092687,-3.8431365,4.143981,4.6765337,0.131553,6.466039,-1.848031,90.706457,-21.710179,2.566336
302,4138210552,-8.325874,-5.9531136,36.22898,0.05164814,0.99533796,-0.050584078,-5.0077124,3.4269567,3.1643786,0.132414,6.482628,-1.848874,90.622995,-21.653063,2.619076
303,4138227219,-8.318832,-5.8880424,36.233994,0.056653023,0.95790005,-0.019066751,-5.5006623,2.9426224,2.1496124,0.133358,6.498593,-1.849192,90.531317,-21.604019,2.654903
304,4138243886,-8.316338,-5.8309975,36.213436,0.043390274,0.9144957,0.0068707466,-5.6707773,2.3321466,1.0917072,0.134081,6.513835,-1.849077,90.436804,-21.56515,2.673098
305,4138260553,-8.288963,-5.7699394,36.133583,-0.0044021606,0.8740232,0.014046371,-5.3016834,1.6772354,0.18460417,0.134008,6.528402,-1.848843,90.348443,-21.537196,2.676175
306,4138277220,-8.328033,-5.7663918,36.117443,-0.0402174,0.816108,0.037955523,-4.8182244,1.1636478,-0.68009686,0.133338,6.542004,-1.84821,90.268139,-21.517802,2.66484
307,4138293887,-8.442192,-5.8245735,36.17182,-0.06180191,0.7380197,0.08118361,-4.2348104,0.7629075,-1.5473452,0.132308,6.554304,-1.846857,90.197559,-21.505087,2.639051
308,4138310554,-8.563332,-5.9057198,36.208534,-0.10624981,0.6569364,0.115067065,-3.139573,0.4575343,-2.1914144,0.130537,6.565253,-1.844939,90.145233,-21.497461,2.602527
309,4138327221,-8.713623,-6.024967,36.25535,-0.16378403,0.5677581,0.14748865,-1.6076531,0.28539586,-2.6362166,0.127807,6.574716,-1.842481,90.118439,-21.492704,2.55859
310,4138343888,-8.815254,-6.0973167,36.301243,-0.19536686,0.5192895,0.17135555,-0.68724227,0.11267376,-2.97504,0.124551,6.583371,-1.839625,90.106985,-21.490826,2.509006
311,4138360555,-8.854141,-6.1119576,36.33645,-0.20171356,0.5183437,0.18250602,-0.41412544,-0.059025288,-3.1698227,0.121189,6.59201,-1.836583,90.100083,-21.49181,2.456176
312,4138377222,-8.884018,-6.1212425,36.386726,-0.19471264,0.5381956,0.18970054,-0.32890916,-0.1317563,-3.1809313,0.117944,6.60098,-1.833421,90.094601,-21.494006,2.40316
313,4138393889,-8.881592,-6.1012,36.447334,-0.16458702,0.5934479,0.18983918,-0.7024381,-0.13034701,-3.009868,0.115201,6.610871,-1.830257,90.082894,-21.496178,2.352996
314,4138410556,-8.878014,-6.0936317,36.50399,-0.14367676,0.659446,0.17994815,-0.8006842,0.014319658,-2.545027,0.112806,6.621862,-1.827258,90.069549,-21.495939,2.310579
315,4138427223,-8.8776245,-6.103382,36.55928,-0.13310432,0.7347913,0.16022152,-0.5752423,0.32276964,-1.7629004,0.110588,6.634109,-1.824588,90.059962,-21.49056,2.281197
316,4138443890,-8.844177,-6.0889397,36.616302,-0.10840893,0.8451755,0.12896615,-0.6201842,0.74844146,-0.7046877,0.108781,6.648195,-1.822439,90.049626,-21.478086,2.269452
317,4138460557,-8.784103,-6.0594215,36.672638,-0.07634163,0.9861951,0.085140586,-0.77544403,1.31651,0.6700399,0.107509,6.664632,-1.82102,90.036702,-21.456144,2.280619
318,4138477224,-8.76255,-6.063183,36.741745,-0.06311703,1.0853465,0.065197885,-0.73168874,1.5263264,1.2771304,0.106457,6.682721,-1.819933,90.024507,-21.430705,2.301905
319,4138493891,-8.7799225,-6.09898,36.824615,-0.06846905,1.1398034,0.07182962,-0.5303378,1.3285887,1.0175633,0.105316,6.701718,-1.818736,90.015668,-21.408562,2.318864
320,4138510558,-8.8088,-6.1496773,36.91311,-0.084617615,1.1817806,0.086609304,-0.20783854,0.98330283,0.44277644,0.103906,6.721414,-1.817293,90.012204,-21.392174,2.326244
321,4138527225,-8.865189,-6.226803,37.01062,-0.11828327,1.192425,0.11936122,0.30263805,0.34972072,-0.74944496,0.101935,6.741288,-1.815304,90.017248,-21.386345,2.313753
322,4138543892,-8.901855,-6.292095,37.111298,-0.14777946,1.2214136,0.14810342,0.67345,-0.2805791,-1.9219501,0.099472,6.761645,-1.812836,90.028472,-21.391021,2.28172
323,4138560559,-8.915436,-6.3433266,37.214226,-0.17251301,1.2720213,0.17112714,0.8968487,-0.88713217,-3.0312665,0.096597,6.782845,-1.809984,90.043419,-21.405807,2.231199
324,4138577226,-8.942421,-6.408863,37.325066,-0.20913124,1.303529,0.20782381,1.1893139,-1.7394018,-4.660845,0.093111,6.80457,-1.80652,90.063241,-21.434797,2.153518
325,4138593893,-8.972099,-6.480137,37.442383,-0.25323105,1.3266921,0.25349528,1.4798012,-2.778069,-6.6809764,0.08889,6.826682,-1.802295,90.087904,-21.481098,2.042168
326,4138610560,-9.104301,-6.544613,37.597313,-0.29993916,1.2855449,0.30936283,0.98986244,-3.5639715,-7.5325255,0.083891,6.848108,-1.797139,90.104402,-21.540498,1.916626
327,4138627227,-9.353302,-6.6039696,37.793785,-0.35089016,1.1691794,0.37823802,-0.34073138,-4.092778,-7.1428266,0.078043,6.867594,-1.790835,90.098723,-21.608711,1.797579
328,4138643894,-9.664711,-6.6578712,38.01626,-0.40556526,1.0109122,0.4565968,-2.2001836,-4.5361376,-6.1665316,0.071284,6.884443,-1.783225,90.062053,-21.684313,1.694803
329,4138660561,-10.068611,-6.7033195,38.274055,-0.46327114,0.79273486,0.5458074,-4.8125577,-4.783231,-4.1859107,0.063563,6.897655,-1.774128,89.981844,-21.764034,1.625038
330,4138677228,-10.516449,-6.754322,38.550552,-0.5315504,0.5362053,0.6502647,-7.677454,-5.1611185,-2.2570283,0.054704,6.906592,-1.76329,89.853886,-21.850053,1.587421
331,4138693895,-11.00576,-6.810566,38.845177,-0.6107149,0.2421217,0.770341,-10.786393,-5.6882515,-0.43078232,0.044525,6.910627,-1.750451,89.674113,-21.944857,1.580241
332,4138710562,-11.588554,-6.8624077,39.174873,-0.69668007,-0.11748409,0.905572,-14.596204,-6.1087036,2.1843667,0.032914,6.908669,-1.735358,89.430843,-22.046669,1.616647
333,4138727229,-12.256538,-6.912464,39.536804,-0.7912922,-0.5398102,1.0574193,-19.0189,-6.493373,5.373898,0.019726,6.899672,-1.717734,89.113861,-22.154892,1.706212
334,4138743896,-12.773132,-6.8905373,39.80947,-0.85805035,-0.88771963,1.1552589,-21.7379,-6.1226034,7.8590302,0.005425,6.884877,-1.69848,88.751563,-22.256935,1.837196
335,4138760563,-13.123741,-6.7881737,39.983467,-0.89311695,-1.1533136,1.1925418,-22.592434,-4.8917575,9.633732,-0.00946,6.865655,-1.678604,88.375022,-22.338464,1.997758
336,4138777230,-13.416321,-6.6397743,40.114662,-0.9151392,-1.4012742,1.2039483,-22.627512,-3.1855555,11.166792,-0.024712,6.8423,-1.658538,87.997897,-22.391557,2.183871
337,4138793897,-13.586853,-6.424465,40.16918,-0.9136858,-1.5951276,1.1695528,-21.20461,-0.78514266,12.134153,-0.03994,6.815715,-1.639045,87.644487,-22.404643,2.386107
338,4138810564,-13.787849,-6.179287,40.222244,-0.90894985,-1.823698,1.130513,-19.800636,1.9632609,13.520124,-0.055089,6.78532,-1.620203,87.314476,-22.371922,2.611442
339,4138827231,-14.028137,-5.905407,40.27752,-0.9021225,-2.093122,1.0891361,-18.489412,5.0456476,15.372536,-0.070124,6.750435,-1.602051,87.006319,-22.287828,2.867651
340,4138843898,-14.175888,-5.564991,40.26734,-0.87376976,-2.3278985,1.0071135,-15.969307,8.838896,16.926546,-0.084687,6.711637,-1.585266,86.740164,-22.140513,3.14976
341,4138860565,-14.262444,-5.164234,40.206413,-0.8277588,-2.5470157,0.8924547,-12.533695,13.28668,18.392124,-0.098483,6.669187,-1.570392,86.531269,-21.919068,3.456295
342,4138877232,-14.291397,-4.7283134,40.06334,-0.8348274,-2.712738,0.81057066,-10.245677,16.65441,20.415495,-0.112397,6.623975,-1.556882,86.360508,-21.641495,3.796553
343,4138893899,-14.244423,-4.2527733,39.824432,-0.8990612,-2.8110971,0.76211315,-9.122911,18.836573,22.970407,-0.127381,6.577123,-1.54418,86.208459,-21.327552,4.179393
344,4138910566,-14.138664,-3.7278557,39.512314,-0.9892998,-2.871924,0.7206957,-8.366633,20.630001,25.89577,-0.143869,6.529258,-1.532168,86.069015,-20.983719,4.610989
345,4138927233,-13.96788,-3.1573715,39.113358,-1.124702,-2.880601,0.7027058,-8.497376,21.566982,29.351109,-0.162614,6.481248,-1.520456,85.927392,-20.624269,5.100174
346,4138943900,-13.693298,-2.514145,38.625465,-1.2589464,-2.8388963,0.65934914,-7.9558496,22.768387,32.76531,-0.183596,6.433933,-1.509467,85.794795,-20.244796,5.646262
347,4138960567,-13.31134,-1.7946014,38.04638,-1.3896313,-2.7463875,0.5875717,-6.6549993,24.301685,36.12413,-0.206757,6.38816,-1.499674,85.683878,-19.839768,6.248331
348,4138977234,-12.83197,-1.0135956,37.36216,-1.5566416,-2.5871625,0.52528137,-5.8082743,25.201885,39.84888,-0.232701,6.345041,-1.490919,85.587073,-19.419737,6.912479
349,4138993901,-12.242989,-0.1631546,36.568893,-1.7505884,-2.3591638,0.46169394,-5.077123,25.701298,43.821808,-0.261877,6.305722,-1.483224,85.502454,-18.991382,7.642842
350,4139010568,-11.7896805,0.67093277,35.92929,-1.9067731,-2.2011042,0.38827103,-4.6113443,26.339645,46.76558,-0.293657,6.269037,-1.476753,85.425598,-18.552388,8.422268
351,4139027235,-11.492943,1.480381,35.464134,-2.02427,-2.1216016,0.30848426,-4.5699234,27.037178,48.59918,-0.327395,6.233677,-1.471612,85.349433,-18.101768,9.232254
352,4139043902,-11.224998,2.3129463,35.043762,-2.127768,-2.0511665,0.21878105,-4.6509542,27.683601,49.841873,-0.362858,6.199491,-1.467966,85.271917,-17.640375,10.062952
353,4139060569,-11.052925,3.145092,34.74025,-2.200685,-2.0264082,0.11788231,-4.940517,28.384285,50.13689,-0.399536,6.165718,-1.466001,85.189575,-17.167304,10.898567
354,4139077236,-10.832512,4.025589,34.393814,-2.2913642,-1.9597211,0.020031154,-5.6625996,28.564938,50.332737,-0.437725,6.133056,-1.465667,85.095198,-16.691222,11.737446
355,4139093903,-10.552246,4.959076,33.993668,-2.4022117,-1.8438525,-0.07487416,-6.811908,28.19191,50.45532,-0.477762,6.102325,-1.466915,84.981666,-16.221357,12.578368
356,4139110570,-10.341957,5.901066,33.682358,-2.49502,-1.7533455,-0.17479801,-8.369214,27.623367,49.759056,-0.519346,6.073103,-1.469828,84.842179,-15.760968,13.407686
357,4139127237,-10.171082,6.862232,33.426872,-2.5800366,-1.6688266,-0.27667826,-10.3963585,26.720612,48.403763,-0.562347,6.045289,-1.474439,84.668906,-15.315624,14.214415
358,4139143904,-10.01722,7.6711617,33.118687,-2.4797049,-1.5530729,-0.36294132,-12.000076,25.576565,45.52653,-0.603675,6.019404,-1.480488,84.468905,-14.889348,14.973191
359,4139160571,-9.896576,8.304012,32.767326,-2.1709766,-1.4117985,-0.43227243,-13.118049,24.220688,40.92158,-0.639858,5.995874,-1.487693,84.250271,-14.48567,15.655217
360,4139177238,-9.800781,8.847706,32.403862,-1.7436137,-1.249424,-0.4905315,-14.2346115,22.49541,35.07462,-0.668918,5.97505,-1.495869,84.013027,-14.110746,16.239794
361,4139193905,-9.730499,9.249954,32.004936,-1.1443377,-1.0583229,-0.53249747,-15.116151,20.421024,27.683355,-0.68799,5.957411,-1.504744,83.761091,-13.770396,16.701183
362,4139210572,-9.733055,9.597553,31.671965,-0.4645586,-0.8782859,-0.5702785,-16.292183,18.011654,19.009842,-0.695733,5.942773,-1.514249,83.489555,-13.470202,17.018014
363,4139227239,-9.812065,9.8929405,31.411222,0.29256058,-0.71056414,-0.6037277,-17.817074,15.237442,9.035534,-0.690857,5.93093,-1.524311,83.192604,-13.216245,17.168606
364,4139243906,-9.948051,10.043678,31.15483,1.2221975,-0.52955055,-0.6218102,-19.233334,12.098306,-2.676929,-0.670487,5.922104,-1.534675,82.872048,-13.014607,17.123991
365,4139260573,-10.154404,10.063591,30.926767,2.3091354,-0.34414053,-0.62646526,-20.662786,8.582106,-16.12348,-0.632001,5.916368,-1.545116,82.527668,-12.871572,16.855266
366,4139277240,-10.303246,9.9333,30.747513,2.9353952,-0.15320969,-0.59392333,-21.044655,5.482446,-26.50952,-0.583078,5.913815,-1.555015,82.176924,-12.780198,16.413441
367,4139293907,-10.383743,9.632847,30.614082,3.0552597,0.04541731,-0.519739,-20.213295,2.8726928,-33.46285,-0.532157,5.914572,-1.563677,81.840036,-12.73232,15.855727
368,4139310574,-10.468857,9.174553,30.535906,2.9529982,0.24443054,-0.41565675,-18.749344,0.36248732,-39.284702,-0.48294,5.918646,-1.570605,81.527547,-12.726279,15.200982
369,4139327241,-10.524612,8.543495,30.519104,2.4576073,0.44422436,-0.27376658,-16.325909,-1.8242731,-42.65348,-0.44198,5.92605,-1.575168,81.255449,-12.756684,14.490091
370,4139343908,-10.624619,7.718609,30.538015,1.9548473,0.6502075,-0.10368824,-13.444128,-4.1668243,-46.51376,-0.409399,5.936887,-1.576896,81.03138,-12.826131,13.714862
371,4139360575,-10.777031,6.691761,30.595995,1.4645939,0.8612108,0.09500694,-10.124534,-6.693015,-51.04379,-0.384989,5.951241,-1.575313,80.862638,-12.937681,12.864132
372,4139377242,-10.917,5.4537773,30.71279,0.64295197,1.0745344,0.3350156,-5.8107505,-8.964669,-53.614002,-0.374273,5.96915,-1.569729,80.765792,-13.087092,11.970565
373,4139393909,-11.061584,3.9924812,30.885416,-0.4337101,1.29077,0.61555237,-0.58286834,-11.076806,-54.82125,-0.381502,5.990663,-1.55947,80.756078,-13.271705,11.056877
374,4139410576,-11.10482,2.7490387,30.876837,-1.1150274,1.4310935,0.79528946,2.1591425,-12.086568,-56.878056,-0.400086,6.014515,-1.546215,80.792064,-13.473148,10.108909
375,4139427243,-11.027672,1.7589645,30.666647,-1.3861303,1.4869175,0.86281615,2.174889,-11.829367,-59.622555,-0.423188,6.039297,-1.531835,80.828312,-13.670304,9.1152
376,4139443910,-10.891609,0.7993431,30.36565,-1.5084987,1.495161,0.88515633,1.0364876,-10.797915,-62.365208,-0.44833,6.064216,-1.517082,80.845587,-13.850269,8.07578
377,4139460577,-10.663139,-0.0092048645,29.90693,-1.3144717,1.4326253,0.8229889,-2.1895225,-8.688738,-65.5913,-0.470238,6.088093,-1.503366,80.809095,-13.995081,6.982592
378,4139477244,-10.388138,-0.9343071,29.435461,-1.276576,1.3427594,0.7626229,-5.3666973,-5.913764,-67.290215,-0.491514,6.110472,-1.490656,80.71965,-14.093644,5.861088
379,4139493911,-10.068596,-1.9956551,28.95817,-1.4205513,1.226773,0.70880693,-8.377223,-2.473061,-67.33074,-0.51519,6.130918,-1.478843,80.58003,-14.134862,4.738909
380,4139510578,-9.649979,-2.9553375,28.342745,-1.3683157,1.0414872,0.58364683,-13.10814,2.1334863,-67.07891,-0.537995,6.148276,-1.469116,80.361561,-14.099304,3.620927
381,4139527245,-9.139153,-3.8696747,27.61714,-1.2205744,0.7942784,0.4042545,-19.129654,7.8556356,-66.05835,-0.558338,6.161514,-1.462378,80.042733,-13.968377,2.519955
382,4139543912,-8.65406,-4.851021,26.83755,-1.1787572,0.61749315,0.30913585,-23.410006,11.518837,-65.36351,-0.577984,6.171806,-1.457226,79.652566,-13.776396,1.430563
383,4139560579,-8.195549,-5.877186,25.988878,-1.216075,0.5168953,0.3006577,-25.916346,12.9080715,-65.21281,-0.598252,6.180421,-1.452215,79.220627,-13.561261,0.343683
384,4139577246,-7.709015,-6.9301567,25.05944,-1.3049254,0.43319917,0.32354313,-27.81863,13.520044,-64.71888,-0.620001,6.187641,-1.446823,78.756983,-13.335927,-0.734965
385,4139593913,-7.2227325,-8.029537,24.056492,-1.4883718,0.40108418,0.4131227,-28.347654,12.492663,-64.20029,-0.644807,6.194326,-1.439938,78.284522,-13.127716,-1.80497
386,4139610580,-6.6500244,-9.047123,22.908075,-1.5514474,0.3303082,0.4674725,-29.778194,11.836565,-63.31147,-0.670664,6.199831,-1.432147,77.788219,-12.93044,-2.860161
387,4139627247,-5.982773,-9.974796,21.60694,-1.4876056,0.21498299,0.48084217,-32.23263,11.677311,-61.959476,-0.695457,6.203414,-1.424133,77.251008,-12.735818,-3.892819
388,4139643914,-5.28627,-10.88821,20.190529,-1.4375343,0.12957859,0.5338344,-33.928867,10.262184,-60.585274,-0.719416,6.205574,-1.415236,76.685527,-12.564782,-4.902574
389,4139660581,-4.5395584,-11.755421,18.638687,-1.3536143,0.05466461,0.6044776,-35.356472,8.007188,-59.09888,-0.741976,6.206485,-1.405161,76.096252,-12.431329,-5.887555
390,4139677248,-3.8757782,-12.580784,17.280964,-1.2851396,-0.029004574,0.6512423,-36.445896,6.6135607,-56.94148,-0.763395,6.206002,-1.394307,75.48882,-12.321103,-6.83658
391,4139693915,-3.3146286,-13.367367,16.149961,-1.2492237,-0.113854885,0.679686,-36.97452,6.0073977,-54.123737,-0.784215,6.204104,-1.382979,74.872578,-12.22098,-7.738642
392,4139710582,-2.777687,-14.085865,15.072582,-1.1870575,-0.20369244,0.6944116,-37.305733,5.645219,-50.84881,-0.803999,6.200709,-1.371405,74.250816,-12.126893,-8.586122
393,4139727249,-2.3045044,-14.734753,14.141193,-1.113997,-0.30088615,0.6863927,-37.35296,5.9256682,-46.982666,-0.822566,6.195694,-1.359965,73.628267,-12.028132,-9.369166
394,4139743916,-1.8320999,-15.323872,13.169128,-1.0359249,-0.37511396,0.70023423,-36.693935,5.392254,-42.934273,-0.839831,6.189442,-1.348294,73.016701,-11.938261,-10.084737
395,4139760583,-1.3554459,-15.845287,12.142759,-0.94648457,-0.4253254,0.736927,-35.327595,3.9664445,-38.726814,-0.855606,6.182353,-1.336012,72.427908,-11.872154,-10.730184
396,4139777250,-0.9417572,-16.289127,11.236431,-0.85536957,-0.46751356,0.7670168,-33.362045,2.6933968,-34.046844,-0.869862,6.174561,-1.323228,71.871874,-11.827264,-11.297631
397,4139793917,-0.57925415,-16.652554,10.412167,-0.762311,-0.4943223,0.80014414,-30.685263,1.2453502,-28.983982,-0.882567,6.166322,-1.309892,71.360453,-11.806508,-11.780697
398,4139810584,-0.42053986,-17.101513,9.818609,-0.61844826,-0.5990677,0.8316211,-27.804657,-0.48037744,-25.36942,-0.892874,6.156338,-1.296032,70.897042,-11.814514,-12.203521
399,4139827251,-0.49324036,-17.64832,9.497715,-0.42102814,-0.79159975,0.85824007,-24.738869,-2.391488,-23.355822,-0.899891,6.143145,-1.281728,70.484728,-11.854372,-12.592785
400,4139843918,-0.7210388,-18.209293,9.358637,-0.19275093,-1.0219669,0.88923377,-21.138014,-4.681613,-22.149773,-0.903104,6.126112,-1.266907,70.132428,-11.932399,-12.961948
401,4139860585,-1.1541443,-18.829304,9.455933,0.07934475,-1.3165021,0.9228503,-17.114004,-7.361944,-22.27488,-0.901782,6.10417,-1.251526,69.847195,-12.055098,-13.333196
402,4139877252,-1.7256851,-19.402615,9.753563,0.36728764,-1.6245456,0.95422894,-12.3683405,-10.127009,-22.60501,-0.895661,6.077094,-1.235622,69.641056,-12.223881,-13.709946
403,4139893919,-2.4372406,-19.921001,10.255357,0.66934204,-1.9423332,0.98431426,-6.836759,-13.001864,-23.107157,-0.884505,6.044722,-1.219217,69.52711,-12.440579,-14.095065
404,4139910586,-3.3717804,-20.47559,11.035456,1.0106926,-2.3183951,1.0140784,-0.74073005,-16.151989,-24.821798,-0.86766,6.006082,-1.202316,69.514764,-12.709779,-14.508762
405,4139927253,-4.522278,-21.043453,12.096067,1.385684,-2.7425685,1.0427148,6.012253,-19.52346,-27.545143,-0.844565,5.960373,-1.184937,69.614968,-13.03517,-14.967848
406,4139943920,-5.4903336,-21.341442,13.170879,1.6421309,-2.982449,1.0475292,12.067902,-21.040363,-25.535404,-0.817196,5.910666,-1.167478,69.8161,-13.385843,-15.393438
407,4139960587,-6.2542953,-21.35255,14.254731,1.768136,-3.02177,1.0260413,17.280354,-20.505878,-18.375914,-0.787727,5.860303,-1.150377,70.104106,-13.727608,-15.699703
408,4139977254,-7.004303,-21.194225,15.48574,1.8315954,-2.9636803,0.9882532,22.368994,-18.856728,-8.657978,-0.7572,5.810908,-1.133906,70.476923,-14.041887,-15.844003
409,4139993921,-7.63546,-20.788303,16.800514,1.7897291,-2.7438087,0.9273711,26.948736,-15.4918165,5.2106137,-0.727371,5.765178,-1.11845,70.926069,-14.300084,-15.757159
410,4140010588,-8.409592,-20.320202,18.38745,1.7367506,-2.5089755,0.8570184,31.78407,-11.661003,19.610191,-0.698425,5.723362,-1.104166,71.455803,-14.494434,-15.430322
411,4140027255,-9.346161,-19.796581,20.268318,1.6764708,-2.2657866,0.7774171,36.9293,-7.4040327,34.367973,-0.670484,5.685599,-1.091209,72.071291,-14.617835,-14.857522
412,4140043922,-10.2258,-19.055035,22.301224,1.523387,-1.8836703,0.67539495,41.661804,-1.5461187,52.705143,-0.645094,5.654204,-1.079952,72.765654,-14.643604,-13.979103
413,4140060589,-11.1057205,-18.1311,24.533947,1.2953548,-1.3912096,0.5532349,46.135086,5.6877623,73.911804,-0.623505,5.631017,-1.070731,73.534572,-14.548808,-12.74724
414,4140077256,-11.7439575,-17.020245,26.220806,1.1522264,-1.0443826,0.41863722,48.817135,10.889389,89.79682,-0.604301,5.613611,-1.063754,74.348191,-14.367318,-11.250626
415,4140093923,-12.087524,-15.6969795,27.27347,1.0968142,-0.8494878,0.27000874,49.437443,13.907613,100.00855,-0.586021,5.599453,-1.059254,75.172148,-14.135524,-9.583817
416,4140110590,-12.287605,-14.182423,28.079094,1.0634623,-0.70237255,0.104545,48.79576,16.236458,107.986115,-0.568297,5.587747,-1.057512,75.985411,-13.864916,-7.784048
417,4140127257,-12.264229,-12.464535,28.420012,1.0927153,-0.669086,-0.07668483,46.39711,16.976341,111.55074,-0.550085,5.576596,-1.05879,76.758696,-13.581977,-5.924869
418,4140143924,-12.100327,-10.496487,28.698103,1.0668602,-0.5642395,-0.28259516,42.911552,18.456,116.3408,-0.532304,5.567192,-1.0635,77.473889,-13.274377,-3.985856
419,4140160591,-11.798843,-8.271336,28.935217,0.97860336,-0.3774681,-0.51435465,38.337833,20.814545,122.6433,-0.515994,5.560901,-1.072073,78.112853,-12.927468,-1.941801
420,4140177258,-11.241188,-5.7955284,28.733187,0.9204912,-0.2572837,-0.7672684,31.860126,22.1194,125.75598,-0.500652,5.556613,-1.084861,78.643855,-12.558811,0.154132
421,4140193925,-10.436424,-3.0520668,28.166298,0.86671066,-0.1640544,-1.043973,23.559095,22.863354,126.84117,-0.486207,5.553879,-1.102261,79.036507,-12.177755,2.268152
422,4140210592,-9.903755,-0.5965004,28.068924,0.7270603,-0.025771141,-1.2381895,18.832897,23.520008,128.10309,-0.474089,5.553449,-1.122897,79.350389,-11.785755,4.403203
423,4140227259,-9.668655,1.5221863,28.458544,0.50317764,0.14636517,-1.3392177,18.054089,23.88303,129.1247,-0.465703,5.555888,-1.145217,79.65129,-11.387705,6.555281
424,4140243926,-9.482689,3.5834084,28.978046,0.21941948,0.34496665,-1.399298,18.676731,24.047562,129.59439,-0.462046,5.561637,-1.168539,79.962569,-10.986912,8.715188
425,4140260593,-9.480972,5.432827,29.838299,-0.1472826,0.5849254,-1.38799,22.170414,24.06134,129.91446,-0.464501,5.571386,-1.191672,80.332076,-10.58589,10.880429
426,4140277260,-9.320862,7.398258,30.437975,-0.5221205,0.78606963,-1.366084,25.128103,23.137772,127.51813,-0.473203,5.584487,-1.21444,80.750878,-10.20026,13.005731
427,4140293927,-8.975563,9.50161,30.735989,-0.9036379,0.9460511,-1.3366499,27.339663,21.240322,122.26394,-0.488264,5.600255,-1.236717,81.206539,-9.846255,15.043463
428,4140310594,-8.729187,11.443745,31.206947,-1.3493772,1.1161883,-1.2419028,31.785236,18.765892,115.688705,-0.510754,5.618858,-1.257415,81.736293,-9.53349,16.971608
429,4140327261,-8.505707,13.29129,31.717157,-1.8444877,1.2786019,-1.0933115,37.76286,15.515869,107.16782,-0.541495,5.640168,-1.275637,82.365674,-9.274892,18.757738
430,4140343928,-8.241188,14.96394,32.096375,-2.143424,1.3977883,-0.98832834,39.860657,13.13021,98.09108,-0.577219,5.663464,-1.292109,83.030018,-9.056055,20.392589
431,4140360595,-7.964218,16.408466,32.38217,-2.2285304,1.4741957,-0.9274442,37.948193,11.774184,88.67022,-0.614361,5.688034,-1.307566,83.662488,-8.859819,21.870426
432,4140377262,-7.6529007,17.700462,32.56065,-2.2054524,1.5107992,-0.87064594,34.133797,10.5037365,77.7329,-0.651119,5.713214,-1.322077,84.231385,-8.684757,23.165974
433,4140393929,-7.299843,18.79787,32.59787,-2.0053787,1.4973719,-0.8419809,27.008469,9.76721,65.640686,-0.684542,5.73817,-1.33611,84.681526,-8.52197,24.259985
434,4140410596,-7.011627,19.662334,32.7072,-1.7857847,1.466435,-0.76797533,20.494787,8.679422,51.87466,-0.714305,5.762611,-1.34891,85.023106,-8.377313,25.124563
435,4140427263,-6.790169,20.284702,32.88907,-1.5524812,1.4163587,-0.643571,14.778797,7.1475344,36.268234,-0.74018,5.786217,-1.359636,85.269419,-8.258187,25.729034
436,4140443930,-6.579468,20.635601,33.010117,-1.1649418,1.3207834,-0.5250007,6.692298,5.9947934,19.351116,-0.759596,5.80823,-1.368386,85.380957,-8.158274,26.051553
437,4140460597,-6.40448,20.694096,33.115204,-0.65305805,1.184725,-0.39564693,-2.9483185,5.0251107,0.95377254,-0.77048,5.827975,-1.37498,85.331818,-8.074522,26.067449
438,4140477264,-6.2854156,20.60822,33.142647,-0.2373085,1.0649557,-0.2633621,-9.444192,3.4268606,-14.93681,-0.774435,5.845724,-1.379369,85.174415,-8.017408,25.818502
439,4140493931,-6.2229385,20.3726,33.07425,0.08174801,0.9627044,-0.13503104,-12.726913,1.2315086,-27.865892,-0.773073,5.861769,-1.38162,84.9623,-7.996883,25.35407
440,4140510598,-6.2285156,19.888332,32.971355,0.3917246,0.8531499,0.005012691,-14.471999,-1.3069186,-39.847042,-0.766544,5.875988,-1.381536,84.7211,-8.018665,24.689953
441,4140527265,-6.3105087,19.18275,32.814644,0.6380482,0.7506075,0.15301472,-13.4562025,-4.381201,-49.716675,-0.75591,5.888498,-1.378986,84.49683,-8.091685,23.861342
442,4140543932,-6.446274,18.142143,32.60325,0.9900379,0.6124573,0.30023104,-13.235986,-7.3221846,-59.714058,-0.739409,5.898706,-1.373982,84.27623,-8.213721,22.866108
443,4140560599,-6.6414948,16.742397,32.342438,1.4585648,0.4355662,0.4477015,-13.946995,-10.098179,-69.9504,-0.7151,5.905965,-1.36652,84.04378,-8.382024,21.700268
444,4140577266,-6.918083,15.05294,32.015816,1.9144707,0.25291872,0.59614664,-12.75473,-13.200196,-78.25019,-0.683192,5.91018,-1.356584,83.831201,-8.602027,20.396098
445,4140593933,-7.2755127,13.036503,31.623568,2.3956814,0.054818153,0.7436057,-10.386951,-16.481716,-85.028,-0.643264,5.911094,-1.344191,83.658085,-8.876722,18.978965
446,4140610600,-7.5288925,11.313759,31.27422,2.6200495,-0.06390715,0.85701424,-10.792583,-18.103863,-90.64499,-0.599597,5.910029,-1.329907,83.478209,-9.178453,17.468215
447,4140627267,-7.665306,9.945717,30.974678,2.544406,-0.08991003,0.9321007,-14.003654,-17.930168,-94.769135,-0.55719,5.90853,-1.314372,83.244815,-9.477289,15.888729
448,4140643934,-7.7747955,8.605015,30.673124,2.3277664,-0.07452631,0.9823802,-18.631552,-16.716099,-97.41969,-0.518394,5.907288,-1.297999,82.934289,-9.755891,14.265067
449,4140660601,-7.8073196,7.46529,30.398645,1.8844156,0.010746479,0.99743503,-25.693693,-13.938609,-98.52978,-0.486987,5.907467,-1.281375,82.506061,-9.988201,12.622904
450,4140677268,-7.881714,6.1680794,30.085463,1.3447762,0.119338036,0.99620706,-32.132973,-10.772654,-97.21441,-0.464574,5.909456,-1.264772,81.970511,-10.167745,11.002664
451,4140693935,-8.006317,4.6864166,29.729158,0.7160425,0.24891281,0.9783024,-37.826626,-7.24667,-93.33449,-0.45264,5.913605,-1.248467,81.340067,-10.288523,9.447089
452,4140710602,-8.078842,3.351242,29.387653,-0.14621925,0.44902277,0.92408925,-45.17457,-2.2957091,-87.16799,-0.455077,5.921089,-1.233066,80.587158,-10.326785,7.994289
453,4140727269,-8.124519,2.0886116,29.047262,-1.2200975,0.71167326,0.83616036,-53.54236,3.867835,-78.4127,-0.475412,5.93295,-1.21913,79.694785,-10.262321,6.687411
454,4140743936,-8.173874,0.75091934,28.46162,-1.9309335,0.8108456,0.77797455,-59.03133,8.1463785,-73.40826,-0.507594,5.946464,-1.206164,78.710929,-10.126548,5.46394
455,4140760603,-8.216087,-0.6275444,27.613626,-2.2472963,0.73251987,0.75201327,-61.546432,10.397606,-72.70649,-0.545049,5.958673,-1.19363,77.685155,-9.953255,4.252165
456,4140777270,-8.252991,-2.020668,26.610126,-2.4317403,0.5797436,0.7287418,-62.500595,11.971386,-73.01266,-0.585578,5.968335,-1.181484,76.643478,-9.753732,3.035287
457,4140793937,-8.288292,-3.4510498,25.382576,-2.3310294,0.29130745,0.72446984,-60.861378,12.046123,-76.068214,-0.624428,5.97319,-1.16941,75.629122,-9.552963,1.767483
458,4140810604,-8.277542,-4.7428703,24.087757,-2.3218427,0.012807846,0.69530815,-59.52076,12.738156,-78.13031,-0.663125,5.973403,-1.157822,74.637109,-9.34066,0.465311
459,4140827271,-8.218315,-5.882023,22.73192,-2.4278193,-0.24739361,0.6378637,-58.57986,14.169152,-78.90733,-0.703589,5.96928,-1.147191,73.660778,-9.104507,-0.849811
460,4140843938,-8.133919,-6.966358,21.175432,-2.329177,-0.61528826,0.5875625,-55.69045,14.576131,-81.77472,-0.742409,5.959025,-1.137398,72.732604,-8.861571,-2.212723
461,4140860605,-8.013023,-7.949581,19.448345,-2.105184,-1.0610151,0.53454477,-51.432873,14.403353,-85.94293,-0.777495,5.941341,-1.128489,71.875389,-8.621515,-3.645105
462,4140877272,-7.6442795,-9.027988,17.781351,-1.9557328,-1.3766103,0.50714785,-48.75177,14.286883,-87.195206,-0.810091,5.918397,-1.120037,71.062859,-8.3834,-5.098358
463,4140893939,-7.005913,-10.222202,16.176418,-1.8579226,-1.5586214,0.512454,-47.626663,14.056234,-85.58146,-0.841056,5.89242,-1.111496,70.269081,-8.149129,-6.524716
464,4140910606,-6.186661,-11.3988,14.541554,-1.7682109,-1.686338,0.53031725,-47.032097,13.695837,-82.59183,-0.870526,5.864314,-1.102657,69.485213,-7.920865,-7.901246
465,4140927273,-5.1233597,-12.608791,12.93456,-1.7288213,-1.7061954,0.5702048,-47.704193,13.305856,-77.18802,-0.89934,5.835877,-1.093154,68.690143,-7.699101,-9.187713
466,4140943940,-3.9400558,-13.750965,11.181039,-1.53935,-1.7723556,0.62440974,-47.279003,12.046033,-72.686676,-0.924996,5.806338,-1.082747,67.90216,-7.498334,-10.399158
467,4140960607,-2.6374283,-14.807468,9.270271,-1.1899738,-1.8922377,0.69220835,-45.6442,9.874789,-69.25767,-0.944829,5.774801,-1.07121,67.141423,-7.333754,-11.553452
468,4140977274,-1.0938721,-15.868916,7.3371224,-0.8121033,-1.9432049,0.7864923,-44.59619,7.265024,-64.38553,-0.958364,5.742414,-1.058102,66.398153,-7.21267,-12.626544
469,4140993941,0.6708069,-16.908352,5.3430614,-0.35934448,-1.9576783,0.9064471,-43.626034,4.0104194,-58.79155,-0.964353,5.709786,-1.042995,65.671052,-7.14583,-13.606403
470,4141010608,1.8547058,-17.804523,3.8406398,0.017843246,-2.0467043,0.97540444,-40.12305,1.4753569,-52.99977,-0.964056,5.675674,-1.026738,65.002334,-7.121241,-14.489733
471,4141027275,2.398079,-18.554142,2.902125,0.29399204,-2.2061152,0.9885939,-34.027397,-0.18654895,-46.77713,-0.959156,5.638905,-1.010261,64.435211,-7.12435,-15.269352
472,4141043942,2.6701698,-19.192646,2.2422533,0.57571125,-2.4051437,0.98259753,-26.210283,-1.7896175,-40.379646,-0.949561,5.598819,-0.993884,63.998373,-7.154177,-15.942346
473,4141060609,2.448864,-19.68652,2.0262265,0.8193455,-2.6709132,0.9368985,-15.970934,-2.9565172,-33.881042,-0.935905,5.554304,-0.978269,63.732191,-7.203452,-16.50703
474,4141077276,2.2360878,-20.120197,1.9712298,1.0824556,-2.906828,0.90014404,-5.2682858,-4.3885055,-26.342262,-0.917864,5.505857,-0.963267,63.644386,-7.276594,-16.946068
475,4141093943,2.057747,-20.493015,2.065613,1.3748264,-3.1095858,0.8756897,5.853874,-6.1640997,-17.769844,-0.89495,5.454031,-0.948672,63.741951,-7.379329,-17.242232
476,4141110610,1.4666901,-20.731762,2.6033702,1.6299877,-3.3501596,0.82165176,18.998997,-7.6109495,-8.679171,-0.867784,5.398195,-0.934978,64.058601,-7.506178,-17.386885
477,4141127277,0.5623703,-20.850628,3.5363214,1.8608294,-3.6081,0.748347,33.789448,-8.88414,1.1332154,-0.83677,5.33806,-0.922506,64.621758,-7.654247,-17.367998
478,4141143944,-0.120529175,-20.670017,4.5014725,2.066266,-3.6821017,0.67008716,44.207035,-9.150745,12.454754,-0.802332,5.276692,-0.911338,65.358542,-7.806759,-17.160419
479,4141160611,-0.5945816,-20.15897,5.5159807,2.2353277,-3.5595517,0.58262545,49.86504,-8.228336,25.337547,-0.765077,5.217366,-0.901628,66.189626,-7.943898,-16.738127
480,4141177278,-1.0542679,-19.407291,6.733678,2.3757143,-3.3205771,0.48578066,53.362766,-6.60332,39.57194,-0.725482,5.162023,-0.893532,67.079005,-8.053953,-16.078595
481,4141193945,-1.3721237,-18.356785,8.076062,2.4822454,-2.9087768,0.38160414,53.040318,-3.995019,55.396477,-0.684111,5.113543,-0.887172,67.96301,-8.120537,-15.15532
482,4141210612,-1.9845505,-17.084736,9.8485,2.5390387,-2.45827,0.25077444,52.830036,-0.7119422,72.23036,-0.641794,5.072572,-0.882992,68.843511,-8.132403,-13.951481
483,4141227279,-2.9189148,-15.589657,12.081627,2.5431633,-1.9726076,0.09222621,52.901894,3.2460732,90.0934,-0.599408,5.039695,-0.881455,69.725209,-8.078302,-12.449924
484,4141243946,-3.8555832,-13.775959,14.568013,2.4951744,-1.3336945,-0.08348924,49.8181,8.309031,109.50932,-0.557822,5.017467,-0.882846,70.555511,-7.939818,-10.624769
485,4141260613,-4.8938904,-11.651989,17.385899,2.3887548,-0.5664582,-0.28122306,44.349346,14.447585,130.39127,-0.518009,5.008026,-0.887533,71.294667,-7.699025,-8.451581
486,4141277280,-5.736923,-9.510937,19.596298,2.2170458,-0.029813766,-0.42075956,40.88016,18.729393,145.87018,-0.481058,5.007529,-0.894546,71.976003,-7.386868,-6.020411
487,4141293947,-6.322281,-7.3608437,21.090363,1.9757595,0.25806665,-0.49369568,39.344097,20.956608,155.3374,-0.448129,5.01183,-0.902774,72.631738,-7.037591,-3.431454
488,4141310614,-6.8623047,-5.0604515,22.372772,1.6604347,0.4524393,-0.5417732,38.119617,22.526764,161.98172,-0.420455,5.019371,-0.911804,73.267065,-6.662145,-0.731759
489,4141327281,-7.2644577,-2.6825142,23.17339,1.265955,0.4570129,-0.54219997,38.26824,22.646313,163.85187,-0.399356,5.026988,-0.920841,73.904869,-6.284706,1.999105
490,4141343948,-7.6249237,-0.020572662,23.996597,0.7915096,0.5143666,-0.5393081,36.262493,23.166985,165.07735,-0.386164,5.035561,-0.929829,74.509244,-5.89859,4.750394
491,4141360615,-7.95755,2.9444275,24.876917,0.23264599,0.6373019,-0.53599364,31.886436,24.210037,165.83759,-0.382287,5.046183,-0.938762,75.040685,-5.495089,7.514354
492,4141377282,-8.130089,6.051384,25.321117,-0.41752434,0.62105584,-0.4898397,27.759031,24.164455,162.31168,-0.389246,5.056534,-0.946926,75.503336,-5.092348,10.219549
493,4141393949,-8.159576,9.34919,25.427294,-1.1627107,0.5155239,-0.4095291,23.085234,23.416908,155.27812,-0.408625,5.065126,-0.953751,75.88809,-4.702066,12.807518
494,4141410616,-8.231041,12.2221985,25.787785,-1.6983738,0.5141592,-0.3842404,19.340763,23.037266,149.02081,-0.436931,5.073695,-0.960155,76.210436,-4.318112,15.291198
495,4141427283,-8.336792,14.590572,26.382624,-1.9974203,0.6084361,-0.41633043,16.949373,22.909481,143.36029,-0.470221,5.083836,-0.967094,76.492926,-3.936287,17.680536
496,4141443950,-8.393738,16.778763,26.983995,-2.2082229,0.7384653,-0.4686021,14.642218,22.770836,136.67908,-0.507025,5.096144,-0.974904,76.736963,-3.556773,19.958521
497,4141460617,-8.441666,18.604042,27.727863,-2.2452793,0.9498236,-0.56400585,12.908089,22.846237,129.94673,-0.544446,5.111974,-0.984304,76.952098,-3.176002,22.1243
498,4141477284,-8.334084,20.38427,28.129543,-2.2905226,1.0748172,-0.6390575,11.521523,22.08535,119.53539,-0.582621,5.129888,-0.994955,77.144123,-2.807913,24.116557
499,4141493951,-8.054871,22.13535,28.151823,-2.3543181,1.1049738,-0.689978,10.401362,20.429241,105.16233,-0.62186,5.148304,-1.006455,77.317479,-2.467426,25.869263
500,4141510618,-7.704796,23.531033,28.140545,-2.269916,1.1606369,-0.76782423,10.111322,18.5667,89.36806,-0.659692,5.167648,-1.019252,77.486001,-2.157981,27.358731
501,4141527285,-7.245735,24.627647,27.980272,-2.073206,1.2043808,-0.8589295,10.622327,16.25049,71.278915,-0.694245,5.187721,-1.033567,77.66304,-1.887139,28.546713
502,4141543952,-6.98188,25.59478,27.926462,-1.9032688,1.2126193,-0.8763763,9.531333,13.871186,54.464184,-0.725966,5.207931,-1.048173,77.821896,-1.655953,29.454449
503,4141560619,-6.9503098,26.391148,28.034956,-1.7485566,1.1949749,-0.8175831,6.7289276,11.518641,39.493202,-0.755109,5.227847,-1.061799,77.934045,-1.463976,30.112669
504,4141577286,-6.976593,26.958872,28.09633,-1.5635061,1.1351137,-0.7140559,3.3691387,8.814115,24.005465,-0.781167,5.246766,-1.0737,77.990197,-1.317074,30.51276
505,4141593953,-7.14756,27.318653,28.187284,-1.3775353,1.0284998,-0.54253596,-1.1676092,5.8681417,9.04455,-0.804126,5.263908,-1.082742,77.970737,-1.219272,30.663502
506,4141610620,-7.3043137,27.268358,28.23265,-1.0622816,0.9175563,-0.3659882,-5.326041,2.599956,-6.9286838,-0.821831,5.279201,-1.088842,77.88197,-1.175939,30.548024
507,4141627287,-7.4327774,26.780853,28.21221,-0.60798836,0.79991984,-0.18635452,-8.980491,-1.0379062,-24.113964,-0.831964,5.292533,-1.091948,77.732295,-1.193237,30.146125
508,4141643954,-7.688652,25.958359,28.229572,-0.09963703,0.6500952,0.04837209,-13.422709,-4.9180536,-40.82711,-0.833625,5.303368,-1.091142,77.508583,-1.275205,29.465673
509,4141660621,-8.039322,24.740131,28.266294,0.49426842,0.4758098,0.32583088,-18.305866,-9.072032,-57.39277,-0.825387,5.311298,-1.085711,77.203485,-1.426406,28.509127
510,4141677288,-8.249069,23.560837,28.212683,0.93430233,0.34474015,0.5305322,-21.389332,-12.311583,-71.61268,-0.809815,5.317044,-1.076869,76.846996,-1.631599,27.315582
511,4141693955,-8.318092,22.458035,28.07509,1.1903763,0.26099348,0.65804976,-22.601522,-14.498805,-82.98211,-0.789975,5.321394,-1.065902,76.470304,-1.873246,25.932547
512,4141710622,-8.338585,21.16856,27.894527,1.4002047,0.19772863,0.7552095,-22.752163,-16.216045,-92.699524,-0.766638,5.324689,-1.053315,76.091101,-2.143513,24.387555
513,4141727289,-8.25248,19.805977,27.647194,1.4950333,0.1738801,0.7913161,-21.238792,-17.112469,-99.99822,-0.741721,5.327587,-1.040126,75.737121,-2.428721,22.720918
514,4141743956,-8.237846,18.119148,27.419191,1.5963287,0.14182615,0.8479194,-19.658371,-17.85809,-105.68566,-0.715116,5.329951,-1.025994,75.409481,-2.726356,20.95949
515,4141760623,-8.305733,16.074833,27.2176,1.7146568,0.100115776,0.92884916,-18.05569,-18.47892,-109.72087,-0.686538,5.33162,-1.010513,75.108553,-3.034338,19.130809
516,4141777290,-8.319733,13.889965,26.982004,1.7285728,0.08959532,0.9667395,-15.097765,-18.31778,-110.92629,-0.657728,5.333113,-0.994401,74.856924,-3.339634,17.282037
517,4141793957,-8.3194275,11.502644,26.73329,1.6625376,0.10114479,0.9783216,-11.093544,-17.493816,-109.34876,-0.630019,5.334799,-0.978096,74.672032,-3.631198,15.459558
518,4141810624,-8.4112625,9.367401,26.382631,1.5136433,0.07847071,0.9935861,-10.9955225,-16.125881,-109.15483,-0.604792,5.336107,-0.961536,74.488773,-3.899963,13.640311
519,4141827291,-8.590973,7.555092,25.916162,1.2619333,0.021977901,1.0064263,-15.117515,-14.110866,-110.467606,-0.58376,5.336473,-0.944762,74.236814,-4.135144,11.799184
520,4141843958,-8.836868,5.8069305,25.392078,0.9215841,-0.046959877,1.0131593,-21.318182,-11.441656,-111.22007,-0.5684,5.33569,-0.927876,73.881511,-4.325838,9.945516
521,4141860625,-9.17598,4.261448,24.78448,0.48298073,-0.1421318,1.0191114,-30.960646,-8.09756,-112.44154,-0.56035,5.333321,-0.910891,73.3655,-4.460797,8.07149
522,4141877292,-9.514229,2.7019005,24.132526,-0.086628914,-0.21884155,0.9882769,-40.807777,-3.797792,-111.228966,-0.561794,5.329674,-0.89442,72.68537,-4.524094,6.217674
523,4141893959,-9.851059,1.1155968,23.441177,-0.79303646,-0.27433205,0.91867226,-50.71709,1.5050886,-107.295975,-0.575011,5.325102,-0.879109,71.840085,-4.499009,4.429408
524,4141910626,-10.257431,-0.26132202,22.668192,-1.6336322,-0.34214497,0.8315429,-63.513763,7.7237024,-102.90578,-0.602238,5.3194,-0.86525,70.781522,-4.370281,2.714312
525,4141927293,-10.715195,-1.4662361,21.821846,-2.6210918,-0.4122486,0.7180813,-78.561264,14.955893,-97.36037,-0.645923,5.312529,-0.853282,69.472168,-4.121016,1.091639
526,4141943960,-10.734268,-2.8592796,20.631945,-3.208891,-0.5370021,0.64208585,-87.21245,20.094254,-93.40464,-0.699405,5.303579,-0.842581,68.018627,-3.786112,-0.465105
527,4141960627,-10.273735,-4.4331436,19.063763,-3.347538,-0.72536135,0.6109734,-89.00076,22.852386,-91.54519,-0.755197,5.29149,-0.832398,66.535281,-3.405239,-1.990858
528,4141977294,-9.551819,-6.0313683,17.248032,-3.3076406,-0.94561005,0.58749527,-87.61221,24.790855,-89.96749,-0.810324,5.27573,-0.822606,65.075077,-2.992058,-3.490316
529,4141993961,-8.429199,-7.7364845,15.102937,-2.9359808,-1.2138281,0.5895526,-80.70328,25.039082,-89.51219,-0.859257,5.2555,-0.81278,63.730022,-2.57474,-4.982186
530,4142010628,-7.208084,-9.265522,12.771801,-2.5540261,-1.5080681,0.5843614,-74.05515,25.415054,-89.07403,-0.901824,5.230366,-0.803041,62.495769,-2.151156,-6.466753
531,4142027295,-5.899498,-10.592159,10.25782,-2.1811733,-1.8267479,0.5686403,-67.93968,26.034306,-88.53259,-0.938177,5.19992,-0.793564,61.363441,-1.717251,-7.942296
532,4142043962,-4.2263947,-11.919453,7.412583,-1.5212226,-2.1956835,0.5742795,-57.413116,25.220139,-89.20284,-0.963531,5.163325,-0.783993,60.406556,-1.296915,-9.42901
533,4142060629,-2.2449799,-13.177639,4.2591076,-0.63794804,-2.6112075,0.5943096,-43.636784,23.336182,-90.87981,-0.974163,5.119805,-0.774088,59.679276,-0.907979,-10.943673
534,4142077296,-0.5875168,-14.3395195,1.5486596,-0.078552246,-2.947815,0.5924006,-34.334465,21.554298,-89.25278,-0.975472,5.070675,-0.764215,59.107035,-0.548741,-12.431219
535,4142093963,0.72610474,-15.4182625,-0.66982174,0.14653015,-3.1976724,0.56964,-29.588137,19.737099,-84.12477,-0.97303,5.01738,-0.754721,58.613899,-0.219789,-13.833299
536,4142110630,1.9641914,-16.370678,-2.741476,0.25831318,-3.4185886,0.5389274,-26.468485,17.537632,-77.439064,-0.968725,4.960404,-0.745739,58.172758,0.072505,-15.12395
537,4142127297,2.9629364,-17.189,-4.4619513,0.11704159,-3.576642,0.49169093,-26.94251,15.18754,-68.063736,-0.966774,4.900793,-0.737544,57.723716,0.325631,-16.258346
538,4142143964,4.170807,-17.92664,-6.3127375,0.12180805,-3.7521343,0.4571597,-25.169535,11.534388,-58.86318,-0.964744,4.838257,-0.729925,57.304224,0.517871,-17.239399
539,4142160631,5.614952,-18.573132,-8.321489,0.29554844,-3.949853,0.4371242,-20.851627,6.4879417,-50.023113,-0.959818,4.772426,-0.72264,56.956697,0.626003,-18.073118
540,4142177298,6.9329414,-19.091068,-10.069482,0.32147026,-4.1002445,0.41016465,-18.56541,0.7765739,-39.15023,-0.95446,4.704089,-0.715804,56.647273,0.638946,-18.725622
541,4142193965,8.221336,-19.485271,-11.655153,0.28565598,-4.219864,0.38290912,-17.062836,-5.889079,-26.856182,-0.949699,4.633758,-0.709422,56.362892,0.540795,-19.173225
542,4142210632,8.844521,-19.746204,-12.2933235,0.38161373,-4.26355,0.33910233,-11.923098,-10.610667,-14.962101,-0.943339,4.562699,-0.70377,56.164174,0.363951,-19.422593
543,4142227299,8.691658,-19.864628,-11.843037,0.59047794,-4.216793,0.27492005,-3.2504668,-13.054561,-3.3409414,-0.933498,4.492419,-0.699188,56.11,0.146375,-19.478275
544,4142243966,8.124069,-19.843334,-10.729905,0.87975883,-4.1107016,0.20284396,7.7248106,-14.819966,8.46245,-0.918835,4.423907,-0.695807,56.238747,-0.100624,-19.337234
545,4142260633,6.9417496,-19.674854,-8.7014475,1.2936363,-3.9282856,0.11771959,22.115124,-15.080857,20.027983,-0.897274,4.358436,-0.693845,56.607332,-0.351972,-19.003434
546,4142277300,5.4143066,-19.343899,-6.089465,1.6395636,-3.6761026,0.023863196,36.18959,-15.376172,33.026794,-0.869948,4.297168,-0.693447,57.210492,-0.608242,-18.452987
547,4142293967,3.5517616,-18.84499,-2.8971138,1.9129314,-3.3532047,-0.07789248,49.84844,-15.8268175,47.524906,-0.838066,4.241281,-0.694745,58.041299,-0.872022,-17.660905
548,4142310634,1.0300598,-18.175495,1.2851405,2.2460213,-2.9388094,-0.19440424,65.91155,-14.93389,62.349937,-0.800632,4.192301,-0.697985,59.139825,-1.12092,-16.621739
549,4142327301,-2.1119308,-17.327358,6.416116,2.5977955,-2.4312968,-0.32492846,83.61606,-13.006101,77.86868,-0.757335,4.151779,-0.7034,60.533426,-1.337688,-15.323928
550,4142343968,-4.35598,-16.164043,10.273006,2.7736673,-2.0211368,-0.43251413,94.32847,-11.526298,92.127144,-0.711107,4.118093,-0.710609,62.105567,-1.529793,-13.788476
551,4142360635,-5.6141205,-14.665913,12.71835,2.7671223,-1.7211318,-0.5148202,97.5121,-10.407946,104.80729,-0.664988,4.089407,-0.719189,63.730769,-1.703259,-12.041688
552,4142377302,-6.59536,-12.886257,14.801054,2.6400404,-1.437315,-0.5890768,96.70976,-9.122073,117.08836,-0.620987,4.065452,-0.729007,65.342598,-1.855294,-10.090215
553,4142393969,-6.8945007,-10.780621,15.92477,2.3385572,-1.2207112,-0.6453149,89.52119,-7.995367,128.37868,-0.582011,4.045107,-0.739762,66.834618,-1.98855,-7.95057
554,4142410636,-7.496643,-8.418552,17.518398,2.0088806,-0.9518409,-0.7067777,81.68307,-5.751898,139.5048,-0.54853,4.029243,-0.751542,68.196002,-2.084415,-5.62549
555,4142427303,-8.467117,-5.79591,19.677038,1.6524153,-0.62171745,-0.77490133,73.386856,-2.2941718,150.53076,-0.52099,4.018881,-0.764457,69.419116,-2.122651,-3.116644
556,4142443970,-8.966606,-2.8333664,21.17449,1.146884,-0.3335619,-0.82943726,59.611732,1.4994121,160.50179,-0.501875,4.013322,-0.778281,70.412645,-2.097661,-0.441614
557,4142460637,-9.20385,0.4621048,22.312489,0.5190716,-0.06167841,-0.8751869,41.45017,5.937213,169.56093,-0.493224,4.012294,-0.792867,71.103481,-1.998707,2.384401
558,4142477304,-9.494362,3.433529,23.654991,0.06723404,0.20650148,-0.91251934,30.79808,9.023613,175.35466,-0.492103,4.015736,-0.808076,71.616782,-1.848313,5.306979
559,4142493971,-9.757057,6.031765,25.09228,-0.1969204,0.45836163,-0.9385924,28.102283,10.486954,177.45723,-0.495385,4.023375,-0.823719,72.085153,-1.67353,8.264599
560,4142510638,-9.976875,8.567883,26.550379,-0.3991623,0.7045126,-0.9561334,28.37902,11.5064535,177.00977,-0.502038,4.035117,-0.839655,72.558137,-1.481756,11.214762
561,4142527305,-10.204163,10.861118,28.131306,-0.4607973,0.94356155,-0.9641268,34.75999,11.502497,173.23274,-0.509718,4.050843,-0.855724,73.13747,-1.290048,14.101974
562,4142543972,-10.035095,13.321316,29.184282,-0.5920057,1.1414716,-0.95676756,38.898342,11.445829,167.16563,-0.519585,4.069868,-0.87167,73.785776,-1.099284,16.888068
563,4142560639,-9.448868,15.97266,29.674686,-0.80430603,1.2963438,-0.9335138,40.342464,11.424349,158.77167,-0.53299,4.091474,-0.887229,74.45815,-0.908878,19.534262
564,4142577306,-8.6744,18.451954,29.992113,-0.92520905,1.4216316,-0.89577264,45.948032,10.438292,146.75685,-0.54841,4.115168,-0.902159,75.223951,-0.734906,21.98021
565,4142593973,-7.612335,20.84235,29.97892,-0.99891376,1.5080175,-0.8417034,53.96394,8.680742,131.223,-0.565059,4.140302,-0.916187,76.12335,-0.590227,24.16726
566,4142610640,-6.9230804,22.920197,30.220392,-1.0669065,1.6043067,-0.7902214,56.1192,7.327689,116.4077,-0.582841,4.16704,-0.929357,77.05867,-0.468099,26.107388
567,4142627307,-6.6812134,24.609047,30.79464,-1.1107736,1.7138996,-0.7425939,52.46761,6.3336754,102.4402,-0.601354,4.195605,-0.941734,77.93313,-0.362538,27.814725
568,4142643974,-6.493088,26.061756,31.296602,-1.1394529,1.8048935,-0.6879777,45.756706,5.245241,87.26738,-0.620345,4.225687,-0.9532,78.695742,-0.275117,29.269181
569,4142660641,-6.5415344,27.191486,31.886192,-1.1570406,1.8892171,-0.6312049,33.89747,4.328809,71.94592,-0.639629,4.257174,-0.96372,79.2607,-0.20297,30.46828
570,4142677308,-6.486969,28.023386,32.299706,-1.0933099,1.9390512,-0.5608196,23.47657,2.624784,53.510757,-0.657851,4.289492,-0.973067,79.651976,-0.159224,31.360126
571,4142693975,-6.291649,28.549908,32.491077,-0.9450283,1.949537,-0.47541273,14.754343,0.05695057,31.688887,-0.673601,4.321984,-0.980991,79.897882,-0.158275,31.888274
572,4142710642,-6.281456,28.667484,32.723614,-0.7475071,1.9434314,-0.38456255,2.6662216,-2.6945777,8.806917,-0.686059,4.354375,-0.9874,79.942319,-0.203185,32.035056
573,4142727309,-6.3814545,28.364222,32.931473,-0.48301506,1.9130442,-0.28545767,-11.407599,-5.860401,-15.835161,-0.694109,4.386259,-0.992158,79.752192,-0.300858,31.771137
574,4142743976,-6.4620895,27.876522,33.00165,-0.2380209,1.845819,-0.18356276,-21.371073,-8.406641,-37.672466,-0.698076,4.417023,-0.995217,79.396007,-0.440969,31.143263
575,4142760643,-6.557068,27.192516,32.956764,-0.021074295,1.7422438,-0.080461085,-27.21938,-10.170973,-55.993774,-0.698427,4.44606,-0.996558,78.942351,-0.610485,30.210033
576,4142777310,-6.680229,26.172195,32.802917,0.22410393,1.6017053,0.028525889,-30.890648,-11.8183,-73.455154,-0.694692,4.472755,-0.996083,78.427507,-0.807457,28.98578
577,4142793977,-6.8123703,24.860191,32.51889,0.47497272,1.4205396,0.1415717,-30.806747,-13.044847,-88.67505,-0.686776,4.496431,-0.993723,77.914061,-1.024871,27.507863
578,4142810644,-7.1094055,23.065193,32.222767,0.7763033,1.2090037,0.25989133,-31.830215,-14.306197,-103.764496,-0.673838,4.516581,-0.989391,77.383557,-1.263308,25.778455
579,4142827311,-7.581856,20.753113,31.917356,1.1352549,0.965914,0.38380903,-34.105392,-15.655196,-118.86579,-0.654917,4.53268,-0.982994,76.815134,-1.524228,23.797358
580,4142843978,-8.143227,18.042385,31.528343,1.5115013,0.68230367,0.5110354,-33.831455,-16.595566,-131.65706,-0.629725,4.544052,-0.974477,76.251276,-1.800821,21.603074
581,4142860645,-8.833496,14.874104,31.08185,1.9165068,0.3592856,0.641777,-31.991995,-17.220284,-142.50954,-0.597783,4.55004,-0.963781,75.718076,-2.087826,19.227915
582,4142877312,-9.311226,12.117931,30.538652,2.104415,0.103485584,0.73764664,-32.719265,-16.980946,-151.07497,-0.562709,4.551765,-0.951487,75.172755,-2.370842,16.709999
583,4142893979,-9.540253,9.861473,29.888882,2.0454702,-0.07605839,0.7941833,-35.939194,-15.737237,-156.8839,-0.528618,4.550497,-0.938251,74.573768,-2.633129,14.095267
584,4142910646,-9.715591,7.6413383,29.170746,1.863327,-0.22939539,0.82930356,-40.33511,-13.791688,-160.22302,-0.497563,4.546674,-0.924429,73.901516,-2.86299,11.424883
585,4142927313,-9.742668,5.7012444,28.372738,1.4852495,-0.32653618,0.8315392,-46.934555,-10.945737,-160.7734,-0.472809,4.541232,-0.91057,73.119273,-3.045419,8.745326
586,4142943980,-9.805374,3.5447083,27.499353,1.0444565,-0.43262768,0.8221598,-52.28312,-7.3752832,-157.99062,-0.455401,4.534022,-0.896867,72.247888,-3.16834,6.112149
587,4142960647,-9.921783,1.133564,26.554766,0.54652214,-0.5509062,0.80163795,-56.238243,-3.0636654,-151.69554,-0.446292,4.52484,-0.883506,71.310584,-3.219401,3.58389
588,4142977314,-9.91877,-1.0709648,25.527279,-0.14195156,-0.6220703,0.7486407,-61.38736,2.2814708,-141.73164,-0.448658,4.514472,-0.871029,70.287461,-3.181376,1.221696
589,4142993981,-9.836067,-3.171341,24.418798,-0.9974623,-0.6587715,0.66668564,-66.99296,8.659473,-127.81315,-0.465282,4.503492,-0.859918,69.170912,-3.037051,-0.908523
590,4143010648,-9.456596,-5.253895,23.023413,-1.5336418,-0.7467103,0.626316,-69.70769,12.972432,-118.02335,-0.490843,4.491047,-0.849479,68.009117,-2.820844,-2.875579
591,4143027315,-8.732887,-7.258213,21.31792,-1.7242169,-0.88542366,0.63083166,-69.4862,14.98394,-112.979126,-0.51958,4.47629,-0.838965,66.851014,-2.571112,-4.758564
592,4143043982,-7.790825,-9.203144,19.399881,-1.7874088,-1.0415587,0.64836484,-67.38887,16.185387,-108.52107,-0.54937,4.458931,-0.828159,65.727866,-2.301356,-6.567249
593,4143060649,-6.5571594,-11.085102,17.208387,-1.5930734,-1.2360611,0.69748265,-62.52532,15.725733,-106.829,-0.575921,4.43833,-0.816534,64.685777,-2.03926,-8.347732
594,4143077316,-5.111435,-12.727497,14.8597355,-1.4628029,-1.4022017,0.73050886,-57.49103,15.515808,-102.95447,-0.600301,4.41496,-0.804359,63.727593,-1.780663,-10.06364
595,4143093983,-3.4531937,-14.11256,12.357479,-1.4155259,-1.5356731,0.7443307,-52.34096,15.674731,-96.49203,-0.623893,4.389365,-0.791953,62.855244,-1.519417,-11.67184
596,4143110650,-1.4706192,-15.3102,9.587179,-1.178278,-1.6867743,0.7785446,-44.987244,14.504293,-91.77114,-0.643531,4.361252,-0.778977,62.105457,-1.277679,-13.201359
597,4143127317,0.8291168,-16.267727,6.5689297,-0.81805325,-1.8404555,0.82292074,-35.933975,12.394924,-87.717285,-0.657165,4.330578,-0.765262,61.506557,-1.071097,-14.663314
598,4143143984,2.8543205,-17.30643,3.8009017,-0.5896168,-2.0286245,0.844374,-29.55134,10.748106,-82.18315,-0.666992,4.296768,-0.751189,61.014035,-0.891962,-16.033033
599,4143160651,4.571415,-18.44814,1.3138688,-0.48164558,-2.2599044,0.8446376,-25.993048,9.459506,-75.531654,-0.675019,4.259103,-0.737112,60.580818,-0.734304,-17.291894
600,4143177318,6.2645187,-19.489147,-1.1175079,-0.41665268,-2.50848,0.8324898,-23.508377,8.103033,-68.07344,-0.681963,4.217295,-0.723237,60.189012,-0.599253,-18.426451
601,4143193985,7.7772903,-20.508717,-3.3580933,-0.4548111,-2.7848797,0.80006367,-23.254848,6.9867306,-59.395206,-0.689543,4.17088,-0.709903,59.801431,-0.482807,-19.416371
602,4143210652,9.493977,-21.31644,-5.730898,-0.37579155,-3.082738,0.7766184,-22.099941,4.83279,-51.834663,-0.695806,4.119501,-0.696959,59.433099,-0.402261,-20.280282
603,4143227319,11.443165,-21.88174,-8.253942,-0.1689539,-3.4005532,0.76322335,-19.89697,1.5609546,-45.500626,-0.698622,4.062825,-0.684239,59.101483,-0.376245,-21.038626
604,4143243986,13.300629,-22.35947,-10.648065,0.0071105957,-3.7512884,0.73878974,-19.212736,-1.9596372,-38.940655,-0.698503,4.000304,-0.671926,58.781271,-0.408906,-21.687637
605,4143260653,15.149994,-22.698284,-12.979273,0.20123386,-4.134121,0.70960873,-19.401615,-6.029852,-32.704567,-0.695149,3.931402,-0.660099,58.457911,-0.509404,-22.232713
606,4143277320,16.0523,-22.88506,-14.040922,0.44851494,-4.333107,0.6712943,-16.084415,-8.547899,-23.558172,-0.687674,3.859184,-0.648911,58.189837,-0.651869,-22.625349
607,4143293987,15.868885,-22.93121,-13.668911,0.73638535,-4.3291187,0.6211119,-9.156012,-9.228725,-11.079403,-0.675401,3.787032,-0.638559,58.037237,-0.805681,-22.810006
608,4143310654,15.093777,-22.800419,-12.466665,1.0838289,-4.223689,0.5655233,-0.26012063,-9.29071,2.7767868,-0.657337,3.716637,-0.629134,58.032902,-0.960526,-22.763726
609,4143327321,13.438984,-22.489422,-10.066986,1.4977322,-3.9557009,0.50269216,11.753118,-8.120479,18.93255,-0.632375,3.650709,-0.620756,58.228787,-1.095867,-22.448183
610,4143343988,11.359013,-22.028759,-7.081852,1.9193106,-3.652999,0.42966026,23.664577,-6.738806,35.83444,-0.600386,3.589826,-0.613595,58.623197,-1.20818,-21.850942
611,4143360655,8.868713,-21.410046,-3.5266833,2.3511896,-3.3215117,0.34676307,35.3421,-5.229864,53.31906,-0.5612,3.534467,-0.607816,59.212232,-1.295344,-20.962291
612,4143377322,5.4707603,-20.6123,1.2491472,2.8290167,-2.8424783,0.25368685,49.390163,-2.5350113,72.968285,-0.51405,3.487092,-0.603588,60.035401,-1.337594,-19.746153
613,4143393989,1.2367859,-19.636997,7.148903,3.3417702,-2.2401361,0.14967543,65.150665,1.1483594,94.45808,-0.458354,3.449756,-0.601093,61.121245,-1.318455,-18.171852
614,4143410656,-1.7652893,-18.314045,11.469271,3.6165104,-1.777833,0.045517623,74.595535,3.8587217,112.006584,-0.398079,3.420125,-0.600334,62.364504,-1.254143,-16.305076
615,4143427323,-3.4206848,-16.620502,14.058767,3.6289816,-1.4634323,-0.058180273,77.24818,5.574919,125.270454,-0.337596,3.395734,-0.601304,63.651974,-1.161228,-14.217235
616,4143443990,-4.6813354,-14.633045,16.1591,3.49969,-1.1859088,-0.1673035,76.45155,7.1216283,136.77422,-0.279268,3.375969,-0.604092,64.926167,-1.042534,-11.937665
617,4143460657,-4.995926,-12.298809,17.04831,3.1500797,-1.0133648,-0.27911776,69.99391,8.011917,144.94382,-0.226767,3.35908,-0.608744,66.092732,-0.909002,-9.521935
618,4143477324,-5.7207947,-9.701237,18.500713,2.7482128,-0.75879574,-0.40008658,63.20163,9.680881,153.51613,-0.180963,3.346433,-0.615412,67.146092,-0.747654,-6.963333
619,4143493991,-6.9430695,-6.83926,20.628803,2.2993002,-0.4109869,-0.53094035,56.278095,12.229065,162.67102,-0.142641,3.339583,-0.624261,68.08406,-0.543836,-4.252149
620,4143510658,-7.5124435,-3.6200485,21.926184,1.647603,-0.12087202,-0.6662535,44.592358,14.542369,169.1575,-0.115181,3.337568,-0.635365,68.827266,-0.301463,-1.432857
621,4143527325,-7.715637,-0.054405212,22.766857,0.82363033,0.15177631,-0.80757296,29.177288,16.943947,173.72015,-0.101454,3.340098,-0.648825,69.313554,-0.019064,1.462479
622,4143543992,-8.114067,3.1413307,23.926985,0.24144459,0.4212587,-0.91661316,20.002636,18.564625,176.81537,-0.09743,3.347119,-0.664102,69.646931,0.290346,4.409402
623,4143560659,-8.610107,5.9133606,25.282042,-0.082419395,0.6701343,-0.9888259,17.392977,19.191101,178.01033,-0.098804,3.358288,-0.680582,69.936814,0.610198,7.376241
624,4143577326,-9.123024,8.597416,26.705187,-0.32759666,0.91848564,-1.0432442,17.253866,19.460438,177.51793,-0.104264,3.373596,-0.697969,70.224378,0.934539,10.334873
625,4143593993,-9.759621,10.995766,28.347445,-0.38550282,1.1642983,-1.0685564,22.195356,19.087399,175.27557,-0.110689,3.393001,-0.715778,70.594301,1.252662,13.256133
626,4143610660,-9.891319,13.5542755,29.36049,-0.5429516,1.3601942,-1.0855169,25.121836,18.304234,170.07858,-0.119738,3.415671,-0.73387,71.012998,1.557733,16.090776
627,4143627327,-9.487183,16.29784,29.701807,-0.8172054,1.5049837,-1.0949447,25.657013,17.141205,161.80714,-0.133358,3.440754,-0.752119,71.440615,1.84342,18.787562
628,4143643994,-8.933212,18.829723,29.899002,-0.9725323,1.6180747,-1.0760645,29.578972,15.214154,150.90196,-0.149567,3.467722,-0.770053,71.933598,2.096989,21.302595
629,4143660661,-8.079941,21.239376,29.750935,-1.0700388,1.687393,-1.0325109,35.395927,12.55288,136.99907,-0.167401,3.495845,-0.787262,72.52353,2.306204,23.585913
630,4143677328,-7.5818176,23.338108,29.88184,-1.1348138,1.7750256,-0.9795617,36.824516,10.39196,122.664955,-0.186315,3.525429,-0.803588,73.137272,2.479403,25.630329
631,4143693995,-7.5279007,25.047268,30.38741,-1.1389041,1.8858716,-0.91506773,33.97195,8.7690115,108.07442,-0.205297,3.55686,-0.818839,73.703471,2.625553,27.431569
632,4143710662,-7.4902954,26.505985,30.812675,-1.1103816,1.9796464,-0.8332685,28.815205,7.092682,91.65227,-0.223803,3.589854,-0.832727,74.183724,2.743764,28.959107
633,4143727329,-7.652611,27.634853,31.331375,-1.0460501,2.0718727,-0.73680156,19.78632,5.6715164,74.039825,-0.241237,3.624385,-0.845007,74.513496,2.838289,30.193104
634,4143743996,-7.7163925,28.427864,31.69159,-0.86933136,2.1288483,-0.6101326,12.038271,3.6649861,53.70633,-0.255726,3.659866,-0.855176,74.714134,2.899372,31.088209
635,4143760663,-7.639595,28.874542,31.843151,-0.577116,2.144874,-0.45145082,5.7671385,0.99826455,30.425817,-0.265345,3.695614,-0.8627,74.810253,2.91601,31.595306
636,4143777330,-7.727623,28.892025,32.055897,-0.20026684,2.1486578,-0.26981378,-2.9256377,-1.6599965,5.4564576,-0.268683,3.731425,-0.867197,74.761492,2.888343,31.686247
637,4143793997,-7.9125977,28.460482,32.266254,0.28145885,2.131157,-0.060881376,-12.955014,-4.5054197,-21.60137,-0.263992,3.766944,-0.868212,74.545575,2.813253,31.326224
638,4143810664,-8.017509,27.893957,32.319992,0.6375303,2.0844686,0.10320097,-20.015596,-7.1289597,-44.876587,-0.253366,3.801685,-0.866492,74.211982,2.694437,30.578281
639,4143827331,-8.069229,27.189718,32.23841,0.84724045,2.01042,0.21502298,-24.130833,-9.415811,-63.649967,-0.239245,3.835192,-0.862908,73.809801,2.537507,29.517448
640,4143843998,-8.108101,26.164772,32.04966,1.0376701,1.9053597,0.31232053,-26.5867,-11.700299,-80.98685,-0.22195,3.866948,-0.857703,73.366689,2.342502,28.167667
641,4143860665,-8.100807,24.885963,31.722546,1.1463032,1.7673194,0.37469727,-26.270348,-13.845529,-95.1627,-0.202845,3.896403,-0.851458,72.92885,2.111743,26.581622
642,4143877332,-8.222084,23.120872,31.40009,1.3034267,1.6052952,0.4427529,-26.695013,-15.936608,-109.32652,-0.181121,3.923158,-0.844079,72.483933,1.846133,24.759513
643,4143893999,-8.483475,20.832195,31.088102,1.5215178,1.4181504,0.5192866,-27.94972,-17.992802,-123.64634,-0.155762,3.946794,-0.835424,72.018104,1.546253,22.698741
644,4143910666,-8.77597,18.178604,30.69214,1.6823807,1.1992629,0.5659812,-27.308514,-19.843723,-134.98012,-0.127722,3.966782,-0.825991,71.562962,1.215524,20.449072
645,4143927333,-9.142479,15.092987,30.244509,1.814661,0.9497385,0.5909484,-25.47668,-21.500416,-143.905,-0.097478,3.982611,-0.816142,71.138351,0.857184,18.050655
646,4143944000,-9.490288,12.231754,29.829468,1.8338194,0.7172005,0.630274,-25.700602,-22.04641,-152.85965,-0.066914,3.994564,-0.805637,70.710008,0.489744,15.502994
647,4143960667,-9.804253,9.667053,29.44787,1.7148857,0.50527024,0.68167084,-27.955502,-21.346725,-161.54996,-0.038333,4.002985,-0.794276,70.244083,0.133965,12.810495
648,4143977334,-10.1634445,7.030842,29.084995,1.5157785,0.29180527,0.7326639,-31.162043,-19.821983,-169.08423,-0.01307,4.007848,-0.782065,69.724716,-0.196401,9.992425
649,4143994001,-10.543304,4.507557,28.764956,1.2057981,0.09001303,0.7911683,-36.138817,-17.18172,-175.91418,0.007027,4.009348,-0.768879,69.122402,-0.482763,7.060522
650,4144010668,-10.97757,1.7342682,28.417744,0.80360603,-0.130445,0.8255295,-40.237175,-13.89343,-179.65901,0.02042,4.007174,-0.75512,68.451782,-0.71432,4.066205
651,4144027335,-11.477219,-1.3212013,28.045809,0.30872345,-0.37120914,0.8333964,-43.347202,-9.951444,-180.06737,0.025565,4.000987,-0.74123,67.729329,-0.880177,1.065082
652,4144044002,-12.006744,-4.3170967,27.707462,-0.31910133,-0.6054735,0.8364089,-47.484016,-4.839914,-178.58678,0.020247,3.990896,-0.72729,66.937929,-0.960842,-1.911364
653,4144060669,-12.57708,-7.3299904,27.391554,-1.0804577,-0.8393235,0.8269318,-52.08644,1.3796076,-174.57536,0.002239,3.976907,-0.713508,66.069822,-0.937849,-4.820953
654,4144077336,-11.579071,-10.076389,25.455702,-1.5221925,-1.0899496,0.8217457,-55.79146,5.8629055,-169.78879,-0.023131,3.958741,-0.699812,65.139964,-0.840134,-7.650766
655,4144094003,-8.843857,-12.476299,21.740984,-1.6093216,-1.3551407,0.8241896,-58.699364,8.427193,-164.43651,-0.049953,3.936155,-0.686076,64.161641,-0.699681,-10.391374
656,4144110670,-5.133087,-14.707592,17.010984,-1.56006,-1.6303449,0.8203133,-61.069805,10.405169,-157.12224,-0.075954,3.908983,-0.672404,63.143811,-0.526262,-13.010078
657,4144127337,0.022369385,-16.66689,10.792074,-1.2497287,-1.9189382,0.81494457,-62.578236,11.028454,-148.28506,-0.096783,3.877001,-0.658822,62.10084,-0.342454,-15.481496
658,4144144004,5.7050095,-18.424892,4.045535,-0.9558058,-2.203381,0.80270964,-64.54157,12.12374,-137.0784,-0.112713,3.840278,-0.645444,61.025147,-0.140392,-17.766136
659,4144160671,11.881893,-19.976192,-3.1927576,-0.69539547,-2.4824147,0.78204566,-66.98778,13.806546,-123.28314,-0.124303,3.798904,-0.63241,59.908684,0.089717,-19.820855
660,4144177338,19.441387,-21.179882,-11.834602,-0.22075081,-2.767035,0.7596347,-68.98653,14.49998,-107.63871,-0.127982,3.752787,-0.619749,58.758909,0.331383,-21.614834
661,4144194005,28.220154,-22.033504,-21.705315,0.41171074,-3.0528865,0.7339867,-70.81276,14.585085,-89.878815,-0.12112,3.701906,-0.607516,57.578696,0.574468,-23.112814
662,4144210672,34.28164,-22.983402,-28.733084,0.8023987,-3.3232431,0.7176139,-68.8604,14.019953,-74.38099,-0.107747,3.646519,-0.595556,56.431023,0.808134,-24.352497
663,4144227339,37.375374,-24.034313,-32.653496,0.94677067,-3.5769272,0.712758,-62.65517,12.580217,-61.641476,-0.091967,3.586904,-0.583677,55.38677,1.017804,-25.379855
664,4144244006,39.273647,-24.953968,-35.291855,0.99886036,-3.818102,0.7125185,-54.07068,10.520096,-49.37342,-0.075319,3.523269,-0.571802,54.485592,1.193139,-26.202745
665,4144260673,38.903404,-25.846317,-35.534103,0.85715866,-4.041624,0.7209075,-42.029587,7.743553,-38.841133,-0.061033,3.455909,-0.559787,53.785099,1.322198,-26.850097
666,4144277340,38.804726,-26.389568,-36.00054,0.82015896,-4.2589417,0.73195964,-28.3401,3.8447986,-27.5926,-0.047364,3.384927,-0.547588,53.312764,1.386278,-27.309974
667,4144294007,39.113087,-26.54488,-36.825745,0.9037256,-4.469412,0.74551445,-13.07807,-1.2116618,-15.477314,-0.032302,3.310437,-0.535163,53.094796,1.366084,-27.567929
668,4144310674,37.619827,-26.549519,-35.721672,0.8733854,-4.6621914,0.7683856,5.655548,-7.351886,-4.854494,-0.017746,3.232734,-0.522357,53.189055,1.243553,-27.648837
669,4144327341,34.838608,-26.320202,-33.213943,0.7931776,-4.8387794,0.7996928,27.554897,-14.706841,4.7490635,-0.004526,3.152088,-0.509029,53.648303,0.998439,-27.569686
670,4144344008,32.326267,-25.898129,-30.637316,0.89601994,-4.8458433,0.78166896,42.829536,-18.419102,17.941124,0.010408,3.071324,-0.496001,54.362129,0.691454,-27.270667
671,4144360675,29.922192,-25.304882,-27.792799,1.1773148,-4.6653833,0.70977193,50.826916,-18.044262,34.810467,0.03003,2.993568,-0.484171,55.209244,0.390716,-26.690493
672,4144377342,27.19955,-24.452312,-24.359709,1.5712576,-4.369128,0.6109248,56.02684,-15.998254,53.439808,0.056218,2.920749,-0.473989,56.143025,0.124078,-25.79983
673,4144394009,24.483513,-23.351353,-20.590439,2.1367865,-3.9112167,0.46905023,55.75565,-10.918672,74.997765,0.091831,2.855562,-0.466171,57.072286,-0.0579,-24.549867
674,4144410676,20.254665,-22.01659,-15.063143,2.6795168,-3.3749385,0.31964892,56.247845,-5.6391172,96.143364,0.13649,2.799313,-0.460844,58.00975,-0.151885,-22.947478
675,4144427343,14.4148445,-20.431988,-7.6762333,3.1943693,-2.762023,0.1645543,57.8479,-0.33202648,116.66504,0.189729,2.753279,-0.458101,58.973882,-0.157419,-21.003061
676,4144444010,7.9550056,-18.594921,0.7001543,3.829299,-1.987958,-0.028225005,55.100506,7.6242085,139.20415,0.253551,2.720146,-0.458571,59.892224,-0.030349,-18.682992
677,4144460677,0.50956726,-16.50056,10.4219475,4.544779,-1.0663004,-0.25170958,49.26787,17.668266,163.02777,0.329297,2.702374,-0.462766,60.713355,0.264122,-15.965862
678,4144477344,-4.825424,-14.153881,17.490755,4.8938932,-0.3902545,-0.43420818,46.508457,23.842842,181.13393,0.410862,2.69587,-0.470003,61.488496,0.661503,-12.946963
679,4144494011,-7.6661377,-11.551151,21.458405,4.8493958,0.015618324,-0.5732577,46.6604,25.942646,193.11569,0.491685,2.69613,-0.479557,62.266169,1.09388,-9.728368
680,4144510678,-9.755676,-8.681217,24.496374,4.5949345,0.33118725,-0.69855785,47.582726,26.448017,201.7414,0.568267,2.70165,-0.4912,63.059214,1.53468,-6.366011
681,4144527345,-10.202171,-5.541958,25.46645,4.0065928,0.4499488,-0.7913136,50.74969,23.798912,205.06447,0.635044,2.709149,-0.504389,63.905042,1.931329,-2.94827
682,4144544012,-10.585106,-2.1167336,26.514746,3.3822384,0.62612677,-0.901955,51.088234,22.166054,207.75272,0.691415,2.719584,-0.519422,64.756513,2.300763,0.514275
683,4144560679,-11.030067,1.600666,27.80199,2.7321625,0.87451124,-1.033178,48.308502,21.775867,209.93478,0.736951,2.734159,-0.536642,65.561655,2.663694,4.013188
684,4144577346,-9.955002,5.607128,27.24852,1.7965488,0.97551465,-1.143692,46.13167,19.210205,207.52231,0.766893,2.750418,-0.555704,66.330516,2.983864,7.471893
685,4144594013,-7.6710815,9.910637,25.282064,0.6324463,0.981441,-1.2440776,43.419086,15.34547,201.38872,0.777434,2.766775,-0.576439,67.054167,3.239622,10.828372
686,4144610680,-6.63694,13.6170845,24.88253,-0.17594624,1.1152503,-1.3126218,41.01596,13.074194,195.08357,0.774502,2.785363,-0.598316,67.737766,3.457525,14.079765
687,4144627347,-6.844742,16.638412,26.024145,-0.6084223,1.3687577,-1.3416563,39.3912,12.244772,188.3286,0.764362,2.808176,-0.620677,68.394286,3.661605,17.218575
688,4144644014,-7.301483,19.402367,27.539835,-0.9075556,1.6693172,-1.3480996,37.31985,12.066857,179.91064,0.749236,2.835998,-0.643145,69.016284,3.862719,20.217086
689,4144660681,-8.605019,21.652107,30.151007,-0.9201603,2.069782,-1.3237104,35.12814,13.224987,170.58269,0.7339,2.870494,-0.665207,69.601753,4.083135,23.060131
690,4144677348,-8.888985,23.905708,31.554794,-1.0597143,2.381541,-1.2697412,33.21826,13.142016,157.03369,0.716238,2.910186,-0.686369,70.155391,4.302169,25.677359
691,4144694015,-8.023125,26.186043,31.596783,-1.3485808,2.594553,-1.1860175,31.495354,11.714237,138.99887,0.693762,2.953429,-0.706136,70.680314,4.497406,27.994007
692,4144710682,-7.42054,28.001749,32.00717,-1.4491305,2.8455062,-1.0635009,30.059048,10.787378,118.66216,0.66961,3.000854,-0.723861,71.181298,4.677196,29.97171
693,4144727349,-6.6559143,29.448902,32.26266,-1.4483976,3.0922246,-0.9011337,28.9934,9.800266,95.202446,0.64547,3.052391,-0.73888,71.664521,4.840534,31.558417
694,4144744016,-6.130127,30.651443,32.4497,-1.4116063,3.2279906,-0.76449096,25.969015,8.232468,72.38171,0.621943,3.106191,-0.751622,72.097338,4.977742,32.764779
695,4144760683,-6.0325623,31.540026,32.757355,-1.301352,3.2556763,-0.65717375,20.817652,6.2237473,50.719788,0.600254,3.160452,-0.762575,72.444299,5.081471,33.610109
696,4144777350,-5.8650436,32.101585,32.762665,-1.1431522,3.1943913,-0.5460252,14.720211,3.6173124,27.77934,0.581201,3.213692,-0.771675,72.689636,5.14176,34.073098
697,4144794017,-5.777298,32.33444,32.530132,-0.9406166,3.01584,-0.44804686,7.0522194,0.3048172,4.6243196,0.565524,3.263956,-0.779142,72.807173,5.14684,34.15017
698,4144810684,-5.8668365,32.01423,32.41249,-0.56555367,2.8138301,-0.32113242,-0.8298867,-2.9491024,-20.513533,0.556098,3.310853,-0.784494,72.793342,5.097688,33.808278
699,4144827351,-6.097946,31.110037,32.372803,-0.012269974,2.5873768,-0.1615017,-8.818864,-6.165121,-47.869743,0.555894,3.353976,-0.787186,72.646361,4.994936,33.010449
700,4144844018,-6.5611725,29.710028,32.29567,0.65861034,2.2635944,-0.004236996,-18.126331,-9.820057,-75.64985,0.566871,3.391703,-0.787257,72.344255,4.831268,31.749618
701,4144860685,-7.279747,27.742586,32.250122,1.4799185,1.8594525,0.16024512,-28.463768,-13.765103,-104.250946,0.591536,3.422694,-0.784586,71.869859,4.60185,30.012102
702,4144877352,-7.7407,25.776497,32.03034,1.9873924,1.5333352,0.3074873,-36.51064,-16.390026,-127.97836,0.624659,3.44825,-0.779461,71.261348,4.328683,27.879129
703,4144894019,-7.9282303,23.852798,31.62041,2.1352081,1.2907166,0.43076295,-42.095825,-17.579021,-145.97946,0.660246,3.469762,-0.772282,70.559751,4.035699,25.446138
704,4144910686,-8.114639,21.630577,31.172155,2.1703482,1.066498,0.5482107,-46.59245,-17.985874,-161.16078,0.696418,3.487537,-0.763145,69.78321,3.735934,22.760125
705,4144927353,-8.17598,19.254528,30.637522,1.9632721,0.90234494,0.6514359,-49.098804,-17.152931,-171.75476,0.729139,3.502576,-0.752288,68.964897,3.450052,19.897546
706,4144944020,-8.433807,16.382874,30.093752,1.7727842,0.68339396,0.7461912,-51.834972,-16.150719,-180.5794,0.758685,3.513966,-0.739851,68.100981,3.180873,16.887889
707,4144960687,-8.926262,12.969143,29.563276,1.6188688,0.40356064,0.8330638,-54.89281,-15.006637,-187.69348,0.785666,3.520692,-0.725967,67.186101,2.930762,13.759664
708,4144977354,-9.397041,9.29784,28.973549,1.2589903,0.15592146,0.9010834,-56.367367,-12.7686825,-190.01332,0.806649,3.523291,-0.710949,66.246645,2.717951,10.592775
709,4144994021,-9.926064,5.2824745,28.349371,0.7462778,-0.08374214,0.9506846,-56.69672,-9.633979,-187.96481,0.819087,3.521895,-0.695104,65.3017,2.557385,7.460028
710,4145010688,-9.873947,1.7488937,27.123507,0.42330647,-0.36289167,0.9841251,-57.807507,-6.862438,-187.10118,0.826142,3.515847,-0.678702,64.338242,2.443011,4.341675
711,4145027355,-9.150261,-1.1894798,25.232382,0.28847027,-0.6743741,0.99883217,-59.617336,-4.430169,-187.37389,0.83095,3.504607,-0.662055,63.34462,2.369175,1.218777
712,4145044022,-8.116135,-3.9860382,22.963402,0.21190643,-1.0116887,0.9928157,-61.47486,-1.844481,-186.25102,0.834482,3.487746,-0.645508,62.320039,2.338434,-1.885407
713,4145060689,-6.58136,-6.3948936,20.151787,0.2779522,-1.3845239,0.9650572,-63.827087,0.5961962,-185.02287,0.839115,3.464671,-0.629424,61.256254,2.348371,-4.969122
714,4145077356,-4.863167,-8.836208,17.116879,0.22325993,-1.7407355,0.91005,-65.01099,3.9155307,-179.40791,0.842836,3.435659,-0.614257,60.172738,2.41363,-7.959254
715,4145094023,-2.9829636,-11.335041,13.875328,0.03229046,-2.0783281,0.8259694,-64.92368,8.188101,-168.98828,0.843374,3.40102,-0.600491,59.090677,2.550098,-10.775725
716,4145110690,-0.6093826,-13.4571495,10.118479,-0.09424591,-2.430472,0.71346825,-64.74524,12.66883,-156.8718,0.841803,3.360512,-0.5886,58.01159,2.761245,-13.390255
717,4145127357,2.1991692,-15.278782,5.906126,-0.21460629,-2.7852516,0.56998044,-64.09213,17.59721,-141.99731,0.838226,3.314091,-0.5791,56.943388,3.054532,-15.756877
718,4145144024,5.0974884,-17.090137,1.7127607,-0.3416252,-3.1176715,0.49068552,-62.765533,20.215874,-128.33658,0.832532,3.26213,-0.570922,55.897296,3.391463,-17.89582
719,4145160691,8.108761,-18.8438,-2.4645576,-0.4542179,-3.4275823,0.48401624,-60.852764,20.171848,-116.54649,0.824962,3.205004,-0.562855,54.883083,3.72766,-19.838262
720,4145177358,11.370293,-20.434803,-6.8196545,-0.58752537,-3.7173653,0.50231,-58.155994,18.936321,-103.91918,0.81517,3.143048,-0.554483,53.913816,4.043265,-21.570248
