PacketCounter,SampleTimeFine,Euler_X,Euler_Y,Euler_Z,Acc_X,Acc_Y,Acc_Z,Gyr_X,Gyr_Y,Gyr_Z,Velo_X,Velo_Y,Velo_Z,ANG_X,ANG_Y,ANG_Z
0,1426197161,140.5372162,-80.70094299,49.90653992,0.0,0.0,0.0,0.0,0.0,0.0,0.0,0.0,0.0,0.0,0.0,0.0
1,1426213828,138.6855927,-79.05500793,51.09122849,10.34383488,2.710362911,-2.602938175,-29.00697708,-68.06795502,-25.17849922,0.172397,0.045173,-0.043382,-0.48345,-1.134466,-0.419642
2,1426230495,137.6628418,-76.19487,51.65677261,9.844756126,3.325846672,-2.783585548,-21.02807617,-67.05405426,-30.6207695,0.336476,0.100604,-0.089775,-0.833918,-2.252034,-0.929988
3,1426247162,136.5747681,-73.21434021,52.31823349,9.977223396,2.982681036,-2.126910686,-24.02509689,-64.99945068,-31.35219765,0.502763,0.150315,-0.125224,-1.234336,-3.335358,-1.452525
4,1426263829,135.5291595,-71.29160309,52.86130524,9.780696869,0.557567298,-1.269400477,-22.34617424,-46.86997986,-18.38319588,0.665775,0.159608,-0.146381,-1.606772,-4.116524,-1.758912
5,1426280496,134.2564697,-70.94065857,53.16822052,8.707170486,1.480152488,0.621370494,-56.62201691,-12.00620174,-10.89858055,0.810895,0.184277,-0.136025,-2.550472,-4.316627,-1.940555
6,1426297163,130.3171082,-71.36486053,55.42855072,8.811692238,0.62337929,3.542033195,-100.407402,15.94795036,-14.47197056,0.957757,0.194667,-0.076991,-4.223929,-4.050828,-2.181755
7,1426313830,123.8384323,-72.78753662,59.98420334,7.453226089,-0.988186121,1.981362939,-114.0424347,47.36249161,-1.897516251,1.081977,0.178197,-0.043968,-6.124636,-3.261453,-2.21338
8,1426330497,116.3162384,-74.64636993,65.7913208,7.900530338,-2.849132538,2.090136766,-104.5891495,71.08350372,11.81782818,1.213653,0.130711,-0.009132,-7.867788,-2.076728,-2.016416
9,1426347164,106.9340744,-76.86725616,74.05080414,8.217600822,-3.421438217,1.247369409,-72.52841949,98.20653534,24.60649872,1.350613,0.073687,0.011657,-9.076595,-0.439952,-1.606308
10,1426363831,94.27272034,-79.15219879,86.15642548,8.734063148,-2.970179796,0.708215237,-40.54476929,119.9517975,41.85374832,1.496181,0.024184,0.023461,-9.752341,1.559245,-0.908746
11,1426380498,75.78000641,-80.979599,104.5008163,9.47906208,-2.766866446,0.360158473,-16.95014763,137.1076965,58.33277893,1.654165,-0.02193,0.029464,-10.034843,3.844373,0.063467
12,1426397165,51.4419632,-81.56333923,128.9286652,10.3995266,-2.591272593,-0.091047212,-2.632839203,151.0504608,65.14880371,1.82749,-0.065118,0.027947,-10.078724,6.361881,1.14928
13,1426413832,28.51085663,-80.55885315,152.0575562,11.1912365,-1.743529081,-0.740209281,4.67802906,161.3883514,66.72119904,2.014011,-0.094177,0.01561,-10.000757,9.051687,2.2613
14,1426430499,12.15565968,-78.43183136,168.5749207,11.76340294,-0.020449683,-1.621102214,3.283219099,169.7235413,72.4102478,2.210068,-0.094518,-0.011408,-9.946037,11.880413,3.468137
15,1426447166,2.144503117,-75.75320435,178.5548553,12.24725056,-0.190188825,-1.841322899,-7.178287983,174.761795,70.35089874,2.414189,-0.097688,-0.042097,-10.065675,14.79311,4.640652
16,1426463833,-4.118859768,-72.91745758,-175.3660126,12.61497211,0.487461418,-2.519562244,-14.889184,176.589798,67.26355743,2.624439,-0.089564,-0.08409,-10.313828,17.736273,5.761711
17,1426480500,-8.247506142,-70.19067383,-171.5606995,12.7505846,1.176464438,-3.149257183,-21.85224342,171.8785553,63.45472717,2.836949,-0.069956,-0.136578,-10.678032,20.600916,6.81929
18,1426497167,-11.12271786,-67.60795593,-169.052002,12.27553558,1.499231815,-3.164421797,-23.53685188,168.5654297,61.31090546,3.041541,-0.044969,-0.189318,-11.070313,23.41034,7.841138
19,1426513834,-13.22445869,-65.20818329,-167.2806549,10.9361887,1.267132282,-2.470506668,-21.00127411,162.637558,60.52602386,3.223811,-0.02385,-0.230493,-11.420334,26.120966,8.849905
20,1426530501,-14.80560875,-63.19180298,-166.0183563,9.978462219,1.126238108,-2.144840956,-19.74560928,143.3903961,54.90261841,3.390119,-0.005079,-0.26624,-11.749427,28.510806,9.764949
21,1426547168,-16.04071999,-61.60396957,-165.0550537,9.616256714,1.195118785,-2.317757845,-16.6887989,120.3311996,48.56790543,3.55039,0.01484,-0.304869,-12.027574,30.516326,10.574414
22,1426563835,-16.93913841,-60.41490936,-164.3993988,9.262375832,0.844267905,-3.118144274,-14.03264046,99.8091507,39.01106262,3.704763,0.028911,-0.356838,-12.261451,32.179812,11.224598
23,1426580502,-17.34477806,-59.53542709,-164.0356903,8.44826889,0.801888466,-3.534213543,-0.425944984,85.36968994,28.52060699,3.845567,0.042276,-0.415742,-12.26855,33.60264,11.699941
24,1426597169,-17.29974937,-59.00073242,-163.9219513,7.814867496,1.01310885,-3.05381012,13.17562962,68.67668915,16.77885246,3.975815,0.059161,-0.466639,-12.048956,34.747251,11.979589
25,1426613836,-16.86041832,-58.84991455,-164.0553131,7.307042599,1.136914253,-3.189116001,23.50555801,48.97446823,3.59727788,4.097599,0.07811,-0.519791,-11.657197,35.563492,12.039544
26,1426630503,-16.16156387,-59.13679123,-164.4160156,7.085553646,1.775731444,-3.497002363,26.71125221,25.56311798,-10.027071,4.215692,0.107706,-0.578074,-11.212009,35.989544,11.872426
27,1426647170,-15.34716511,-59.86355591,-165.0058746,7.780992031,3.157609701,-3.515084267,20.82893181,1.583945751,-22.75842476,4.345375,0.160333,-0.636659,-10.86486,36.015943,11.493119
28,1426663837,-14.64046669,-60.98551178,-165.8791046,6.485380173,3.799523354,-5.289510727,-1.969851494,-19.80759239,-34.47478485,4.453465,0.223658,-0.724818,-10.897691,35.685816,10.918539
29,1426680504,-14.48156834,-62.77849579,-166.6513519,7.677241325,2.386624098,-6.547512531,-31.24175072,-59.93441772,-38.52993774,4.581419,0.263435,-0.833943,-11.418387,34.686909,10.276373
30,1426697171,-15.49062634,-64.33947754,-166.7850037,13.42992401,-2.62746191,1.623788953,-67.96514893,-50.08128357,-16.84046173,4.805251,0.219644,-0.80688,-12.551139,33.852221,9.995699
31,1426713838,-17.27921486,-64.84687042,-166.7134552,13.89101982,-10.2303381,12.11803055,-103.1990204,7.570836067,3.352559805,5.036768,0.049138,-0.604913,-14.271123,33.978402,10.051575
32,1426730505,-17.64722633,-66.31404114,-166.7894897,7.855148315,-9.44023037,2.493561745,-24.76207352,-52.5576973,-22.20956612,5.167687,-0.108199,-0.563354,-14.683824,33.10244,9.681416
33,1426747172,-17.14982414,-68.73525238,-167.3565674,11.84017944,1.312975287,-8.255583763,0.990607977,-106.5097427,-53.89333725,5.365023,-0.086316,-0.700947,-14.667314,31.327278,8.783194
34,1426763839,-16.55276489,-70.29859924,-168.8509064,16.31183052,2.61520052,-3.755186081,-46.05072403,-49.96111298,-54.20869827,5.636887,-0.042729,-0.763533,-15.434826,30.494593,7.879716
35,1426780506,-14.78139019,-71.78279114,-171.1173248,9.739539146,2.068183899,2.088748932,-21.0722599,-42.29132462,-61.91588593,5.799213,-0.008259,-0.728721,-15.78603,29.789738,6.847785
36,1426797173,-12.93228054,-73.39022064,-173.2295837,9.614171028,2.415554762,0.643278837,-9.569802284,-55.42980194,-54.484375,5.959449,0.032,-0.718,-15.945527,28.865908,5.939712
37,1426813840,-11.33644199,-74.65765381,-175.1399841,8.484743118,1.391525626,2.019666672,-14.59117794,-47.96513367,-42.44402695,6.100861,0.055192,-0.684339,-16.188713,28.066489,5.232312
38,1426830507,-9.823815346,-75.77323151,-176.8668976,8.5125494,1.583817244,-0.035240501,-9.649924278,-52.53462219,-36.19386673,6.242737,0.081589,-0.684926,-16.349545,27.190912,4.629081
39,1426847174,-8.270579338,-76.6288147,-178.5904846,10.41322613,0.196200266,-1.644422293,-7.400071144,-43.37731552,-31.54104233,6.416291,0.084859,-0.712333,-16.47288,26.467957,4.103397
40,1426863841,-6.886733532,-77.21690369,179.946106,11.31078911,-0.451968879,-1.245688438,-2.593363523,-30.61167908,-24.01890945,6.604804,0.077326,-0.733094,-16.516103,25.957762,3.703082
41,1426880508,-5.246537209,-77.64379883,178.3023834,10.52029228,-0.616886616,-0.778749764,2.088198423,-22.11318588,-23.94811249,6.780142,0.067045,-0.746073,-16.4813,25.589209,3.303947
42,1426897175,-3.40943718,-78.07210541,176.4249115,10.19540882,-0.306716591,-0.558117568,0.041326255,-23.01777077,-25.54971313,6.950065,0.061933,-0.755375,-16.480611,25.205579,2.878118
43,1426913842,-1.062976837,-78.45917511,173.8937683,9.741063118,0.123417839,0.417347401,-7.960718632,-21.30395699,-31.77717209,7.112416,0.06399,-0.748419,-16.61329,24.850513,2.348498
44,1426930509,1.704333186,-78.8306427,171.0204163,9.658314705,1.333624482,0.563071847,-3.040987492,-21.85182953,-33.83168793,7.273388,0.086217,-0.739034,-16.663973,24.486316,1.784637
45,1426947176,4.032651901,-79.1708374,168.6399841,9.603581429,1.565453887,0.556177914,-0.560011148,-21.17100525,-26.19623756,7.433448,0.112308,-0.729764,-16.673307,24.133466,1.348033
46,1426963843,6.004321575,-79.47793579,166.7932434,10.23932171,0.732185602,-0.246230006,9.35579586,-19.58932114,-18.82851982,7.604103,0.124511,-0.733868,-16.517377,23.806977,1.034224
47,1426980510,8.080142975,-79.73975372,164.9869843,10.32438755,0.024059493,-0.23489584,17.89182091,-17.43294907,-17.47362328,7.776176,0.124912,-0.737783,-16.21918,23.516428,0.742997
48,1426997177,10.92745113,-79.9776001,162.5151672,9.92783165,-0.148444861,-0.11863938,24.78859901,-17.82578087,-23.41201782,7.94164,0.122438,-0.73976,-15.806037,23.219332,0.352797
49,1427013844,14.2200737,-80.25463867,159.5927582,9.607553482,0.800009608,0.089115351,24.76360321,-22.20995522,-25.78284454,8.101766,0.135771,-0.738275,-15.39331,22.849166,-0.076917
50,1427030511,17.52585983,-80.56912231,156.5503235,9.719647408,1.129388809,0.528408527,18.29509544,-25.90563965,-24.1060791,8.26376,0.154594,-0.729468,-15.088392,22.417405,-0.478685
51,1427047178,20.9865284,-80.90441132,153.366394,9.296278,1.293217421,0.350025982,19.03502274,-28.58376884,-22.41045761,8.418698,0.176148,-0.723634,-14.771142,21.941009,-0.852193
52,1427063845,24.68339539,-81.26084137,150.0018768,9.462151527,1.348281264,-0.34764576,22.32174683,-31.30371284,-20.54979134,8.576401,0.198619,-0.729428,-14.399113,21.41928,-1.19469
53,1427080512,28.57008362,-81.60293579,146.4624023,9.637073517,1.123664975,0.052021775,23.14323616,-31.97420502,-19.09069443,8.737019,0.217347,-0.728561,-14.013392,20.886377,-1.512868
54,1427097179,32.67366409,-81.91485596,142.661911,9.70376873,1.05156672,-0.417109072,20.49043846,-32.19318008,-18.60528755,8.898748,0.234873,-0.735513,-13.671885,20.349824,-1.822956
55,1427113846,36.87010574,-82.18821716,138.6442566,9.774782181,1.320741177,-0.735975266,12.97928429,-31.92451286,-18.03663254,9.061661,0.256885,-0.747779,-13.455564,19.817749,-2.123567
56,1427130513,41.19494247,-82.421875,134.4845886,9.851396561,1.038786054,-0.785545766,12.10080051,-31.36808395,-17.13988876,9.225851,0.274198,-0.760871,-13.253884,19.294948,-2.409232
57,1427147180,45.56663132,-82.58868408,130.3260193,9.852334976,1.421206951,-0.563595474,14.85475159,-29.05889702,-16.79083061,9.390057,0.297885,-0.770264,-13.006305,18.810633,-2.689079
58,1427163847,49.82375336,-82.72373962,126.2751694,9.797357559,1.676365495,-0.477165043,14.31611633,-27.85995865,-14.92877007,9.553346,0.325824,-0.778217,-12.767703,18.3463,-2.937892
59,1427180514,54.06312561,-82.83716583,122.2510986,9.78713131,1.438917518,-0.910710335,14.7749939,-27.52022552,-13.35317039,9.716465,0.349806,-0.793396,-12.521453,17.88763,-3.160445
60,1427197181,58.35968399,-82.92060852,118.1836777,9.846110344,1.347912788,-1.120411277,15.55605698,-27.36360359,-12.6616106,9.880567,0.372271,-0.81207,-12.262185,17.43157,-3.371472
61,1427213848,62.73136902,-82.97005463,114.054657,9.644690514,1.44219923,-1.094406843,16.39303398,-27.37065125,-12.39412594,10.041312,0.396308,-0.83031,-11.988968,16.975392,-3.578041
62,1427230515,67.19377899,-83.00154114,109.8044128,9.553610802,1.59049952,-0.887149155,14.55605888,-28.44228935,-11.46216583,10.200539,0.422816,-0.845096,-11.746367,16.501354,-3.769077
63,1427247182,72.07983398,-83.01450348,105.1625137,9.497567177,1.473335862,-0.70774585,16.66715813,-31.47222519,-11.07780552,10.358832,0.447372,-0.856892,-11.468581,15.976817,-3.953707
64,1427263849,77.55075836,-82.98796082,99.99639893,9.371647835,1.440391064,-0.691158116,20.52375793,-35.45595932,-11.42393684,10.515026,0.471379,-0.868411,-11.126518,15.385884,-4.144106
65,1427280516,83.60334015,-82.90492249,94.28223419,9.391144753,1.37468946,-0.871062577,22.82963181,-40.13645554,-11.80293846,10.671545,0.49429,-0.882929,-10.746024,14.716943,-4.340822
66,1427297183,90.11759186,-82.72179413,88.10497284,9.509217262,1.449292541,-0.915518761,23.06902313,-45.11184311,-13.5045929,10.830032,0.518445,-0.898188,-10.36154,13.965079,-4.565899
67,1427313850,96.80290985,-82.42221069,81.73729706,9.50104332,1.362555027,-1.081459165,22.1949501,-49.79886627,-14.9408493,10.988383,0.541154,-0.916212,-9.991624,13.135098,-4.814913
68,1427330517,103.5412064,-81.98934937,75.34475708,9.457344055,1.332124829,-1.247153044,24.22480392,-55.19084549,-16.35785294,11.146005,0.563356,-0.936998,-9.587877,12.215251,-5.087544
69,1427347184,110.143219,-81.39022064,69.14305878,9.56136322,1.295318842,-1.400200844,27.84494972,-61.28687668,-18.79392624,11.305361,0.584945,-0.960335,-9.123795,11.193803,-5.400776
70,1427363851,116.2909393,-80.63769531,63.42002106,9.689211845,1.3717134,-1.712376356,29.6215477,-66.4854126,-20.32587814,11.466848,0.607807,-0.988875,-8.630103,10.085713,-5.739541
71,1427380518,121.941803,-79.7272644,58.21337509,9.856254578,1.699365973,-1.535351872,31.14817047,-72.50857544,-21.78442383,11.631119,0.63613,-1.014464,-8.110967,8.877237,-6.102615
72,1427397185,127.161087,-78.65262604,53.4427681,9.927768707,1.579482198,-2.029432774,31.92279243,-80.17923737,-22.63983917,11.796582,0.662455,-1.048288,-7.57892,7.540916,-6.479946
73,1427413852,131.8250275,-77.41928864,49.18229294,10.21949005,1.252494454,-2.382505178,29.68725014,-87.35578156,-23.39978981,11.966907,0.68333,-1.087996,-7.084132,6.084986,-6.869942
74,1427430519,136.0071716,-76.04372406,45.39518738,10.68380356,0.896392643,-2.678302288,29.67357254,-94.20693207,-23.27733231,12.14497,0.69827,-1.132634,-6.589572,4.51487,-7.257898
75,1427447186,139.6886597,-74.52993011,42.04692459,10.76769733,0.91936022,-3.056397915,26.49543762,-100.979393,-23.14934158,12.324432,0.713593,-1.183574,-6.147981,2.83188,-7.64372
76,1427463853,143.0151215,-72.95378113,39.04515457,11.35111809,0.940761626,-3.207507849,26.59519958,-104.7526627,-19.72002983,12.513617,0.729272,-1.237032,-5.704728,1.086002,-7.972387
77,1427480520,145.9954987,-71.28456879,36.3745575,12.48779202,0.680468082,-3.011643887,26.23205948,-109.5170746,-18.14844322,12.721747,0.740613,-1.287226,-5.267527,-0.739283,-8.274861
78,1427497187,148.4174805,-69.49998474,34.25462723,13.21650982,0.483212709,-2.713497162,25.40480423,-112.5631104,-22.188797,12.942022,0.748667,-1.332451,-4.844114,-2.615335,-8.644674
79,1427513854,150.7210541,-67.5677948,32.28645706,13.41082096,-0.238012284,-2.723354816,28.21485329,-121.3138428,-21.55565834,13.165536,0.7447,-1.37784,-4.373866,-4.637232,-9.003935
80,1427530521,153.0664063,-65.5440979,30.3317852,15.56271267,-0.292576462,-0.858782768,33.01067352,-128.5832367,-16.1753006,13.424915,0.739824,-1.392153,-3.823688,-6.780286,-9.273523
81,1427547188,154.7597351,-63.43336105,28.98352623,15.95845509,0.656653404,1.840355277,28.48676109,-128.6503143,-24.56918144,13.690889,0.750768,-1.36148,-3.348909,-8.924458,-9.683009
82,1427563855,155.7975769,-61.06227493,28.10018921,15.15693092,0.102584243,0.954211473,15.27667809,-139.2626038,-37.26787567,13.943505,0.752478,-1.345576,-3.094298,-11.245501,-10.30414
83,1427580522,156.4102325,-58.57578659,27.64412689,15.13337708,0.012187827,1.406065464,13.02511406,-141.7863312,-48.07115173,14.195728,0.752681,-1.322142,-2.877213,-13.608607,-11.105326
84,1427597189,156.3987274,-55.66065979,27.87370682,14.01560116,0.588102281,-2.017124653,10.81448936,-157.20578,-77.10806274,14.429321,0.762483,-1.355761,-2.696972,-16.228703,-12.39046
85,1427613856,155.8789215,-52.6158371,28.9282856,12.17616749,3.122167587,-6.183203697,20.04360962,-152.0257874,-108.0594711,14.632257,0.814519,-1.458814,-2.362912,-18.762466,-14.191451
86,1427630523,155.1371765,-50.38396835,29.83291817,8.451559067,6.404960632,-9.176145554,-2.069491625,-107.771019,-86.49468231,14.773116,0.921268,-1.61175,-2.397404,-20.55865,-15.633029
87,1427647190,155.9780579,-48.52206039,29.69640923,8.18290329,7.895691872,-3.001485109,44.19823074,-103.7252197,-41.5298233,14.909498,1.052863,-1.661775,-1.660767,-22.287404,-16.325193
88,1427663857,156.4263,-47.26668167,29.66704369,9.851860046,2.026706219,-1.044943571,25.62823105,-69.22406769,-29.3777771,15.073696,1.086641,-1.679191,-1.23363,-23.441138,-16.814823
89,1427680524,157.2895203,-46.84136581,29.96117783,3.921294928,-1.653328538,-2.512667656,64.75900269,-18.62913704,-21.16779709,15.139051,1.059086,-1.721069,-0.154313,-23.751624,-17.16762
90,1427697191,157.6490479,-46.4940834,30.24572372,4.979682446,0.000661271,-2.455774307,33.99618149,-14.61340141,-18.92084312,15.222046,1.059097,-1.761999,0.41229,-23.995181,-17.482967
91,1427713858,157.9684601,-47.14678192,30.54589653,5.700810432,2.063652992,1.249842644,32.28705597,41.07346344,3.250827074,15.31706,1.093491,-1.741168,0.950408,-23.310623,-17.428787
92,1427730525,157.9565887,-48.24425507,30.74779701,2.041929245,2.02836895,0.702744305,8.264945984,64.19818115,17.03174782,15.351092,1.127297,-1.729456,1.088157,-22.240653,-17.144925
93,1427747192,157.4407349,-49.70320129,30.9307003,1.97053647,0.657396317,-1.666728854,-22.63532829,83.83154297,26.46416092,15.383934,1.138254,-1.757235,0.710902,-20.843461,-16.703856
94,1427763859,157.0015411,-51.63957214,31.03684425,3.598739624,-0.989566565,-2.475569963,-21.39983749,108.8323898,41.17776489,15.443913,1.121761,-1.798494,0.354238,-19.029588,-16.01756
95,1427780526,156.9563599,-54.17350769,31.10604858,4.591839314,-2.335390568,-2.407959223,0.592707098,141.088089,57.0377388,15.520444,1.082838,-1.838627,0.364116,-16.67812,-15.066931
96,1427797193,157.2794342,-57.15825653,31.23525429,4.879324436,-2.519635916,-2.05945611,25.73462677,166.8899841,65.44007874,15.601766,1.040844,-1.872951,0.793026,-13.89662,-13.976263
97,1427813860,158.0300598,-60.45634079,31.40286827,6.360238075,-2.477302313,-2.329784155,53.55109787,185.2111206,70.19711304,15.70777,0.999556,-1.911781,1.685544,-10.809768,-12.806311
98,1427830527,159.1282654,-64.02449036,31.62069511,8.311605453,-2.114906549,-3.564735413,77.33633423,201.7337952,72.25245667,15.846297,0.964308,-1.971193,2.974483,-7.447538,-11.602103
99,1427847194,160.2337189,-67.74829865,31.92284584,10.48110104,-2.111423254,-5.610341072,82.74123383,212.3160248,70.32203674,16.020982,0.929118,-2.064699,4.353504,-3.908938,-10.430069
100,1427863861,160.9853973,-71.60920715,32.47851944,11.78575802,-1.052370906,-6.59404707,76.23069,222.6209564,65.62210083,16.217411,0.911578,-2.1746,5.624016,-0.198589,-9.336367
101,1427880528,160.3939056,-75.42695618,33.54539871,12.05321693,1.643619299,-6.394657135,25.80401039,222.4986572,58.20998764,16.418298,0.938972,-2.281178,6.054083,3.509722,-8.366201
102,1427897195,158.7323151,-79.35752106,34.73034286,12.63709641,1.814200282,-7.057173252,-30.35679054,226.8092804,67.44661713,16.628916,0.969209,-2.398798,5.548136,7.289877,-7.242091
103,1427913862,157.1306,-83.27037811,35.16055679,11.98262596,1.627875686,-6.623675346,-70.61867523,219.5543518,84.28327179,16.828626,0.99634,-2.509193,4.371158,10.949116,-5.83737
104,1427930529,155.87117,-87.11371613,34.80209732,12.55184555,1.054132581,-6.767270088,-97.02241516,211.3921509,93.33763123,17.037823,1.013909,-2.621981,2.754118,14.472319,-4.281743
105,1427947196,-26.62757683,-89.10387421,-144.5013123,12.80233955,1.862621546,-5.294774055,-108.1590424,206.1679688,96.41098022,17.251195,1.044953,-2.710227,0.951467,17.908452,-2.674893
106,1427963863,-28.48774338,-85.37023163,-144.4562683,12.32736778,1.433784604,-4.258054733,-108.8923035,199.4165039,103.6055679,17.456651,1.068849,-2.781195,-0.863405,21.23206,-0.948134
107,1427980530,-30.80508995,-81.83377075,-143.7254333,12.18028545,0.247841179,-4.190478325,-95.43267059,182.9626923,109.1230621,17.659656,1.07298,-2.851036,-2.45395,24.281438,0.870584
108,1427997197,-32.33649063,-78.57161713,-143.3285217,12.7728529,0.371252805,-4.37789011,-68.38975525,165.7081757,105.8889923,17.872537,1.079168,-2.924001,-3.593779,27.043241,2.635401
109,1428013864,-32.98387146,-75.47353363,-143.4141998,12.69675064,0.872986794,-4.151114941,-43.82098389,158.2979736,99.35591888,18.08415,1.093718,-2.993186,-4.324129,29.681541,4.291333
110,1428030531,-32.81040955,-72.5365448,-143.8468475,11.57206249,-0.222390249,-4.022125244,-14.52134228,153.1536255,89.78784943,18.277018,1.090011,-3.060221,-4.566151,32.234101,5.787797
111,1428047198,-31.88163376,-69.960289,-144.6610107,9.626036644,-0.092932321,-4.300609112,9.512947083,140.4144135,69.55626678,18.437452,1.088462,-3.131898,-4.407602,34.574341,6.947068
112,1428063865,-30.66747475,-67.88803864,-145.4522247,8.20351696,1.967470169,-5.290933132,28.61716843,116.6746063,50.10892868,18.574177,1.121253,-3.22008,-3.930649,36.518918,7.782217
113,1428080532,-29.76336861,-66.30618286,-145.9508667,7.434449673,2.867879391,-5.535162926,26.76466942,89.5657196,37.93168259,18.698084,1.169051,-3.312333,-3.484571,38.01168,8.414412
114,1428097199,-29.21191597,-65.28392029,-146.2180481,6.944590092,2.500783682,-6.020152092,18.53907776,58.46662521,24.79170799,18.813827,1.210731,-3.412669,-3.175586,38.986124,8.827607
115,1428113866,-28.68506432,-64.86820984,-146.5438385,6.195198536,3.786170006,-7.167821884,13.95729256,27.8089447,5.264606476,18.91708,1.273834,-3.532133,-2.942964,39.449606,8.91535
116,1428130533,-28.12256241,-65.05370331,-146.9581604,5.931438446,4.633979321,-7.214252472,11.28788948,-2.609290361,-14.04332447,19.015937,1.351067,-3.652371,-2.754833,39.406118,8.681295
117,1428147200,-27.64929581,-65.73847961,-147.3058929,5.758419991,4.065151691,-5.953335762,9.464292526,-29.90227509,-26.26706123,19.111911,1.41882,-3.751593,-2.597095,38.907747,8.243511
118,1428163867,-27.36288643,-67.01174927,-147.5090332,8.416881561,4.822326183,-5.668811321,6.029231548,-63.01202774,-38.88220978,19.252192,1.499192,-3.846073,-2.496608,37.857547,7.595474
119,1428180534,-26.92510986,-68.45888519,-147.9254456,9.203323364,2.886095524,-5.616650105,3.121076345,-70.29417419,-47.1675148,19.405581,1.547294,-3.939684,-2.44459,36.685977,6.809349
120,1428197201,-28.92128563,-68.62297058,-146.272171,17.79982567,-10.56488991,8.128709793,-27.46825409,-22.88388062,28.41965103,19.702245,1.371213,-3.804206,-2.902394,36.304579,7.28301
121,1428213868,-30.16371346,-67.96760559,-146.3104401,9.73180294,-13.61222839,13.99783707,-76.62345123,37.25561905,19.3985157,19.864442,1.144343,-3.570909,-4.179452,36.925506,7.606319
122,1428230535,-29.1595192,-70.08779144,-146.8674774,10.49745369,-1.274661899,-8.145776749,29.12075043,-102.4055786,-72.95967102,20.0394,1.123099,-3.706672,-3.694106,35.218746,6.390324
123,1428247202,-28.12661171,-72.1020813,-148.4543152,17.2849884,0.418986797,-9.202969551,-28.01187134,-88.76074982,-84.60363007,20.327483,1.130082,-3.860055,-4.160971,33.7394,4.980263
124,1428263869,-25.06793785,-72.86743927,-151.8961182,12.1343956,1.228611588,0.722105265,-13.34579754,-10.33232403,-75.61521912,20.529723,1.150559,-3.84802,-4.383401,33.567195,3.720009
125,1428280536,-21.18889236,-74.03365326,-155.8648987,9.49195385,8.962560654,4.587109566,4.470238686,-34.78084564,-89.25747681,20.687922,1.299935,-3.771568,-4.308897,32.987514,2.232384
126,1428297203,-20.22630692,-75.15476227,-157.114624,8.482788086,3.815858841,0.773161948,-14.64362335,-53.12962723,-41.54574585,20.829302,1.363533,-3.758682,-4.552957,32.10202,1.539955
127,1428313870,-20.22652626,-76.24004364,-157.6770172,8.575998306,-0.24069418,0.727780342,-32.85654831,-55.50044632,-29.32782173,20.972235,1.359521,-3.746552,-5.100566,31.177013,1.051158
128,1428330537,-19.73534393,-77.20602417,-158.2919312,10.93301296,-1.776896596,-1.495380998,-6.583389282,-48.88806534,-26.76354408,21.154452,1.329906,-3.771475,-5.210289,30.362212,0.605099
129,1428347204,-18.67839241,-77.92297363,-159.5054932,10.56140614,-1.366265416,-2.196089745,-7.819481373,-32.70844269,-28.00678062,21.330475,1.307135,-3.808076,-5.340614,29.817071,0.138319
130,1428363871,-17.20277596,-78.64514923,-161.3562317,11.44752979,-1.957704663,-2.203003168,-20.32878304,-31.42316246,-33.87915039,21.521267,1.274507,-3.844793,-5.679427,29.293352,-0.426334
131,1428380538,-14.29244614,-79.24938965,-164.5307007,9.809901237,-0.900487781,0.868165851,-12.44781494,-22.03574753,-44.11264801,21.684765,1.259499,-3.830324,-5.886891,28.92609,-1.161545
132,1428397205,-10.92984772,-79.99134827,-167.648468,9.272964478,1.158330441,1.239007592,17.5963726,-33.15364075,-41.77467346,21.839314,1.278805,-3.809674,-5.593618,28.373529,-1.85779
133,1428413872,-7.944893837,-80.7111969,-170.4178009,9.956160545,1.34001112,0.346384495,15.11402702,-35.14980316,-33.69593811,22.00525,1.301139,-3.803901,-5.341718,27.787699,-2.419389
134,1428430539,-5.083891392,-81.42424011,-173.1754608,10.34496593,0.704952955,0.234195471,8.018106461,-36.70227814,-29.48663139,22.177666,1.312888,-3.799998,-5.208083,27.175994,-2.910833
135,1428447206,-1.775062799,-82.10817719,-176.2873077,10.35336876,-0.345121026,-0.987205923,13.54505348,-36.52264023,-28.26933098,22.350222,1.307136,-3.816451,-4.982332,26.567283,-3.381989
136,1428463873,2.154941559,-82.67954254,-179.8603363,10.08102608,0.001954749,-0.442982286,23.11366272,-31.64907455,-27.48329353,22.518239,1.307169,-3.823834,-4.597104,26.039798,-3.840044
137,1428480540,6.42198658,-83.20064545,176.3756409,9.784394264,0.582387924,-0.658901751,31.70737076,-30.71910477,-24.67244148,22.681312,1.316875,-3.834816,-4.068648,25.527813,-4.251251
138,1428497207,10.74650669,-83.65383911,172.5484009,9.90878582,0.964630723,-1.123541117,31.17132759,-28.49297714,-21.35471344,22.846458,1.332952,-3.853542,-3.549126,25.05293,-4.607163
139,1428513874,15.02590084,-83.98213196,168.708725,9.941224098,0.874933004,-1.213368893,27.55636978,-22.61394119,-19.28963852,23.012145,1.347534,-3.873765,-3.089853,24.676031,-4.928657
140,1428530541,18.94024658,-84.1944809,165.2560577,9.795593262,0.603644371,-1.262885213,28.64443779,-16.4763813,-16.25185776,23.175405,1.357595,-3.894813,-2.612446,24.401425,-5.199521
141,1428547208,22.42432213,-84.31676483,162.2091217,9.79846096,0.827815592,-1.360228419,26.9990406,-11.53982639,-14.15978527,23.338713,1.371392,-3.917483,-2.162462,24.209095,-5.435517
142,1428563875,24.97836494,-84.36219788,160.0580444,9.726891518,1.403127432,-1.133300543,24.67655563,-5.938339233,-10.24874973,23.500828,1.394777,-3.936371,-1.751186,24.110123,-5.606329
143,1428580542,26.51870537,-84.35211945,158.910614,9.644932747,1.323766828,-1.168928623,23.76649666,-0.854703963,-6.062403679,23.661577,1.41684,-3.955853,-1.355078,24.095878,-5.707369
144,1428597209,27.41124916,-84.28083801,158.480423,9.442845345,1.05651176,-0.978503227,27.74638748,4.12733078,-3.952683926,23.818958,1.434449,-3.972161,-0.892638,24.164667,-5.773247
145,1428613876,28.01345825,-84.17344666,158.4173584,9.334531784,0.866291583,-0.971776962,32.24217606,6.919271946,-3.088653803,23.974534,1.448887,-3.988357,-0.355268,24.279988,-5.824725
146,1428630543,28.31790543,-84.05024719,158.7039185,9.380532265,1.15626049,-1.091248274,35.25469589,8.691697121,-1.718741655,24.130876,1.468158,-4.006544,0.23231,24.42485,-5.853371
147,1428647210,28.10428238,-83.9331131,159.49263,9.129449844,1.269625902,-1.122459173,34.13199234,9.825510979,1.248381376,24.283033,1.489318,-4.025252,0.801177,24.588609,-5.832565
148,1428663877,27.59514809,-83.83493042,160.6026154,9.142907143,1.043447614,-0.293837368,35.55965805,9.782943726,3.717880011,24.435415,1.506709,-4.030149,1.393838,24.751658,-5.7706
149,1428680544,27.31518745,-83.81981659,161.491806,9.243284225,0.825840652,-0.39880389,36.13213348,4.658421516,4.861274719,24.58947,1.520473,-4.036796,1.99604,24.829298,-5.689579
150,1428697211,26.89060974,-83.89376068,162.4716949,9.374792099,1.02713418,-0.538046837,32.88210297,0.108278126,7.791938782,24.745717,1.537592,-4.045763,2.544075,24.831103,-5.559713
151,1428713878,25.70059204,-83.9952774,164.1459351,9.677109718,1.545842767,-0.7690534,28.38560295,0.389045447,12.36869621,24.907002,1.563356,-4.058581,3.017168,24.837587,-5.353568
152,1428730545,22.81917,-84.04520416,167.5405731,9.794431686,0.881095529,-0.92511487,29.59129906,7.14522171,20.74118805,25.070243,1.578041,-4.074,3.510356,24.956674,-5.007882
153,1428747212,18.92764473,-84.02959442,171.865387,10.27371407,-0.629594266,-0.900620818,24.49085045,11.60739803,25.01780891,25.241472,1.567548,-4.08901,3.918537,25.150131,-4.590919
154,1428763879,16.60548592,-83.97605133,174.7198944,9.915801048,-0.855708599,-0.612496316,30.91404533,9.660028458,16.19452477,25.406735,1.553286,-4.099218,4.433771,25.311131,-4.32101
155,1428780546,15.78343678,-84.02374268,175.9165955,10.42557526,-1.073491096,0.369477034,21.99389648,0.473093063,8.114618301,25.580495,1.535394,-4.09306,4.800336,25.319016,-4.185766
156,1428797213,17.10178185,-84.28032684,174.8976288,10.43453598,-1.2397331,0.093210742,18.19709015,-15.42085457,-1.536246538,25.754404,1.514732,-4.091506,5.103621,25.062002,-4.21137
157,1428813880,21.8125515,-84.72333527,170.5226898,10.13711643,-1.514222503,-0.231184408,21.26494026,-32.34062195,-14.8033762,25.923356,1.489495,-4.095359,5.458037,24.522992,-4.458093
158,1428830547,30.90679359,-85.25892639,162.0342865,10.42014503,-0.874378681,0.352411538,38.21249008,-47.3454628,-25.56115532,26.097025,1.474922,-4.089485,6.094912,23.733901,-4.884112
159,1428847214,44.67475891,-85.62010956,149.0591583,11.04301071,-0.329006076,-0.772321999,49.9178009,-53.81500626,-35.60644913,26.281075,1.469439,-4.102357,6.926875,22.836984,-5.477553
160,1428863881,59.73126221,-85.5874939,135.0607758,11.25329113,-0.83805263,-2.067486525,65.85184479,-48.49110031,-40.90164566,26.46863,1.455471,-4.136815,8.024406,22.028799,-6.159247
161,1428880548,69.82324219,-85.03627777,126.8436356,12.48314667,-2.583824158,0.802048981,114.0096741,-21.28739548,-47.01649094,26.676682,1.412407,-4.123448,9.924567,21.674009,-6.942855
162,1428897215,74.33026123,-84.19326019,125.9820175,10.88322353,-3.85771513,1.510452628,218.8764343,11.99918938,-49.72057343,26.858069,1.348112,-4.098274,13.572508,21.873995,-7.771531
163,1428913882,78.06610107,-83.22317505,127.1346054,9.285550117,-1.349552989,-1.405186296,292.7778931,22.23242569,-54.88673019,27.012828,1.325619,-4.121694,18.45214,22.244535,-8.68631
164,1428930549,80.41121674,-82.28507996,130.1231689,9.053938866,-0.679611802,-3.009779453,318.4960938,33.71288681,-51.26847839,27.163727,1.314292,-4.171857,23.760408,22.806416,-9.540785
165,1428947216,83.36106873,-81.7113266,133.0143127,9.439127922,-2.650676966,-5.340564728,348.6709595,29.77488899,-30.89125824,27.321046,1.270114,-4.260866,29.571591,23.302664,-10.055639
166,1428963883,84.69029999,-81.46187592,137.1679382,9.541002274,-3.180967331,-4.323854923,326.1907349,38.891922,-11.37130356,27.480063,1.217098,-4.33293,35.008103,23.950863,-10.245161
167,1428980550,86.0918045,-81.43147278,139.8311768,8.795677185,-2.11136651,-2.521854162,241.9871826,24.9375267,-0.257467747,27.626658,1.181909,-4.374961,39.041223,24.366488,-10.249452
168,1428997217,86.60040283,-81.60431671,141.8677979,9.326785088,-0.116528109,-1.372085094,151.2628937,18.4337883,11.10559559,27.782104,1.179967,-4.397829,41.562271,24.673718,-10.064359
169,1429013884,85.28383636,-81.99810791,144.2140045,9.32781601,-0.736371696,-1.542460918,60.24099731,19.45578957,24.59768486,27.937568,1.167694,-4.423537,42.566288,24.997981,-9.654398
170,1429030551,83.37817383,-82.49904633,146.4875183,9.26196003,-2.339606524,-3.422380686,20.70802879,16.44930267,31.34636879,28.091934,1.128701,-4.480577,42.911422,25.272136,-9.131959
171,1429047218,80.30862427,-82.97451782,149.6157379,9.675350189,-1.70893991,-2.564949751,1.924124956,20.60837364,31.17074394,28.25319,1.100219,-4.523326,42.943491,25.615609,-8.612447
172,1429063885,75.21353912,-83.47447968,154.6343994,9.593927383,-0.558262944,-0.655357659,-6.793931484,29.55251503,36.39922714,28.413089,1.090915,-4.534249,42.830259,26.108151,-8.005793
173,1429080552,68.18212891,-84.08527374,161.6953583,9.244151115,-1.057985306,0.207375705,-0.795059919,33.26452637,48.71296692,28.567158,1.073282,-4.530793,42.817008,26.66256,-7.19391
174,1429097219,58.93985367,-84.66402435,171.2705536,9.336182594,-1.666311502,0.013048247,17.14821434,36.13518143,55.61453629,28.722761,1.04551,-4.530576,43.102812,27.264813,-6.267001
175,1429113886,47.07868195,-84.98995972,-176.0661926,9.933978081,-0.930911064,-0.136448741,44.98041916,44.0713768,56.23696899,28.888327,1.029995,-4.53285,43.852486,27.999336,-5.329718
176,1429130553,35.20733261,-84.96763611,-163.0403748,10.13106728,0.818861485,-0.999134839,66.22653198,47.05360413,50.11046219,29.057178,1.043643,-4.549502,44.956262,28.783563,-4.494544
177,1429147220,25.12176132,-84.69932556,-151.6000519,9.942159653,1.736728907,-1.605611801,78.45622253,46.00800705,44.92408752,29.222881,1.072588,-4.576262,46.263866,29.550363,-3.745809
178,1429163887,17.08665466,-84.29270935,-142.0898895,9.267867088,1.906856775,-1.334971786,85.83094788,43.54869843,41.91799164,29.377345,1.104369,-4.598512,47.694382,30.276175,-3.047176
179,1429180554,11.67689705,-83.86342621,-135.1148224,9.083399773,2.036565781,-1.089451313,91.63631439,36.80869293,35.14581299,29.528735,1.138312,-4.61667,49.221654,30.889653,-2.461412
180,1429197221,8.417176247,-83.44184113,-130.2597046,8.907197952,2.207900286,-1.273165584,93.88954163,31.6985321,27.08204269,29.677188,1.17511,-4.637889,50.78648,31.417962,-2.010045
181,1429213888,6.949485779,-83.06313324,-127.2292404,8.465659142,2.495082855,-1.452547908,92.4485321,26.58584404,17.97660065,29.818282,1.216695,-4.662098,52.327289,31.861059,-1.710435
182,1429230555,6.870972633,-82.75946808,-125.7161331,8.069408417,3.085930109,-1.463285327,85.31447601,20.67875099,8.833550453,29.952772,1.268127,-4.686486,53.749197,32.205705,-1.563209
183,1429247222,7.889773369,-82.56367493,-125.5877686,8.274703026,3.546513319,-1.122486234,68.68769836,13.04866695,-0.561049461,30.090684,1.327236,-4.705194,54.893992,32.423183,-1.57256
184,1429263889,9.337072372,-82.40883636,-126.2387695,7.833978653,3.366194725,-1.343229532,48.02595139,9.709050179,-6.390903473,30.22125,1.383339,-4.727581,55.694425,32.585001,-1.679075
185,1429280556,12.69270611,-82.62033081,-129.2856293,6.827953339,3.448425293,-5.102260113,19.98923683,-15.69761372,-20.82655144,30.335049,1.440813,-4.812619,56.027579,32.323374,-2.026184
186,1429297223,18.13654518,-82.73342896,-134.3584442,9.964138985,4.841669559,-1.914947629,24.62530518,-15.42714691,-35.39482498,30.501118,1.521507,-4.844535,56.438001,32.066255,-2.616098
187,1429313890,18.35344315,-82.57017517,-134.7728424,10.97998428,-0.482323706,3.125453949,-11.77632618,9.759535789,-5.79929018,30.684118,1.513468,-4.792444,56.241729,32.228914,-2.712753
188,1429330557,16.41514206,-82.29192352,-133.0892029,11.42434597,-7.078707218,6.191118717,-16.28497505,21.27241516,7.969680786,30.874524,1.39549,-4.689259,55.970313,32.583454,-2.579925
189,1429347224,17.53219986,-82.2989502,-134.0752563,10.59113979,-1.842645407,3.100031614,8.304741859,-1.481202245,-7.387723923,31.051043,1.364779,-4.637592,56.108725,32.558767,-2.703054
190,1429363891,20.35188675,-82.69470215,-136.9294281,11.95364475,-0.84428668,-5.563791275,-0.690808892,-28.52895355,-13.42094135,31.25027,1.350708,-4.730322,56.097212,32.083284,-2.926736
191,1429380558,22.27733803,-82.69705963,-139.3946075,15.54742336,-2.171954632,1.015764832,-31.27411461,-5.626527786,-17.46661568,31.509394,1.314509,-4.713393,55.575977,31.989509,-3.217846
192,1429397225,26.87021255,-82.74569702,-144.1229553,8.380271912,-1.672586203,2.933942556,-5.933009624,-16.24947929,-31.52903557,31.649065,1.286633,-4.664494,55.477094,31.718684,-3.74333
193,1429413892,32.99914551,-83.00984192,-150.1015778,8.388767242,0.937707961,-0.30988124,11.69787407,-34.63817978,-30.72340012,31.788878,1.302261,-4.669659,55.672059,31.141381,-4.255387
194,1429430559,38.19697189,-83.17033386,-155.4319305,8.940280914,-0.181568921,0.451921403,-5.723270893,-28.92894936,-25.75660515,31.937883,1.299235,-4.662127,55.576671,30.659232,-4.684664
195,1429447226,43.78772354,-83.2845459,-161.1700439,9.097395897,-0.636174321,0.228345767,-6.535368919,-30.51270866,-26.23139381,32.089506,1.288632,-4.658321,55.467748,30.150687,-5.121854
196,1429463893,49.5674057,-83.29033661,-167.1995087,9.679743767,-0.106725097,-0.560988605,-12.60636425,-29.71526146,-28.85641289,32.250835,1.286853,-4.667671,55.257642,29.655433,-5.602794
197,1429480560,54.36000824,-83.17433167,-172.3073883,10.31126976,0.65863961,-0.857177079,-16.88738441,-22.86102867,-27.83937263,32.422689,1.29783,-4.681957,54.976186,29.274416,-6.066784
198,1429497227,58.36670685,-83.02371979,-176.446701,10.27813721,-0.291052818,-0.966723144,-6.265957355,-18.52076912,-24.15492821,32.593991,1.292979,-4.698069,54.871753,28.965737,-6.469366
199,1429513894,62.23765945,-82.86942291,179.6714935,9.91906929,-0.811001897,-0.953904688,0.995248318,-18.90880203,-22.33990288,32.759309,1.279462,-4.713967,54.88834,28.65059,-6.841698
200,1429530561,65.7247467,-82.66661072,176.1633148,10.51571941,-0.372561455,-0.471305966,0.29408583,-17.10304832,-22.72263336,32.934571,1.273253,-4.721822,54.893241,28.365539,-7.220409
201,1429547228,69.10084534,-82.42256927,172.6399689,9.862542152,0.341164201,-0.502672553,-7.166195393,-18.31950188,-24.24320221,33.098947,1.278939,-4.7302,54.773804,28.060214,-7.624462
202,1429563895,71.97302246,-82.18443298,169.605072,9.830340385,0.395415097,-0.983930469,-8.257078171,-16.84325027,-21.78706551,33.262786,1.285529,-4.746599,54.636186,27.779493,-7.98758
203,1429580562,74.24576569,-81.96251678,167.2293549,9.698474884,0.474041522,-0.636744201,-4.948043823,-13.52749538,-18.65703773,33.424427,1.29343,-4.757211,54.553719,27.554035,-8.298531
204,1429597229,76.36367035,-81.75636292,165.0670929,9.775494576,0.302579463,-0.658542156,-1.499875784,-13.21095562,-16.82862854,33.587352,1.298473,-4.768187,54.528721,27.333852,-8.579008
205,1429613896,78.42247772,-81.53759003,163.0026245,10.04878426,-0.004311601,-0.488160908,0.838830173,-13.26132488,-16.96505547,33.754832,1.298401,-4.776323,54.542702,27.11283,-8.861759
206,1429630563,80.57567596,-81.29090118,160.8680878,9.654460907,0.211059555,-0.793682337,2.406100035,-14.66265202,-18.28360367,33.91574,1.301919,-4.789551,54.582804,26.868452,-9.166486
207,1429647230,82.7933197,-81.05600739,158.6197815,9.75726223,0.546993136,-0.646444798,-0.397170573,-16.9911747,-17.20032692,34.078361,1.311036,-4.800325,54.576184,26.585266,-9.453158
208,1429663897,84.90933228,-80.83305359,156.4422607,9.845572472,0.781856954,-0.775743425,-2.218979836,-17.55031204,-15.77537251,34.242454,1.324067,-4.813254,54.539201,26.292761,-9.716081
209,1429680564,86.66768646,-80.62088776,154.5744019,9.617846489,0.801399887,-1.059470415,-5.273150921,-15.60365295,-14.29720974,34.402751,1.337424,-4.830912,54.451315,26.0327,-9.954368
210,1429697231,88.23719788,-80.44358826,152.9081421,9.692008018,0.44718951,-1.074542642,-4.60717392,-14.46498871,-11.64424706,34.564284,1.344877,-4.848821,54.374529,25.791617,-10.148439
211,1429713898,89.26675415,-80.29219818,151.757431,9.587926865,0.211171031,-1.210257053,-6.467974186,-9.841796875,-9.632668495,34.724083,1.348397,-4.868992,54.266729,25.627587,-10.308983
212,1429730565,90.45169067,-80.1054306,150.4681091,9.88980484,0.505469501,-1.087052464,-5.316785336,-11.60775661,-11.56112862,34.888913,1.356821,-4.88711,54.178116,25.434124,-10.501668
213,1429747232,91.68156433,-79.90126038,149.1312866,10.03405285,0.412104815,-0.594007194,-5.382790565,-12.59707832,-12.33137131,35.056147,1.363689,-4.89701,54.088403,25.224173,-10.707191
214,1429763899,93.2204361,-79.67728424,147.5398102,9.874643326,0.860276341,-0.860566497,-1.828871131,-15.93165398,-13.06821346,35.220724,1.378027,-4.911353,54.057922,24.958645,-10.924995
215,1429780566,94.8156662,-79.49035645,145.9018097,9.436531067,1.057499647,-1.479084492,-1.149723768,-16.94723701,-10.31089973,35.378,1.395652,-4.936004,54.03876,24.676191,-11.096843
216,1429797233,96.09023285,-79.36921692,144.5993042,9.498463631,0.690422833,-1.832567692,-0.550961554,-13.36976814,-6.251648426,35.536308,1.407159,-4.966547,54.029577,24.453362,-11.201037
217,1429813900,96.67171478,-79.29216766,143.9624329,10.13746071,0.636568069,-1.571980119,-2.880807877,-5.914223194,-4.194573402,35.705266,1.417768,-4.992747,53.981564,24.354792,-11.270947
218,1429830567,96.78330231,-79.2324295,143.7758331,9.697730064,0.713751495,-1.571472645,-4.524707317,-0.831804454,-3.727282047,35.866895,1.429664,-5.018938,53.906152,24.340929,-11.333068
219,1429847234,96.86509705,-79.18624115,143.6630096,9.711000443,0.700396776,-1.485494375,-1.966895342,0.102540448,-3.030680418,36.028745,1.441337,-5.043696,53.87337,24.342638,-11.383579
220,1429863901,96.97005463,-79.13735199,143.5695801,9.657544136,0.71725589,-1.390455365,0.560841322,0.318160981,-3.232239723,36.189704,1.453291,-5.06687,53.882717,24.347941,-11.43745
221,1429880568,97.04600525,-79.07775116,143.5317078,9.469721794,0.769947588,-1.364061832,2.086103439,0.880142093,-3.960524082,36.347533,1.466123,-5.089604,53.917485,24.36261,-11.503459
222,1429897235,97.0287323,-79.03070068,143.5887909,9.54759407,0.655408919,-1.454854012,2.085885525,2.06530571,-3.361967802,36.50666,1.477046,-5.113852,53.95225,24.397032,-11.559492
223,1429913902,96.91394043,-78.98664093,143.7360687,9.757439613,0.611617982,-1.282998562,1.53450799,3.144087076,-3.331373215,36.669284,1.48724,-5.135235,53.977825,24.449433,-11.615015
224,1429930569,96.8745575,-78.93126678,143.813385,9.807326317,0.755294502,-0.92432189,1.937460065,2.299085379,-3.930940866,36.832739,1.499828,-5.15064,54.010116,24.487751,-11.680531
225,1429947236,96.98843384,-78.87904358,143.7425385,9.731946945,0.807758689,-0.959131718,2.406646252,0.636321962,-3.56191349,36.994938,1.513291,-5.166626,54.050227,24.498356,-11.739896
226,1429963903,97.14668274,-78.84472656,143.6063385,9.676774979,0.924095571,-1.073534369,1.224287152,0.018710079,-2.419433594,37.156218,1.528693,-5.184518,54.070632,24.498668,-11.78022
227,1429980570,97.286026,-78.83110809,143.492691,9.58387661,0.968442976,-1.307502031,1.400323033,0.442305684,-1.224959373,37.315949,1.544834,-5.20631,54.093971,24.50604,-11.800636
228,1429997237,97.20996857,-78.86104584,143.5689392,9.736431122,0.871082723,-1.176418424,-0.335007697,2.985774755,1.068664193,37.478223,1.559352,-5.225917,54.088388,24.555803,-11.782825
229,1430013904,97.05986023,-78.90484619,143.7163849,9.614314079,0.813990355,-1.454285502,-0.595411956,3.922290802,1.781312227,37.638462,1.572919,-5.250155,54.078464,24.621175,-11.753136
230,1430030571,96.9092865,-78.954422,143.8866577,9.72143364,0.662781656,-1.302858353,0.721842825,4.246201992,2.072131634,37.800486,1.583965,-5.271869,54.090495,24.691945,-11.7186
231,1430047238,96.84771729,-78.98840332,143.9858704,9.725804329,0.768358529,-1.113298774,1.871097684,3.342572927,1.223288298,37.962583,1.596771,-5.290424,54.12168,24.747655,-11.698212
232,1430063905,96.8915329,-79.0175705,143.9725494,9.598843575,0.88218987,-1.036715508,1.560415387,2.046723843,1.069099665,38.122564,1.611474,-5.307703,54.147687,24.781767,-11.680394
233,1430080572,97.03077698,-79.05235291,143.8679962,9.529269218,0.859267116,-1.237989187,1.905469775,1.077411056,1.51194334,38.281385,1.625795,-5.328336,54.179445,24.799724,-11.655195
234,1430097239,97.163414,-79.09683228,143.7846375,9.629219055,0.719075978,-1.174686432,2.76279068,1.427882314,2.036696196,38.441872,1.63778,-5.347914,54.225492,24.823522,-11.62125
235,1430113906,97.36434937,-79.1386795,143.635376,9.785368919,0.676874459,-1.099400997,2.969792366,0.705322504,1.950381398,38.604961,1.649061,-5.366237,54.274989,24.835277,-11.588744
236,1430130573,97.58551788,-79.1767807,143.4501801,9.71747303,0.807036519,-1.075132728,2.057212353,0.315317959,1.758004546,38.766919,1.662512,-5.384156,54.309276,24.840532,-11.559444
237,1430147240,97.8145752,-79.22382355,143.2615814,9.654040337,0.690916598,-1.152825356,2.328514338,0.39100343,2.274753332,38.92782,1.674027,-5.40337,54.348085,24.847049,-11.521531
238,1430163907,98.04485321,-79.27477264,143.0871124,9.665708542,0.703721881,-1.243547082,3.225522041,0.629368067,2.465836525,39.088915,1.685756,-5.424096,54.401844,24.857538,-11.480434
239,1430180574,98.19028473,-79.328125,142.994751,9.706616402,0.649237573,-1.279712319,2.970803976,1.607568026,2.450738192,39.250692,1.696577,-5.445425,54.451357,24.884331,-11.439588
240,1430197241,98.27189636,-79.37775421,142.9529724,9.673235893,0.743440628,-1.17508328,2.115083933,2.176182747,2.12257576,39.411913,1.708968,-5.46501,54.486608,24.920601,-11.404212
241,1430213908,98.36210632,-79.43028259,142.9022369,9.642160416,0.703874826,-1.121762037,2.104979515,2.141323805,2.279581308,39.572616,1.720699,-5.483706,54.521691,24.95629,-11.366219
242,1430230575,98.47164154,-79.48588562,142.8378906,9.719468117,0.735272884,-1.13836813,2.454414129,2.056853533,2.454503775,39.734607,1.732954,-5.502679,54.562598,24.990571,-11.325311
243,1430247242,98.58573151,-79.54743195,142.7780762,9.683474541,0.680269778,-1.128860235,2.984533072,2.200656176,2.777249575,39.895998,1.744292,-5.521493,54.61234,25.027249,-11.279024
244,1430263909,98.7173996,-79.6035614,142.6954498,9.672195435,0.725687504,-1.107101083,2.698310614,1.947832942,2.45742321,40.057201,1.756387,-5.539945,54.657312,25.059713,-11.238067
245,1430280576,98.87915802,-79.65834045,142.5841217,9.696068764,0.558280528,-1.193780303,2.795895815,1.673073053,2.400806904,40.218802,1.765692,-5.559841,54.70391,25.087598,-11.198054
246,1430297243,99.06693268,-79.70363617,142.4494476,9.688452721,0.69347316,-1.075819016,2.966206789,1.387478232,1.847866535,40.380276,1.77725,-5.577771,54.753347,25.110723,-11.167256
247,1430313910,99.32546234,-79.74878693,142.2375946,9.547964096,0.77501303,-1.079298496,2.663848639,0.61762464,1.937562227,40.539409,1.790167,-5.595759,54.797744,25.121017,-11.134963
248,1430330577,99.60416412,-79.79949951,141.9908142,9.605520248,0.781044543,-1.156644464,1.809806108,0.359666348,2.304169655,40.699501,1.803184,-5.615036,54.827907,25.127011,-11.09656
249,1430347244,99.91320801,-79.859375,141.7170258,9.716112137,0.616471052,-1.125414848,2.017243147,0.238018811,2.886948109,40.861436,1.813459,-5.633793,54.861528,25.130978,-11.048444
250,1430363911,100.2607193,-79.91055298,141.400589,9.791793823,0.652917206,-1.129400849,1.795962572,-0.224424914,2.427405357,41.024633,1.824341,-5.652616,54.891461,25.127238,-11.007987
251,1430380578,100.5978622,-79.9616394,141.0765533,9.669107437,0.717562377,-0.958639622,0.722931266,-0.232416019,2.417032003,41.185785,1.8363,-5.668593,54.90351,25.123364,-10.967703
252,1430397245,101.008667,-80.00888824,140.6864777,9.521756172,0.690399826,-1.23421979,1.228884578,-0.886180222,2.30532217,41.344481,1.847807,-5.689163,54.923991,25.108594,-10.929281
253,1430413912,101.3441238,-80.06658936,140.3861237,9.667313576,0.588174164,-1.400860906,1.99982667,0.231858969,2.734065771,41.505603,1.85761,-5.712511,54.957321,25.112458,-10.883713
254,1430430579,101.619339,-80.12783051,140.1482086,9.682693481,0.626461506,-1.194798827,2.067687511,0.991224289,2.787276268,41.666981,1.868051,-5.732424,54.991782,25.128978,-10.837258
255,1430447246,101.8824387,-80.18447876,139.910614,9.766022682,0.575830936,-1.157950878,1.351595044,1.009383559,2.489336491,41.829748,1.877648,-5.751723,55.014309,25.145801,-10.795769
256,1430463913,102.1563492,-80.23310089,139.6653595,9.746722221,0.546716809,-1.079413652,1.526107073,0.90105468,2.015156031,41.992193,1.88676,-5.769713,55.039744,25.160819,-10.762183
257,1430480580,102.4715195,-80.27793121,139.3920593,9.657186508,0.595491529,-1.127117276,2.358788729,0.63241595,1.810241818,42.153146,1.896685,-5.788498,55.079057,25.171359,-10.732012
258,1430497247,102.7970428,-80.3194809,139.1074677,9.656487465,0.60295248,-1.209076047,2.290313244,0.543142915,1.626316667,42.314087,1.906734,-5.808649,55.117229,25.180411,-10.704907
259,1430513914,103.098175,-80.36141205,138.8407593,9.666700363,0.590875983,-1.179793477,1.87875545,0.79019016,1.586079121,42.475199,1.916582,-5.828312,55.148542,25.193581,-10.678472
260,1430530581,103.396553,-80.40022278,138.5774994,9.684576035,0.609336317,-1.163711667,1.911360621,0.843720794,1.369652033,42.636609,1.926738,-5.847707,55.180398,25.207643,-10.655644
261,1430547248,103.6970978,-80.43980408,138.3183746,9.668104172,0.589244843,-1.144426107,2.283372164,0.956186175,1.380025268,42.797744,1.936559,-5.866781,55.218454,25.223579,-10.632644
262,1430563915,104.0109406,-80.47975159,138.0464478,9.727069855,0.57822156,-1.146082759,2.309061527,0.89745611,1.410107136,42.959862,1.946196,-5.885882,55.256938,25.238537,-10.609142
263,1430580582,104.336113,-80.51374054,137.7581024,9.761935234,0.583092332,-1.089979172,2.008023024,0.713966846,1.080561399,43.122561,1.955914,-5.904048,55.290405,25.250436,-10.591133
264,1430597249,104.7265701,-80.54117584,137.4049225,9.635399818,0.645118892,-1.100276947,2.094043016,0.050764371,0.833642125,43.283151,1.966666,-5.922386,55.325306,25.251282,-10.577239
265,1430613916,105.1487885,-80.57089233,137.0136719,9.57024765,0.642897546,-1.178907156,1.723939538,-0.216241628,1.059955955,43.442655,1.977381,-5.942034,55.354038,25.247678,-10.559573
266,1430630583,105.5820541,-80.60426331,136.6135406,9.633829117,0.583423257,-1.16006124,1.862581253,-0.176362649,1.284566641,43.603219,1.987105,-5.961368,55.385081,25.244739,-10.538164
267,1430647250,105.9874039,-80.63751984,136.245163,9.746841431,0.500213325,-1.268683314,2.056174994,0.190571308,1.18481791,43.765666,1.995442,-5.982513,55.419351,25.247915,-10.518417
268,1430663917,106.3492737,-80.66613007,135.9253082,9.767484665,0.45839256,-1.190190315,2.311239004,0.635348618,0.766485631,43.928457,2.003082,-6.00235,55.457872,25.258504,-10.505642
269,1430680584,106.7324677,-80.68340302,135.5877075,9.694303513,0.571322739,-1.103768945,2.532621861,0.334834784,0.141586989,44.090029,2.012604,-6.020746,55.500082,25.264085,-10.503282
270,1430697251,107.1694565,-80.69435883,135.1934814,9.626545906,0.637914598,-1.109049201,2.400076389,-0.255339414,-0.074052721,44.250471,2.023236,-6.03923,55.540083,25.259829,-10.504516
271,1430713918,107.6300735,-80.70652771,134.7797699,9.594831467,0.617454708,-1.185183644,2.657612085,-0.368509084,0.053645797,44.410385,2.033527,-6.058983,55.584377,25.253687,-10.503622
272,1430730585,108.0976639,-80.72053528,134.3624268,9.640759468,0.591022313,-1.278371811,2.853587866,-0.316028684,0.170657426,44.571064,2.043377,-6.080289,55.631937,25.24842,-10.500778
273,1430747252,108.5278625,-80.73524475,133.9754639,9.724094391,0.523605883,-1.162741661,2.398859978,0.034397855,0.11770317,44.733132,2.052104,-6.099668,55.671918,25.248993,-10.498816
274,1430763919,108.9888077,-80.74339294,133.5557556,9.723611832,0.584059656,-1.097860336,2.296370745,-0.343613595,-0.160047367,44.895192,2.061838,-6.117966,55.710191,25.243266,-10.501483
275,1430780586,109.4467773,-80.75167084,133.1377716,9.679418564,0.610712469,-1.23386693,2.215396166,-0.282898664,-0.155744448,45.056516,2.072017,-6.13853,55.747114,25.238551,-10.504079
276,1430797253,109.866951,-80.76860809,132.7676849,9.664609909,0.589313269,-1.245198846,2.78477931,0.375559062,0.17502439,45.217593,2.081839,-6.159283,55.793527,25.24481,-10.501162
277,1430813920,110.2671967,-80.78620911,132.4160156,9.67188549,0.607014596,-1.268767834,2.664168835,0.607097805,0.147938952,45.378791,2.091956,-6.180429,55.83793,25.254928,-10.498696
278,1430830587,110.6424408,-80.80725861,132.0837097,9.715201378,0.598769128,-1.195188165,2.299457073,0.907304168,0.274401665,45.540711,2.101935,-6.200349,55.876254,25.27005,-10.494123
279,1430847254,111.0384064,-80.82501984,131.7385712,9.645308495,0.586600065,-1.214680672,2.780361176,0.769879401,0.123555668,45.701466,2.111712,-6.220594,55.922593,25.282881,-10.492064
280,1430863921,111.4372406,-80.84118652,131.3915253,9.674386978,0.608981073,-1.223455071,2.842651129,0.763424933,0.026240213,45.862706,2.121862,-6.240985,55.969971,25.295605,-10.491627
281,1430880588,111.8472824,-80.85372162,131.029129,9.633820534,0.617716372,-1.206180692,2.585435629,0.594278634,-0.117927276,46.02327,2.132157,-6.261088,56.013062,25.30551,-10.493592
282,1430897255,112.2786407,-80.87277985,130.6393433,9.666537285,0.635033548,-1.151802301,2.236103773,0.543642402,0.342352152,46.184379,2.142741,-6.280285,56.05033,25.314571,-10.487886
283,1430913922,112.7533798,-80.88889313,130.2096558,9.729342461,0.588178694,-1.109851718,2.482754469,0.169594511,0.318084091,46.346535,2.152544,-6.298783,56.091709,25.317398,-10.482585
284,1430930589,113.2420425,-80.90280151,129.7651367,9.732032776,0.63629657,-1.128324032,2.427725554,0.034359436,0.261441648,46.508736,2.163149,-6.317588,56.132171,25.317971,-10.478228
285,1430947256,113.7526321,-80.91593933,129.2984772,9.681922913,0.597455442,-1.255652308,2.426374435,-0.1337111,0.313172907,46.670101,2.173107,-6.338516,56.172611,25.315742,-10.473008
286,1430963923,114.2379379,-80.93349457,128.8564911,9.634721756,0.607453704,-1.279733181,2.364538908,0.238505453,0.470710218,46.83068,2.183231,-6.359845,56.21202,25.319717,-10.465163
287,1430980590,114.7229843,-80.95223999,128.4213257,9.62891674,0.62668848,-1.204205751,2.74571991,0.383063555,0.518477917,46.991162,2.193676,-6.379915,56.257782,25.326101,-10.456522
288,1430997257,115.2117004,-80.97209167,127.982254,9.641104698,0.623099029,-1.260706663,2.731069326,0.424927533,0.602205813,47.151847,2.204061,-6.400927,56.3033,25.333183,-10.446485
289,1431013924,115.6690369,-80.99961853,127.5719528,9.717983246,0.60234797,-1.15794158,2.545787096,0.92164737,0.910083354,47.313813,2.2141,-6.420226,56.34573,25.348544,-10.431317
290,1431030591,116.1501694,-81.02228546,127.140831,9.710457802,0.537463427,-1.179161191,2.73520565,0.66671139,0.73644191,47.475654,2.223058,-6.439879,56.391317,25.359656,-10.419043
291,1431047258,116.6298141,-81.03829956,126.7148285,9.705540657,0.491532266,-1.253135085,2.959086657,0.576144874,0.35106048,47.637413,2.23125,-6.460765,56.440635,25.369258,-10.413192
292,1431063925,117.0632172,-81.04827881,126.3468323,9.634126663,0.574376464,-1.236033797,3.591861248,0.946145892,-0.199209183,47.797982,2.240823,-6.481366,56.500499,25.385027,-10.416512
293,1431080592,117.5087509,-81.06088257,125.965065,9.635105133,0.630474091,-1.268896341,3.51567626,0.93563199,-0.004706334,47.958567,2.251331,-6.502514,56.559094,25.400621,-10.41659
294,1431097259,117.9605942,-81.07658386,125.570488,9.703383446,0.562879682,-1.18124795,3.121253252,0.955302477,0.229681894,48.12029,2.260712,-6.522201,56.611115,25.416543,-10.412762
295,1431113926,118.4511108,-81.08582306,125.1405563,9.724574089,0.591663778,-1.172590494,3.35171628,0.517312467,0.046179697,48.282366,2.270573,-6.541744,56.666977,25.425165,-10.411992
296,1431130593,118.9361725,-81.08974457,124.7157593,9.644706726,0.595117807,-1.136349678,3.313271761,0.438822418,-0.236321956,48.443111,2.280492,-6.560683,56.722198,25.432479,-10.415931
297,1431147260,119.4507446,-81.09172821,124.2571259,9.660462379,0.6189695,-1.178254724,3.08659935,0.129869208,-0.17107363,48.604119,2.290808,-6.580321,56.773641,25.434643,-10.418782
298,1431163927,119.9815903,-81.09558868,123.7762527,9.723278046,0.592411458,-1.200704575,2.73921442,0.034897301,0.053786665,48.766174,2.300682,-6.600333,56.819295,25.435225,-10.417886
299,1431180594,120.5006714,-81.0970459,123.3073196,9.688775063,0.605925739,-1.244086742,2.736230373,0.090630531,-0.098487236,48.927654,2.310781,-6.621068,56.864899,25.436736,-10.419527
300,1431197261,121.0108032,-81.10165405,122.8545456,9.694375038,0.580440998,-1.264629006,3.149978161,0.34645021,0.014419951,49.089227,2.320455,-6.642145,56.917399,25.44251,-10.419287
301,1431213928,121.5138779,-81.10643005,122.4087677,9.661179543,0.619401097,-1.26897645,3.143139124,0.436427563,0.006672108,49.250247,2.330778,-6.663295,56.969785,25.449784,-10.419176
302,1431230595,121.9893646,-81.11633301,121.9868011,9.645133018,0.578794241,-1.265803099,2.910089493,0.816097498,0.17032446,49.410999,2.340425,-6.684392,57.018286,25.463386,-10.416337
303,1431247262,122.4381256,-81.12830353,121.5927124,9.705206871,0.579336166,-1.243145227,2.92527771,1.137869835,0.167366177,49.572752,2.350081,-6.705111,57.067041,25.48235,-10.413548
304,1431263929,122.8676758,-81.14545441,121.2213898,9.712631226,0.594933569,-1.2666049,3.138016462,1.510073543,0.320619792,49.734629,2.359997,-6.726221,57.119341,25.507518,-10.408204
305,1431280596,123.2670059,-81.16827393,120.8777008,9.692434311,0.620089591,-1.236929178,2.961263418,1.939624071,0.473655641,49.89617,2.370332,-6.746836,57.168695,25.539845,-10.40031
306,1431297263,123.6376572,-81.19353485,120.5559387,9.668193817,0.623020887,-1.226103425,2.537334919,2.218661547,0.492557824,50.057307,2.380716,-6.767271,57.210984,25.576823,-10.392101
307,1431313930,124.03479,-81.22407532,120.2067947,9.697789192,0.605932355,-1.22968936,2.491872549,2.216984272,0.90579313,50.218937,2.390815,-6.787766,57.252515,25.613773,-10.377004
308,1431330597,124.4132767,-81.25654602,119.8752594,9.682378769,0.588671029,-1.238978624,2.423755646,2.447191,0.910736501,50.38031,2.400626,-6.808416,57.292911,25.65456,-10.361825
309,1431347264,124.7940979,-81.29446411,119.5328445,9.707784653,0.629709959,-1.151570201,1.931735277,2.582233667,1.2325598,50.542106,2.411121,-6.827609,57.325107,25.697597,-10.341282
310,1431363931,125.227356,-81.32733154,119.1352997,9.698690414,0.59178859,-1.183665633,1.782439113,2.037080526,1.287576079,50.703751,2.420984,-6.847337,57.354814,25.731548,-10.319822
311,1431380598,125.6637878,-81.36418915,118.7350845,9.666636467,0.65443331,-1.199839592,1.834112644,2.188643694,1.492823601,50.864862,2.431891,-6.867334,57.385383,25.768025,-10.294942
312,1431397265,126.1351547,-81.40220642,118.2997131,9.648305893,0.621523201,-1.166083694,1.82982862,2.017479897,1.751786709,51.025667,2.44225,-6.886769,57.41588,25.80165,-10.265746
313,1431413932,126.6396332,-81.4381485,117.820694,9.678924561,0.630080342,-1.18852663,1.241255522,1.66951263,1.886042595,51.186982,2.452751,-6.906578,57.436568,25.829475,-10.234312
314,1431430599,127.1499176,-81.47506714,117.333252,9.687146187,0.571133792,-1.178806305,1.078742743,1.697584033,2.00010848,51.348434,2.46227,-6.926225,57.454547,25.857768,-10.200977
315,1431447266,127.6855927,-81.50872803,116.8214951,9.65708065,0.577770829,-1.165871263,1.154978991,1.457362652,1.987635016,51.509385,2.4719,-6.945656,57.473797,25.882057,-10.16785
316,1431463933,128.2332764,-81.53946686,116.2958679,9.649531364,0.581397772,-1.14796412,1.059187531,1.301086664,1.940814972,51.670211,2.48159,-6.964789,57.49145,25.903742,-10.135503
317,1431480600,128.807312,-81.56536865,115.7440491,9.691438675,0.570599675,-1.116286039,1.080702305,0.986754894,1.878499508,51.831735,2.4911,-6.983394,57.509462,25.920188,-10.104195
318,1431497267,129.4037323,-81.58408356,115.1754456,9.704697609,0.556162298,-1.164470553,1.428958178,0.645388782,1.668424249,51.99348,2.500369,-7.002802,57.533278,25.930944,-10.076388
319,1431513934,130.0140533,-81.5991745,114.5945892,9.664426804,0.52937758,-1.181212187,1.529334307,0.467060357,1.602612257,52.154554,2.509192,-7.022489,57.558767,25.938728,-10.049678
320,1431530601,130.6030273,-81.61231995,114.0321198,9.674985886,0.590013981,-1.190654993,1.34259212,0.554847836,1.445260525,52.315804,2.519026,-7.042333,57.581144,25.947975,-10.02559
321,1431547268,131.2047882,-81.62815857,113.4543686,9.682606697,0.576757252,-1.141417623,1.20419395,0.596814334,1.691718936,52.477181,2.528639,-7.061357,57.601214,25.957922,-9.997395
322,1431563935,131.8201141,-81.6416626,112.8650131,9.675783157,0.538007081,-1.191043854,1.334063053,0.46668902,1.690323114,52.638444,2.537606,-7.081208,57.623448,25.9657,-9.969223
323,1431580602,132.4230347,-81.65206909,112.2913055,9.692026138,0.472152442,-1.180732131,1.515477896,0.484105676,1.500827432,52.799978,2.545475,-7.100887,57.648706,25.973768,-9.944209
324,1431597269,133.0179901,-81.65493774,111.7280121,9.678853035,0.513403654,-1.196985841,1.655156612,0.278704554,1.146514058,52.961292,2.554032,-7.120837,57.676292,25.978413,-9.9251
325,1431613936,133.6120758,-81.65621185,111.169075,9.648443222,0.521003604,-1.167028785,1.861544013,0.264963388,1.091242075,53.122099,2.562715,-7.140287,57.707318,25.982829,-9.906913
326,1431630603,134.2217255,-81.65446472,110.6014404,9.710413933,0.524516165,-1.147332549,2.285997629,0.108200841,1.06025064,53.283939,2.571457,-7.159409,57.745418,25.984632,-9.889242
327,1431647270,134.847641,-81.64610291,110.0173569,9.698426247,0.561540365,-1.155658484,2.287508726,-0.2522659,0.925540507,53.445579,2.580816,-7.17867,57.783543,25.980428,-9.873816
328,1431663937,135.4762268,-81.63512421,109.4257126,9.67950058,0.513248503,-1.197645187,1.996778727,-0.39040795,0.92491293,53.606904,2.58937,-7.198631,57.816823,25.973921,-9.858401
329,1431680604,136.1012115,-81.62054443,108.8345718,9.667703629,0.571108282,-1.107117414,1.814006448,-0.527551234,0.831785202,53.768032,2.598888,-7.217083,57.847056,25.965128,-9.844538
330,1431697271,136.7359467,-81.60857391,108.2285461,9.685440063,0.531152248,-1.184501767,1.504015923,-0.486020058,1.107211232,53.929456,2.607741,-7.236825,57.872123,25.957028,-9.826084
331,1431713938,137.3573761,-81.59806824,107.6447678,9.672967911,0.532176733,-1.247553825,2.050155878,-0.28081125,1.078012943,54.090672,2.616611,-7.257618,57.906292,25.952348,-9.808117
332,1431730605,137.9660034,-81.59433746,107.0738678,9.703577995,0.540388942,-1.276110411,2.028986931,0.125463814,1.334985137,54.252398,2.625617,-7.278887,57.940108,25.954439,-9.785867
333,1431747272,138.5397797,-81.59573364,106.540535,9.701681137,0.505105913,-1.220181465,2.188848257,0.59467566,1.336573005,54.414093,2.634035,-7.299223,57.976589,25.96435,-9.763591
334,1431763939,139.109436,-81.59587097,106.0125427,9.704842567,0.489350349,-1.180654764,2.251932621,0.592985213,1.298640728,54.57584,2.642191,-7.318901,58.014121,25.974233,-9.741947
335,1431780606,139.6702423,-81.5930481,105.5035019,9.683049202,0.467568249,-1.251833797,2.847863436,0.582573652,1.098298192,54.737224,2.649984,-7.339765,58.061585,25.983943,-9.723642
336,1431797273,140.1901703,-81.59066772,105.0393219,9.65649128,0.544004202,-1.188600779,3.061037779,0.87349546,0.853223145,54.898166,2.659051,-7.359575,58.112602,25.998501,-9.709422
337,1431813940,140.7046661,-81.58622742,104.5845795,9.619379997,0.492173791,-1.308982968,3.297571182,0.841889501,0.755216062,55.058489,2.667254,-7.381391,58.167562,26.012532,-9.696835
338,1431830607,141.1659088,-81.58978271,104.1866913,9.674424171,0.46961996,-1.226010084,3.480471849,1.539899826,0.703683436,55.219729,2.675081,-7.401825,58.22557,26.038197,-9.685107
339,1431847274,141.6202087,-81.58779144,103.792099,9.687301636,0.503383696,-1.094404578,3.260509253,1.307195187,0.50323832,55.381184,2.683471,-7.420065,58.279912,26.059984,-9.67672
340,1431863941,142.0792694,-81.5770874,103.3920135,9.719483376,0.476201981,-1.169764161,3.215815067,0.865606666,0.255422622,55.543175,2.691408,-7.439561,58.333509,26.074411,-9.672463
341,1431880608,142.5442657,-81.56078339,102.9897003,9.685558319,0.515740573,-1.179463744,3.457420111,0.576938868,0.097174592,55.704601,2.700004,-7.459219,58.391133,26.084027,-9.670843
342,1431897275,143.0162506,-81.53860474,102.5748291,9.645771027,0.549652219,-1.120235205,3.122879744,0.229489803,0.025190089,55.865364,2.709165,-7.47789,58.443181,26.087852,-9.670423
343,1431913942,143.5148773,-81.50884247,102.1255417,9.657893181,0.525146425,-1.201318383,2.686311007,-0.329564959,0.048664123,56.026329,2.717917,-7.497912,58.487953,26.082359,-9.669612
344,1431930609,144.0120239,-81.48009491,101.6776428,9.657388687,0.508839846,-1.167040944,2.690127373,-0.284435451,0.131636471,56.187285,2.726398,-7.517363,58.532788,26.077618,-9.667418
345,1431947276,144.5333862,-81.44395447,101.2052536,9.695872307,0.499839127,-1.208566904,2.685939789,-0.776660204,0.116653033,56.348883,2.734729,-7.537506,58.577554,26.064674,-9.665474
346,1431963943,145.040329,-81.40435028,100.7408218,9.701304436,0.5215711,-1.123822331,2.301711082,-0.916121542,0.004840801,56.510571,2.743422,-7.556236,58.615916,26.049405,-9.665393
347,1431980610,145.5636902,-81.35264587,100.2567825,9.673596382,0.546574414,-1.177193046,2.131540298,-1.633968711,-0.191794306,56.671798,2.752532,-7.575856,58.651442,26.022172,-9.66859
348,1431997277,146.0956573,-81.29784393,99.76570892,9.635583878,0.51723665,-1.239815474,2.221837521,-1.834105968,-0.149021089,56.832391,2.761153,-7.59652,58.688473,25.991604,-9.671074
349,1432013944,146.6167297,-81.24141693,99.28073883,9.609048843,0.541753173,-1.204629779,1.952404737,-1.909727335,-0.168896526,56.992542,2.770182,-7.616597,58.721013,25.959775,-9.673889
350,1432030611,147.13974,-81.18343353,98.78822327,9.640893936,0.514324903,-1.252350926,1.620618105,-2.039520025,-0.066432945,57.153224,2.778754,-7.63747,58.748023,25.925783,-9.674996
351,1432047278,147.6279755,-81.12670898,98.33110046,9.746091843,0.43813926,-1.25174737,1.641505241,-1.819378853,-0.213667557,57.315659,2.786056,-7.658332,58.775381,25.89546,-9.678557
352,1432063945,148.0685883,-81.06387329,97.93135834,9.749948502,0.447981179,-1.282753587,2.186043978,-1.862049818,-0.778927028,57.478158,2.793522,-7.679711,58.811815,25.864426,-9.691539
353,1432080612,148.4644775,-81.00053406,97.57685089,9.701237679,0.516480088,-1.317234755,2.191409588,-1.687921643,-1.083423495,57.639845,2.80213,-7.701665,58.848338,25.836294,-9.709596
354,1432097279,148.8347168,-80.94260406,97.24254608,9.645857811,0.531032622,-1.275049686,1.857548356,-1.337796211,-1.00813508,57.800609,2.810981,-7.722916,58.879297,25.813997,-9.726398
355,1432113946,149.2006378,-80.88945007,96.91358948,9.634365082,0.564551651,-1.302835941,1.918724179,-1.087150335,-0.839526713,57.961182,2.82039,-7.74463,58.911276,25.795878,-9.74039
356,1432130613,149.5637207,-80.84354401,96.59087372,9.681159019,0.524127662,-1.34213531,2.117030621,-0.700334489,-0.60545212,58.122535,2.829125,-7.766999,58.94656,25.784206,-9.750481
357,1432147280,149.9078217,-80.80285645,96.28712463,9.708589554,0.513096869,-1.326561213,2.114149094,-0.358148783,-0.553560913,58.284345,2.837677,-7.789108,58.981796,25.778237,-9.759707
358,1432163947,150.2237854,-80.7616272,96.01239014,9.695831299,0.494540662,-1.28324759,2.138039112,-0.254897565,-0.757277906,58.445942,2.845919,-7.810495,59.01743,25.773989,-9.772328
359,1432180614,150.5101166,-80.72401428,95.76997375,9.689955711,0.536471605,-1.337792516,2.280772686,0.063160919,-0.881454706,58.607441,2.85486,-7.832792,59.055443,25.775042,-9.787019
360,1432197281,150.7825317,-80.69143677,95.54849243,9.63177681,0.526239276,-1.346112132,2.697721481,0.405513048,-0.87297678,58.767971,2.863631,-7.855227,59.100405,25.781801,-9.801569
361,1432213948,151.0360413,-80.65908813,95.35015869,9.670108795,0.529446185,-1.310502768,2.933307648,0.51466167,-1.023707747,58.929139,2.872455,-7.877069,59.149293,25.790379,-9.818631
362,1432230615,151.2866821,-80.63079071,95.15651703,9.692936897,0.54334271,-1.299226165,3.0404706,0.731140077,-0.913393617,59.090688,2.881511,-7.898723,59.199968,25.802565,-9.833854
363,1432247282,151.5323334,-80.59951782,94.97042847,9.655179977,0.570545495,-1.304340124,3.199948072,0.588579834,-1.033529997,59.251608,2.89102,-7.920462,59.2533,25.812375,-9.851079
364,1432263949,151.7898712,-80.57035065,94.7741394,9.647545815,0.573337853,-1.327303052,3.308661222,0.635182142,-0.848567903,59.4124,2.900576,-7.942584,59.308444,25.822961,-9.865222
365,1432280616,152.0463104,-80.54563904,94.57476807,9.657136917,0.557683766,-1.319248199,3.063061237,0.84031415,-0.662811816,59.573352,2.909871,-7.964571,59.359495,25.836966,-9.876269
366,1432297283,152.2789612,-80.52085114,94.39765167,9.693042755,0.521922648,-1.303690076,2.955423832,0.92392683,-0.825798213,59.734903,2.91857,-7.986299,59.408752,25.852365,-9.890032
367,1432313950,152.5022125,-80.49678802,94.23099518,9.69605732,0.586764097,-1.25820446,3.014115095,0.992299914,-0.869851947,59.896504,2.928349,-8.007269,59.458987,25.868903,-9.90453
368,1432330617,152.7451324,-80.46974945,94.05049133,9.625911713,0.621832132,-1.31464231,3.385563135,0.74680227,-0.802772403,60.056936,2.938713,-8.02918,59.515413,25.88135,-9.91791
369,1432347284,153.0167084,-80.44654846,93.83577728,9.608021736,0.602970004,-1.291292548,3.078607798,0.782595992,-0.358328044,60.21707,2.948763,-8.050702,59.566723,25.894393,-9.923882
370,1432363951,153.3019104,-80.42449188,93.60372162,9.662944794,0.589401841,-1.355363488,2.879789352,0.750977099,-0.139621228,60.378119,2.958586,-8.073291,59.614719,25.906909,-9.926209
371,1432380618,153.5873718,-80.40711975,93.36460876,9.725246429,0.598491967,-1.223456621,2.483317614,0.956928849,0.082306407,60.540206,2.968561,-8.093682,59.656108,25.922858,-9.924837
372,1432397285,153.8737183,-80.38415527,93.12841797,9.702770233,0.554038286,-1.287649035,2.705392599,0.656722426,-0.05798075,60.701919,2.977795,-8.115143,59.701198,25.933803,-9.925803
373,1432413952,154.1445313,-80.36146545,92.90816498,9.681938171,0.578607917,-1.334881425,2.733067036,0.721381724,-0.166796297,60.863285,2.987438,-8.137391,59.746749,25.945826,-9.928583
374,1432430619,154.4263763,-80.3404007,92.67545319,9.57248497,0.626834929,-1.308438182,2.65099144,0.745931506,0.024127163,61.022826,2.997885,-8.159198,59.790932,25.958258,-9.928181
375,1432447286,154.7265167,-80.32301331,92.41990662,9.637741089,0.588237524,-1.277775764,2.407670498,0.835537434,0.361139029,61.183455,3.007689,-8.180494,59.83106,25.972184,-9.922162
376,1432463953,155.0184326,-80.30483246,92.17767334,9.727698326,0.563196957,-1.288862228,2.70471406,0.837663352,0.251734436,61.345583,3.017076,-8.201975,59.876139,25.986145,-9.917966
377,1432480620,155.3053284,-80.28631592,91.93815613,9.710578918,0.578871727,-1.266870022,2.572539806,0.81440711,0.246138066,61.507426,3.026724,-8.22309,59.919015,25.999718,-9.913864
378,1432497287,155.5811462,-80.26342773,91.70417023,9.670423508,0.625935078,-1.315130472,2.239843369,0.5878371,0.118381895,61.6686,3.037156,-8.245009,59.956346,26.009515,-9.911891
379,1432513954,155.8761444,-80.24841309,91.45656586,9.618574142,0.588471353,-1.355421782,2.587753534,0.951345265,0.473489165,61.82891,3.046964,-8.267599,59.999475,26.025371,-9.904
380,1432530621,156.1753387,-80.23983002,91.20962524,9.667160034,0.535451353,-1.345088124,2.883823395,1.299870014,0.653046966,61.990029,3.055888,-8.290017,60.047539,26.047036,-9.893116
381,1432547288,156.4619904,-80.23442841,90.97485352,9.701453209,0.587085903,-1.330306649,2.85422802,1.518769145,0.640573621,62.15172,3.065673,-8.312189,60.095109,26.072349,-9.88244
382,1432563955,156.7389679,-80.22849274,90.74771881,9.672997475,0.546575785,-1.265393376,2.72867465,1.513198376,0.58089608,62.312937,3.074783,-8.333279,60.140587,26.097569,-9.872758
383,1432580622,157.0085297,-80.21777344,90.53173828,9.637384415,0.56984067,-1.307985187,2.94748354,1.282030821,0.385586381,62.47356,3.08428,-8.355079,60.189712,26.118936,-9.866332
384,1432597289,157.2763824,-80.21138,90.31050873,9.624779701,0.636442959,-1.265366316,2.536169767,1.495820045,0.56268537,62.633973,3.094887,-8.376168,60.231981,26.143866,-9.856954
385,1432613956,157.569397,-80.20222473,90.06209564,9.703798294,0.56044209,-1.297153711,2.452633858,1.21911335,0.777460694,62.795703,3.104228,-8.397787,60.272858,26.164185,-9.843996
386,1432630623,157.8442841,-80.19504547,89.83628082,9.709474564,0.583437502,-1.23347795,2.693431616,1.413949013,0.636680543,62.957528,3.113952,-8.418345,60.317749,26.187751,-9.833385
387,1432647290,158.1325226,-80.18230438,89.59571075,9.689986229,0.604920149,-1.263371706,2.637826204,1.03489399,0.673831761,63.119028,3.124034,-8.439401,60.361713,26.204999,-9.822154
388,1432663957,158.4182281,-80.16677094,89.35668945,9.639206886,0.557023585,-1.314832807,2.574665546,0.87722224,0.626153708,63.279681,3.133318,-8.461315,60.404624,26.219619,-9.811718
389,1432680624,158.7048645,-80.15409851,89.11292267,9.624807358,0.599759221,-1.288505077,2.365486383,1.006822467,0.758878708,63.440094,3.143314,-8.48279,60.444049,26.236399,-9.79907
390,1432697291,159.0021667,-80.14157104,88.85214233,9.618689537,0.609146893,-1.269344807,1.987763047,0.952664316,0.958042979,63.600405,3.153466,-8.503946,60.477178,26.252277,-9.783103
391,1432713958,159.3055725,-80.13135529,88.59004211,9.684028625,0.534967959,-1.308853745,2.294718504,1.06237638,1.044626832,63.761805,3.162382,-8.52576,60.515423,26.269983,-9.765693
392,1432730625,159.6031189,-80.12195587,88.33757019,9.727665901,0.511909664,-1.282689571,2.502015114,1.150074363,0.998523951,63.923933,3.170914,-8.547138,60.557123,26.289151,-9.749051
393,1432747292,159.8612366,-80.11097717,88.12321472,9.754018784,0.500558496,-1.277528763,2.408656597,1.176134944,0.612053871,64.0865,3.179257,-8.56843,60.597267,26.308753,-9.73885
394,1432763959,160.1002502,-80.09690857,87.93416595,9.686411858,0.545730472,-1.29136622,2.745450974,1.097760439,0.331979036,64.24794,3.188353,-8.589953,60.643025,26.327049,-9.733317
395,1432780626,160.3268738,-80.08464813,87.76359558,9.601482391,0.571906209,-1.274904847,3.107063293,1.24509716,0.208679453,64.407965,3.197885,-8.611201,60.694809,26.347801,-9.729839
396,1432797293,160.5671387,-80.07104492,87.57654572,9.652111053,0.561938941,-1.29042244,2.958317757,1.099489212,0.36372596,64.568834,3.207251,-8.632708,60.744114,26.366126,-9.723777
397,1432813960,160.802475,-80.05699158,87.38909912,9.641366959,0.606970489,-1.258758426,2.644255161,1.063900113,0.381641984,64.729523,3.217367,-8.653687,60.788185,26.383858,-9.717416
398,1432830627,161.0361023,-80.0451355,87.20284271,9.694288254,0.5233742,-1.274832249,2.615261555,1.18007946,0.437016726,64.891094,3.22609,-8.674934,60.831773,26.403526,-9.710132
399,1432847294,161.2589264,-80.0251236,87.03090668,9.709827423,0.522134602,-1.243571162,2.807049274,0.762157142,0.163191304,65.052924,3.234792,-8.69566,60.878557,26.416229,-9.707412
400,1432863961,161.4769897,-80.00286865,86.85832977,9.707175255,0.599640965,-1.249945879,2.494215965,0.615857363,0.147567555,65.21471,3.244786,-8.716492,60.920127,26.426493,-9.704953
401,1432880628,161.7093964,-79.98246765,86.67102814,9.650595665,0.574225426,-1.306094885,2.494484901,0.656171739,0.353109509,65.375553,3.254356,-8.73826,60.961702,26.437429,-9.699068
402,1432897295,161.9595947,-79.96622467,86.46921539,9.623706818,0.594020069,-1.261316299,2.703650951,0.838777483,0.601501465,65.535948,3.264256,-8.759282,61.006763,26.451409,-9.689043
403,1432913962,162.2020874,-79.94554901,86.26963806,9.661923409,0.568643868,-1.327435613,2.376077414,0.585852146,0.523446739,65.69698,3.273733,-8.781406,61.046364,26.461173,-9.680319
404,1432930629,162.4464264,-79.93442535,86.06671906,9.687770844,0.57764256,-1.285518885,2.302300215,1.108786583,0.753384829,65.858443,3.28336,-8.802831,61.084736,26.479653,-9.667763
405,1432947296,162.6798248,-79.91527557,85.87670898,9.682100296,0.541401446,-1.230187535,2.404724836,0.687957048,0.504698217,66.019811,3.292383,-8.823334,61.124815,26.491119,-9.659351
406,1432963963,162.9204712,-79.89699554,85.68125916,9.665024757,0.561911702,-1.303483963,2.52860117,0.705027997,0.595828235,66.180895,3.301748,-8.845059,61.166958,26.502869,-9.649421
407,1432980630,163.1611481,-79.88072968,85.48452759,9.666523933,0.523431122,-1.314297915,2.453414917,0.810744405,0.670066714,66.342004,3.310472,-8.866964,61.207848,26.516381,-9.638253
408,1432997297,163.396347,-79.86112213,85.28398895,9.687217712,0.54452461,-1.210915804,1.903126121,0.601898491,0.672871292,66.503458,3.319547,-8.887146,61.239567,26.526413,-9.627038
409,1433013964,163.6193237,-79.83718872,85.10128021,9.66944313,0.58073312,-1.316881895,2.231929064,0.393577546,0.441793472,66.664615,3.329226,-8.909094,61.276766,26.532973,-9.619675
410,1433030631,163.8513489,-79.81750488,84.9131546,9.652247429,0.559323132,-1.285342693,2.451391697,0.614960909,0.594586015,66.825486,3.338548,-8.930516,61.317623,26.543222,-9.609765
411,1433047298,164.0696106,-79.79090118,84.73313904,9.640949249,0.569853902,-1.301734567,2.114635706,0.231321111,0.421380162,66.986168,3.348046,-8.952212,61.352867,26.547077,-9.602742
412,1433063965,164.2973938,-79.76622772,84.53784943,9.693323135,0.534527421,-1.316716671,1.788611412,0.288795948,0.63324827,67.147723,3.356955,-8.974157,61.382677,26.55189,-9.592188
413,1433080632,164.5115356,-79.73819733,84.36480713,9.696638107,0.485682994,-1.256297231,2.289301395,0.148540854,0.375725508,67.309334,3.36505,-8.995095,61.420832,26.554366,-9.585926
414,1433097299,164.7024078,-79.70938873,84.2166748,9.676789284,0.542209923,-1.293552399,2.365358353,0.163946897,0.128972754,67.470614,3.374087,-9.016654,61.460255,26.557098,-9.583776
415,1433113966,164.8854828,-79.68296814,84.07634735,9.660741806,0.526320338,-1.302662611,2.359224081,0.315433174,0.10813681,67.631626,3.382859,-9.038365,61.499575,26.562355,-9.581974
416,1433130633,165.0494537,-79.65689087,83.95506287,9.65555954,0.568362653,-1.256299138,2.338119268,0.382103056,-0.060452379,67.792552,3.392332,-9.059303,61.538544,26.568723,-9.582982
417,1433147300,165.2433014,-79.63124084,83.80728149,9.65158844,0.595350385,-1.313673019,2.579672575,0.314523935,0.239248216,67.953412,3.402255,-9.081198,61.581539,26.573965,-9.578995
418,1433163967,165.4423676,-79.61626434,83.65570068,9.65893364,0.552623808,-1.341367006,2.6711483,0.915346622,0.465203434,68.114394,3.411465,-9.103554,61.626058,26.589221,-9.571242
419,1433180634,165.6245117,-79.60009766,83.51461029,9.699298859,0.506486356,-1.30418539,2.275803804,0.869346321,0.357181907,68.276049,3.419906,-9.12529,61.663988,26.60371,-9.565289
420,1433197301,165.7949371,-79.58268738,83.38319397,9.695157051,0.539230108,-1.276162505,2.147112608,0.813625872,0.253578544,68.437635,3.428893,-9.146559,61.699773,26.61727,-9.561063
421,1433213968,165.9516296,-79.56726837,83.27022552,9.680480003,0.530826747,-1.281831026,2.420758486,0.9638955,0.103705809,68.598976,3.43774,-9.167923,61.740119,26.633335,-9.559335
422,1433230635,166.1079865,-79.55106354,83.1646347,9.64809227,0.529299378,-1.315684557,2.831778765,0.931482732,0.032169551,68.759778,3.446562,-9.189851,61.787315,26.64886,-9.558799
423,1433247302,166.2466888,-79.5382309,83.072052,9.645238876,0.587202251,-1.326187372,2.545415878,1.150023103,-0.041947201,68.920532,3.456349,-9.211954,61.829739,26.668027,-9.559498
424,1433263969,166.3884583,-79.52315521,82.97206116,9.631252289,0.571618497,-1.242954135,2.291094542,0.995207012,0.022590403,69.081053,3.465876,-9.23267,61.867924,26.684614,-9.559121
425,1433280636,166.5452271,-79.50324249,82.86257935,9.673069954,0.579441488,-1.258942127,2.640105963,0.676610708,0.06979461,69.242271,3.475533,-9.253652,61.911926,26.695891,-9.557958
426,1433297303,166.723465,-79.48699188,82.72925568,9.676095009,0.555979311,-1.313809395,2.527729988,0.813292861,0.391566962,69.403539,3.484799,-9.275549,61.954055,26.709446,-9.551432
427,1433313970,166.8948517,-79.47324371,82.59868622,9.700557709,0.54268074,-1.296812415,2.284320116,0.958709061,0.413542658,69.565215,3.493844,-9.297163,61.992127,26.725424,-9.54454
428,1433330637,167.0683289,-79.46072388,82.4655304,9.715688705,0.536864161,-1.279318571,2.248334169,1.020256281,0.475743055,69.727143,3.502792,-9.318485,62.029599,26.742428,-9.536611
429,1433347304,167.2193909,-79.44695282,82.36083221,9.676468849,0.546415687,-1.305582047,2.595155478,1.002455354,0.16575259,69.888417,3.511899,-9.340245,62.072852,26.759136,-9.533848
430,1433363971,167.3717499,-79.43502808,82.25824738,9.659440994,0.581101954,-1.293269515,2.79928875,1.117059469,0.184667572,70.049408,3.521584,-9.361799,62.119507,26.777754,-9.53077
431,1433380638,167.5334473,-79.4230423,82.14579773,9.618294716,0.550291955,-1.279015303,2.786085367,1.072570205,0.302345127,70.209713,3.530756,-9.383116,62.165942,26.79563,-9.525731
432,1433397305,167.6868134,-79.41000366,82.03967285,9.671110153,0.534188688,-1.26841867,2.660621643,1.014864802,0.235150203,70.370898,3.539659,-9.404256,62.210286,26.812544,-9.521812
433,1433413972,167.8356171,-79.39550018,81.93309021,9.695518494,0.570285141,-1.263425231,2.363719225,0.921224773,0.235470355,70.53249,3.549164,-9.425313,62.249681,26.827898,-9.517887
434,1433430639,167.9853058,-79.37966156,81.82772827,9.685194969,0.559466958,-1.232982874,2.487325907,0.839673877,0.222548738,70.69391,3.558488,-9.445863,62.291136,26.841893,-9.514178
435,1433447306,168.1464386,-79.36429596,81.71356964,9.645786285,0.591340303,-1.304613113,2.661466599,0.833053052,0.336935073,70.854673,3.568344,-9.467607,62.335494,26.855777,-9.508562
436,1433463973,168.3259583,-79.35145569,81.57706451,9.672433853,0.572015464,-1.330353498,2.457308054,0.92273581,0.625462174,71.01588,3.577878,-9.48978,62.376449,26.871156,-9.498138
437,1433480640,168.5136414,-79.3394165,81.42844391,9.668981552,0.539481223,-1.285581112,2.230430841,0.941138625,0.78337729,71.17703,3.586869,-9.511206,62.413623,26.886842,-9.485082
438,1433497307,168.6861725,-79.32884216,81.29264069,9.716552734,0.562443376,-1.284467936,2.081351995,1.046611786,0.673511565,71.338973,3.596243,-9.532614,62.448312,26.904286,-9.473857
439,1433513974,168.853714,-79.31524658,81.15918732,9.655999184,0.553009212,-1.22083509,1.920337796,0.867681444,0.629240036,71.499906,3.60546,-9.552961,62.480318,26.918747,-9.46337
440,1433530641,169.026062,-79.29845428,81.02428436,9.679412842,0.541618824,-1.277633905,2.127531767,0.672230899,0.621978819,71.66123,3.614487,-9.574255,62.515777,26.929951,-9.453004
441,1433547308,169.2061005,-79.27999115,80.88455963,9.624187469,0.563576579,-1.279085398,2.312596321,0.552824497,0.6702075,71.821633,3.62388,-9.595573,62.55432,26.939165,-9.441834
442,1433563975,169.3941498,-79.26396942,80.73194885,9.656799316,0.541334152,-1.294872403,2.036824226,0.660577178,0.855899632,71.98258,3.632902,-9.617154,62.588267,26.950175,-9.427569
443,1433580642,169.5575409,-79.24863434,80.59905243,9.690698624,0.528866351,-1.29378581,1.721237302,0.7386958,0.661294222,72.144092,3.641716,-9.638717,62.616954,26.962487,-9.416547
444,1433597309,169.7238159,-79.23616028,80.46514893,9.712788582,0.511268854,-1.306005716,1.836366653,0.89784044,0.717283666,72.305972,3.650237,-9.660484,62.64756,26.977451,-9.404592
445,1433613976,169.8664551,-79.22515106,80.35511017,9.692658424,0.498614818,-1.292405486,1.832729697,1.024648905,0.480622321,72.467516,3.658547,-9.682024,62.678105,26.994528,-9.396582
446,1433630643,169.997345,-79.2124939,80.2600174,9.65213871,0.525224447,-1.26066947,2.005832911,0.953074276,0.30987525,72.628385,3.667301,-9.703035,62.711536,27.010413,-9.391417
447,1433647310,170.136322,-79.19885254,80.16188049,9.65506649,0.578554213,-1.275609255,2.321074247,0.878835797,0.343645602,72.789303,3.676944,-9.724295,62.750221,27.02506,-9.38569
448,1433663977,170.2801514,-79.18589783,80.0599823,9.678640366,0.527422607,-1.293198228,2.38753891,0.908059776,0.407369971,72.950614,3.685734,-9.745848,62.790013,27.040194,-9.378901
449,1433680644,170.4177246,-79.17521667,79.96383667,9.689517021,0.550938249,-1.314557552,2.362784386,1.038146734,0.376148105,73.112106,3.694916,-9.767757,62.829393,27.057496,-9.372632
450,1433697311,170.5620117,-79.16460419,79.85689545,9.656541824,0.556799352,-1.294385433,2.119617462,1.026339293,0.51222837,73.273048,3.704196,-9.78933,62.86472,27.074602,-9.364095
451,1433713978,170.7023773,-79.15412903,79.75254822,9.668601036,0.529028237,-1.258665085,2.055047989,1.025378704,0.491891921,73.434191,3.713013,-9.810308,62.898971,27.091692,-9.355897
452,1433730645,170.8503265,-79.14096069,79.64562225,9.683936119,0.525177479,-1.281828284,2.343203306,0.8645823,0.511588037,73.59559,3.721766,-9.831672,62.938024,27.106102,-9.347371
453,1433747312,170.9932556,-79.13028717,79.54155731,9.720571518,0.518064618,-1.215186834,2.236706018,0.996206045,0.508168817,73.7576,3.7304,-9.851925,62.975302,27.122705,-9.338902
454,1433763979,171.1153564,-79.11617279,79.4664917,9.680872917,0.533209562,-1.271842599,2.680561066,0.845526397,0.166495353,73.918948,3.739287,-9.873122,63.019978,27.136797,-9.336127
455,1433780646,171.2409821,-79.10801697,79.38843536,9.640489578,0.545539021,-1.363884926,2.723923445,1.183037758,0.263900459,74.079623,3.748379,-9.895853,63.065377,27.156514,-9.331729
456,1433797313,171.3686218,-79.10488892,79.30613708,9.633905411,0.542034924,-1.313930988,2.589751482,1.470040917,0.369411975,74.240188,3.757413,-9.917752,63.10854,27.181015,-9.325572
457,1433813980,171.4924011,-79.10488892,79.22647095,9.697566986,0.526169598,-1.282117367,2.540728807,1.653184772,0.371973276,74.401814,3.766182,-9.939121,63.150885,27.208568,-9.319372
458,1433830647,171.6145782,-79.10301208,79.15257263,9.728944778,0.524875462,-1.229260921,2.770961046,1.544010282,0.300833941,74.563963,3.77493,-9.959609,63.197068,27.234302,-9.314358
459,1433847314,171.7208405,-79.09593201,79.09790039,9.668270111,0.539154112,-1.250108361,2.954847336,1.256149054,0.04735788,74.725101,3.783916,-9.980444,63.246315,27.255238,-9.313569
460,1433863981,171.8320465,-79.08911133,79.0394516,9.628195763,0.570126057,-1.263553262,3.02562809,1.264396548,0.102591664,74.885571,3.793418,-10.001503,63.296742,27.276311,-9.311859
461,1433880648,171.9581604,-79.0796814,78.96413422,9.64274025,0.519863188,-1.252491117,2.934498072,1.068805218,0.27899912,75.046283,3.802082,-10.022378,63.34565,27.294124,-9.307209
462,1433897315,172.0636139,-79.06729889,78.90514374,9.670822144,0.579780936,-1.267061114,2.669124842,0.909020185,0.076645993,75.207463,3.811745,-10.043496,63.390135,27.309274,-9.305932
463,1433913982,172.1747742,-79.0522995,78.83944702,9.661295891,0.551997542,-1.236847162,2.604491472,0.74328059,0.145544171,75.368485,3.820945,-10.06411,63.433543,27.321662,-9.303506
464,1433930649,172.2788239,-79.03098297,78.78162384,9.645323753,0.541954517,-1.258236766,2.647840738,0.37266475,0.015572521,75.52924,3.829978,-10.085081,63.477674,27.327873,-9.303246
465,1433947316,172.3896179,-79.00704956,78.71456146,9.648834229,0.556152821,-1.256294012,2.524835825,0.191403687,0.108777128,75.690054,3.839247,-10.106019,63.519755,27.331063,-9.301433
466,1433963983,172.4929199,-78.98095703,78.65660095,9.691967964,0.501762569,-1.255458236,2.604516506,0.070037924,0.000576286,75.851587,3.84761,-10.126943,63.563164,27.33223,-9.301423
467,1433980650,172.5847473,-78.95749664,78.60925293,9.705248833,0.560665786,-1.32402575,2.546030521,0.234612331,-0.089945406,76.013341,3.856954,-10.14901,63.605598,27.33614,-9.302922
468,1433997317,172.6881866,-78.94538116,78.55233002,9.677544594,0.520443797,-1.308314204,2.683596373,0.889260054,0.116934776,76.174633,3.865628,-10.170815,63.650325,27.350961,-9.300973
469,1434013984,172.7838135,-78.93634033,78.50750732,9.666060448,0.545933485,-1.312891722,2.918861866,1.090576053,0.013651569,76.335734,3.874727,-10.192697,63.698973,27.369137,-9.300745
470,1434030651,172.8895721,-78.93320465,78.45402527,9.66117382,0.590607464,-1.291784167,3.025960922,1.418431282,0.163242534,76.496754,3.88457,-10.214227,63.749406,27.392778,-9.298024
471,1434047318,173.0000458,-78.93345642,78.39363861,9.679671288,0.553592443,-1.255579948,2.905376673,1.600614548,0.274939507,76.658082,3.893797,-10.235153,63.797829,27.419455,-9.293442
472,1434063985,173.1181641,-78.93107605,78.33145905,9.70236969,0.493816555,-1.324591517,3.265337706,1.435899258,0.283455759,76.819788,3.902027,-10.25723,63.852251,27.443387,-9.288718
473,1434080652,173.2225952,-78.9342041,78.28810883,9.691470146,0.525561094,-1.251127243,3.546949387,1.789482832,0.114488795,76.981313,3.910786,-10.278082,63.911367,27.473212,-9.28681
474,1434097319,173.3109283,-78.93473816,78.25932312,9.694048882,0.518612623,-1.28109622,3.443205118,1.646563888,-0.063615546,77.14288,3.91943,-10.299434,63.968754,27.500655,-9.28787
475,1434113986,173.3827515,-78.9345932,78.24594116,9.682781219,0.541133106,-1.20198226,3.371758461,1.618005395,-0.241098776,77.30426,3.928449,-10.319467,64.02495,27.527622,-9.291888
476,1434130653,173.4664917,-78.92978668,78.22166443,9.613508224,0.586993694,-1.235372782,3.441053629,1.318336964,-0.140428036,77.464485,3.938232,-10.340057,64.082301,27.549594,-9.294228
477,1434147320,173.5583191,-78.92555237,78.18430328,9.653727531,0.577210724,-1.257626534,3.158020258,1.330425978,0.020861542,77.62538,3.947852,-10.361017,64.134935,27.571768,-9.29388
478,1434163987,173.6571503,-78.91917419,78.14160156,9.67781353,0.512836874,-1.23733592,3.279206991,1.185330153,0.074071929,77.786677,3.956399,-10.381639,64.189588,27.591524,-9.292645
479,1434180654,173.741745,-78.91138458,78.11196899,9.7352705,0.532173097,-1.292489767,3.185400009,1.112039328,-0.076895721,77.948932,3.965269,-10.40318,64.242678,27.610058,-9.293927
480,1434197321,173.8217773,-78.90296936,78.08805847,9.674866676,0.536661983,-1.252949119,3.249508619,1.077961683,-0.139198616,78.11018,3.974213,-10.424062,64.296836,27.628024,-9.296247
481,1434213988,173.8955841,-78.89189911,78.06867218,9.643062592,0.549708784,-1.235628247,3.14827466,0.918266416,-0.202833354,78.270898,3.983375,-10.444656,64.349307,27.643328,-9.299628
482,1434230655,173.9819489,-78.88178253,78.03518677,9.64891243,0.566143572,-1.2715801,3.07331872,0.951678216,-0.026361868,78.431713,3.992811,-10.465849,64.400529,27.659189,-9.300067
483,1434247322,174.0648804,-78.87253571,78.00828552,9.659664154,0.517498791,-1.277254701,3.255975723,1.005324006,-0.089638039,78.592707,4.001436,-10.487137,64.454795,27.675944,-9.301561
484,1434263989,174.1473083,-78.86289978,77.9830246,9.717276573,0.509834051,-1.257245302,3.326884747,0.978725255,-0.103340834,78.754662,4.009933,-10.508091,64.510243,27.692256,-9.303283
485,1434280656,174.214325,-78.84991455,77.97073364,9.704763412,0.539029658,-1.23639667,3.16338563,0.787936211,-0.267569423,78.916408,4.018917,-10.528698,64.562966,27.705388,-9.307742
486,1434297323,174.2781067,-78.83827972,77.96228027,9.670210838,0.569805861,-1.248827696,3.201074839,0.865119994,-0.297254562,79.077578,4.028414,-10.549512,64.616317,27.719807,-9.312696
487,1434313990,174.3442383,-78.8264389,77.94721222,9.662287712,0.629419684,-1.256519437,2.971739054,0.840941787,-0.218380287,79.238616,4.038904,-10.570454,64.665846,27.733823,-9.316336
488,1434330657,174.4420166,-78.81685638,77.89815521,9.670500755,0.52760309,-1.275717974,2.851871729,0.928447485,0.20114933,79.399791,4.047697,-10.591716,64.713377,27.749297,-9.312984
489,1434347324,174.5147858,-78.80565643,77.87472534,9.710283279,0.547487259,-1.204438686,2.868750572,0.854657412,-0.099537358,79.561629,4.056822,-10.61179,64.76119,27.763541,-9.314643
490,1434363991,174.5773621,-78.79138184,77.86051941,9.678001404,0.58546418,-1.243467212,2.793692589,0.674318373,-0.216600209,79.722929,4.06658,-10.632514,64.807752,27.77478,-9.318253
491,1434380658,174.6535034,-78.78010559,77.82401276,9.66437149,0.613227189,-1.259810686,2.309599638,0.824152648,0.065030642,79.884002,4.0768,-10.653511,64.846245,27.788516,-9.317169
492,1434397325,174.7597961,-78.76542664,77.75439453,9.664847374,0.604110956,-1.187576056,2.165617704,0.581293046,0.441012233,80.045083,4.086869,-10.673304,64.882339,27.798204,-9.309819
493,1434413992,174.868866,-78.74570465,77.68128967,9.685394287,0.550145268,-1.293180943,2.137917757,0.267832011,0.461694539,80.206506,4.096038,-10.694857,64.917971,27.802668,-9.302124
494,1434430659,174.9819489,-78.73013306,77.60707092,9.662158966,0.547632277,-1.305151105,2.323187113,0.505274534,0.504839063,80.367542,4.105165,-10.71661,64.956691,27.811089,-9.29371
495,1434447326,175.0738678,-78.71659088,77.55866241,9.686845779,0.533067167,-1.287919164,2.560386181,0.660039246,0.224367231,80.528989,4.114049,-10.738075,64.999364,27.82209,-9.289971
496,1434463993,175.1645966,-78.70387268,77.51158905,9.648449898,0.564173937,-1.264077544,2.579903126,0.697907627,0.217016384,80.689796,4.123452,-10.759143,65.042362,27.833722,-9.286354
497,1434480660,175.2570648,-78.69818878,77.46324921,9.672469139,0.589279592,-1.238456488,2.610625267,1.114536643,0.274952322,80.851004,4.133273,-10.779784,65.085872,27.852298,-9.281771
498,1434497327,175.3749695,-78.68788147,77.38803864,9.706907272,0.595196962,-1.227117181,2.554316282,0.808311224,0.575082004,81.012786,4.143193,-10.800236,65.128444,27.86577,-9.272186
499,1434513994,175.4783783,-78.67538452,77.32309723,9.646152496,0.605604589,-1.237511396,2.293079376,0.685946524,0.452653289,81.173555,4.153286,-10.820861,65.166662,27.877202,-9.264642
500,1434530661,175.6009369,-78.66345978,77.23858643,9.657108307,0.570023239,-1.312862277,2.296729326,0.689647615,0.691747785,81.334507,4.162786,-10.842742,65.204941,27.888696,-9.253113
501,1434547328,175.7441406,-78.65867615,77.12711334,9.672786713,0.61279124,-1.233215928,1.94874239,1.091113925,1.04981339,81.49572,4.172999,-10.863296,65.23742,27.906881,-9.235616
502,1434563995,175.9020386,-78.65290833,76.99559021,9.639970779,0.634576619,-1.221789479,1.655143738,1.01445508,1.289535403,81.656386,4.183575,-10.883659,65.265006,27.923789,-9.214124
503,1434580662,176.0877075,-78.64733124,76.83000183,9.679631233,0.536627412,-1.311865926,1.310256124,0.998972178,1.701029181,81.817713,4.192519,-10.905523,65.286844,27.940439,-9.185774
504,1434597329,176.2650757,-78.64221954,76.6632843,9.658773422,0.609665036,-1.228138566,0.7581743,1.021063089,1.721186399,81.978693,4.20268,-10.925992,65.29948,27.957457,-9.157088
505,1434613996,176.4570313,-78.63709259,76.46669769,9.654042244,0.729087532,-1.263168812,-0.10805358,1.005913258,2.08014822,82.139594,4.214831,-10.947045,65.297679,27.974222,-9.122419
506,1434630663,176.7180634,-78.64377594,76.20724487,9.605728149,0.557165027,-1.350434184,0.332081467,1.667322636,2.874206066,82.299689,4.224117,-10.969552,65.303214,28.002011,-9.074516
507,1434647330,176.9658356,-78.66485596,75.9699173,9.752660751,0.441707224,-1.401212335,0.841441274,2.55377841,2.661813021,82.462233,4.231479,-10.992906,65.317238,28.044574,-9.030152
508,1434663997,177.1570282,-78.70069885,75.78582764,9.667835236,0.51962924,-1.396376729,0.571188748,3.485683441,2.073066235,82.623364,4.240139,-11.016179,65.326758,28.102669,-8.995601
509,1434680664,177.2831726,-78.74922943,75.65433502,9.521743774,0.573254347,-1.394141078,-0.229201674,4.273313046,1.483308315,82.78206,4.249693,-11.039415,65.322938,28.173891,-8.970879
510,1434697331,177.3704987,-78.80196381,75.57883453,9.42647171,0.418295801,-1.521530747,0.733509362,4.559957981,0.836523771,82.939168,4.256665,-11.064774,65.335163,28.24989,-8.956937
511,1434713998,177.3919373,-78.90926361,75.53188324,9.690982819,0.493520826,-1.315651655,-1.537562609,7.849844933,0.648321509,83.100684,4.26489,-11.086702,65.309537,28.380721,-8.946132
512,1434730665,177.2638092,-78.99739838,75.62419891,9.336776733,0.402661771,-1.278835654,-2.313716888,6.772638321,-0.999721348,83.256297,4.271601,-11.108016,65.270975,28.493598,-8.962794
513,1434747332,176.9407349,-79.02835083,75.91890717,9.455683708,0.418001801,-0.843054056,-2.07991147,3.460775375,-3.456786633,83.413892,4.278568,-11.122067,65.23631,28.551278,-9.020407
514,1434763999,176.5367126,-79.00352478,76.29573059,9.722868919,0.287261456,-0.868173599,-2.089669704,0.181594029,-4.572346687,83.57594,4.283356,-11.136537,65.201482,28.554305,-9.096613
515,1434780666,176.0332336,-78.93674469,76.78642273,9.696094513,0.458195001,-1.090572596,-1.354418993,-2.214275599,-6.068833828,83.737542,4.290993,-11.154713,65.178908,28.5174,-9.19776
516,1434797333,175.4559174,-78.84539795,77.31950378,9.666390419,0.719810545,-1.241668701,-3.306516886,-3.601242542,-6.73850441,83.898649,4.30299,-11.175407,65.123799,28.457379,-9.310068
517,1434814000,174.8684235,-78.72694397,77.81428528,9.42457962,0.685957611,-0.78274411,-6.163434982,-5.188295841,-6.534269333,84.055725,4.314423,-11.188453,65.021075,28.370907,-9.418972
518,1434830667,174.2885437,-78.55934906,78.26703644,9.567957878,0.423337698,-1.078508377,-8.197406769,-8.113229752,-6.454218388,84.215191,4.321479,-11.206428,64.884452,28.235687,-9.526542
519,1434847334,173.6719971,-78.38626099,78.74529266,9.692501068,0.537581861,-0.994155645,-8.911747932,-8.344873428,-6.973158836,84.376733,4.330439,-11.222997,64.735923,28.096606,-9.642761
520,1434864001,173.0539551,-78.21147156,79.22515106,9.937911987,0.525309384,-1.10830462,-8.922016144,-8.367821693,-7.19600153,84.542365,4.339194,-11.241469,64.587223,27.957142,-9.762694
521,1434880668,172.4164886,-78.05581665,79.72705078,9.792201996,0.433588803,-1.094539046,-8.80966568,-7.113643646,-7.507836342,84.705568,4.34642,-11.259711,64.440395,27.838581,-9.887825
522,1434897335,171.7321472,-77.90270233,80.32263184,9.776694298,0.676585495,-1.718462229,-6.134815216,-6.717363834,-8.828735352,84.868513,4.357696,-11.288352,64.338148,27.726625,-10.034971
523,1434914002,171.0722656,-77.81249237,80.93927002,9.892436981,0.733973324,-1.825504303,-3.446900845,-2.830646276,-8.691922188,85.033387,4.369929,-11.318777,64.2807,27.679448,-10.179836
524,1434930669,170.381134,-77.80259705,81.58167267,9.952152252,0.922038496,-1.643210888,-3.812675714,2.094927549,-8.313186646,85.199256,4.385296,-11.346164,64.217155,27.714363,-10.318389
525,1434947336,169.7254333,-77.82673645,82.20036316,9.72319603,0.978945673,-1.403628826,-3.070201397,4.142663002,-7.647704124,85.361309,4.401612,-11.369558,64.165985,27.783407,-10.445851
526,1434964003,169.1138,-77.87918854,82.79954529,9.646151543,0.792831898,-1.346222997,-1.555389166,5.841874123,-7.031078815,85.522078,4.414826,-11.391995,64.140062,27.880772,-10.563036
527,1434980670,168.5683594,-77.93312836,83.41556549,9.811940193,0.260403126,-1.144317508,3.409000158,6.02959013,-7.140931606,85.68561,4.419166,-11.411067,64.196879,27.981265,-10.682052
528,1434997337,167.9205322,-77.96897125,84.22428131,9.976271629,0.464126676,-1.372637868,8.575265884,5.520103931,-9.653682709,85.851881,4.426901,-11.433944,64.3398,28.073267,-10.842947
529,1435014004,167.1712341,-78.01789093,85.17692566,9.757579803,0.889584184,-1.477376938,10.94728947,6.776575565,-11.15523148,86.014507,4.441727,-11.458567,64.522255,28.18621,-11.028868
530,1435030671,166.6308441,-78.07633209,85.91507721,9.62480545,1.380128622,-1.366594315,10.9026556,6.841823101,-8.309643745,86.17492,4.464729,-11.481344,64.703966,28.30024,-11.167362
531,1435047338,166.4879761,-78.15982819,86.278862,9.800340652,1.472125649,-1.217038155,12.79584503,7.263459682,-3.361803532,86.338259,4.489264,-11.501628,64.91723,28.421298,-11.223392
532,1435064005,166.53862,-78.28936005,86.46087646,9.809912682,1.298531532,-1.223704815,13.73856163,9.419487953,-0.492487818,86.501758,4.510906,-11.522023,65.146206,28.578289,-11.2316
533,1435080672,167.0825195,-78.44494629,86.15725708,9.767802238,1.29066205,-1.113239288,14.81176186,9.587995529,5.580718517,86.664555,4.532417,-11.540577,65.393069,28.738089,-11.138588
534,1435097339,167.667984,-78.62073517,85.82008362,9.713253975,0.902540267,-1.397606969,15.33022118,10.74052238,6.116193771,86.826443,4.547459,-11.56387,65.648573,28.917098,-11.036651
535,1435114006,168.2823792,-78.81424713,85.44256592,9.708488464,1.007607698,-1.161235213,14.67566204,11.76262283,6.648208141,86.988251,4.564252,-11.583224,65.893167,29.113142,-10.925848
536,1435130673,168.9597778,-79.00170135,85.02734375,9.54872036,0.971275926,-0.98125577,16.22969055,11.40202236,6.820786953,87.147396,4.58044,-11.599578,66.163662,29.303176,-10.812168
537,1435147340,169.7221375,-79.18686676,84.57823944,9.68927002,0.775095463,-0.9252038,19.3036232,11.30153465,6.980882645,87.308884,4.593358,-11.614998,66.485389,29.491535,-10.69582
538,1435164007,170.5467987,-79.35803986,84.15378571,9.617471695,0.507227242,-0.93132776,24.48680305,10.61872005,6.35086441,87.469175,4.601812,-11.63052,66.893502,29.668514,-10.589972
539,1435180674,171.3190155,-79.49494934,83.83281708,9.690627098,0.663036644,-0.899292469,27.42329788,8.864506721,4.709780693,87.630685,4.612863,-11.645508,67.350557,29.816256,-10.511476
540,1435197341,172.0104523,-79.60145569,83.60382843,9.588068962,0.70171684,-0.820838213,27.99736214,7.270121574,3.325908661,87.790486,4.624558,-11.659189,67.81718,29.937425,-10.456044
541,1435214008,172.6808319,-79.64739227,83.42198181,9.540514946,0.616951287,-0.584471285,29.50971222,3.771929741,2.25656271,87.949495,4.634841,-11.66893,68.309009,30.00029,-10.418435
542,1435230675,173.2664337,-79.61100006,83.33699799,9.543942451,0.913671792,-0.206479505,30.14552498,-0.985202074,0.592500448,88.108561,4.650069,-11.672371,68.811434,29.98387,-10.40856
543,1435247342,173.8375397,-79.46182251,83.26751709,9.460183144,0.873365521,-0.004765741,30.19227791,-7.703616142,-0.292978287,88.266231,4.664625,-11.67245,69.314639,29.855476,-10.413443
544,1435264009,174.3594666,-79.17045593,83.29544067,9.493982315,0.535754085,-0.130889177,32.98861694,-16.09685516,-2.133951187,88.424464,4.673554,-11.674631,69.864449,29.587195,-10.449009
545,1435280676,174.721283,-78.74030304,83.57244873,9.445867538,0.17961736,-0.417673945,38.05477905,-24.1483593,-5.648710251,88.581895,4.676548,-11.681592,70.498695,29.184722,-10.543154
546,1435297343,174.9968109,-78.18587494,84.03299713,9.275066376,0.224791721,-0.887567639,43.63599014,-31.40338326,-8.506802559,88.736479,4.680295,-11.696385,71.225962,28.661332,-10.684934
547,1435314010,175.0890656,-77.55229187,84.61688995,9.472608566,0.792625606,-1.031630039,39.81444168,-36.00289536,-10.63758564,88.894356,4.693505,-11.713579,71.889536,28.061284,-10.862227
548,1435330677,175.1562347,-76.86600494,85.13607025,9.557476044,0.793141901,-1.204352379,34.44749069,-39.21337891,-10.38001633,89.053647,4.706724,-11.733652,72.463661,27.407728,-11.035227
549,1435347344,175.0409241,-76.16838074,85.87008667,10.0574007,0.213447198,-1.306304932,35.96104431,-39.60250473,-13.80623341,89.22127,4.710281,-11.755424,73.063012,26.747686,-11.265331
550,1435364011,174.9124756,-75.42997742,86.77978516,10.8117218,0.195694953,-1.241598129,45.26219559,-41.73924637,-17.2167263,89.401465,4.713543,-11.776117,73.817382,26.052032,-11.552276
551,1435380678,174.769455,-74.72691345,87.82627869,11.95971775,1.586892605,-1.192905307,52.14329529,-39.34297943,-19.89150429,89.600794,4.739991,-11.795999,74.686437,25.396316,-11.883801
552,1435397345,174.766449,-74.16508484,88.87268066,11.6566124,1.731663823,-1.639405131,60.37865448,-30.8394413,-19.81148529,89.795071,4.768852,-11.823322,75.692748,24.882325,-12.213992
553,1435414012,175.5578918,-73.82263184,89.33607483,10.914711,0.557263851,-1.441416025,74.29982758,-18.63829803,-9.313056946,89.976983,4.77814,-11.847346,76.931078,24.571687,-12.36921
554,1435430679,176.334549,-73.53958893,89.97657776,9.562911034,2.065799236,-1.088413715,83.56984711,-14.99707699,-11.89754105,90.136365,4.81257,-11.865486,78.323909,24.321736,-12.567502
555,1435447346,177.1019745,-73.37438965,90.80780792,9.169956207,0.713241756,-2.879807949,93.96268463,-7.909654617,-14.62700558,90.289198,4.824457,-11.913483,79.889954,24.189908,-12.811285
556,1435464013,177.8532715,-73.39215088,91.59282684,8.940500259,0.400040269,-3.144128084,90.32783508,2.857986927,-13.26712132,90.438206,4.831124,-11.965885,81.395418,24.237541,-13.032404
557,1435480680,177.9577789,-73.57785797,93.04489899,8.613630295,0.660617352,-1.946669936,89.92618561,13.26971245,-24.18009567,90.581767,4.842134,-11.998329,82.894188,24.458703,-13.435406
558,1435497347,177.7319641,-73.85768127,95.10523987,9.055923462,2.01069808,-0.909085155,105.2389832,19.33176041,-33.81298065,90.732699,4.875646,-12.01348,84.648171,24.780899,-13.998956
559,1435514014,177.6307526,-74.44519806,97.63467407,9.407719612,3.082731962,0.197338015,140.0650177,38.14722443,-39.74396133,90.889494,4.927025,-12.010191,86.982588,25.416686,-14.661355
560,1435530681,177.8408813,-75.04964447,100.4856796,8.733437538,2.514530182,-0.795907557,177.8110809,39.2531929,-43.21726608,91.035051,4.968934,-12.023456,89.946106,26.070906,-15.381643
561,1435547348,178.4179382,-75.8298645,103.3376999,8.769619942,2.299458742,-1.283769131,200.4278717,49.45895386,-41.07692719,91.181211,5.007258,-12.044852,93.286571,26.895222,-16.066258
562,1435564015,179.3535004,-76.61174011,105.9026566,8.009520531,1.473572016,-2.334074736,205.798584,48.92012787,-35.27142334,91.314703,5.031818,-12.083753,96.716547,27.710557,-16.654115
563,1435580682,-179.6619263,-77.44846344,108.1943741,8.240166664,1.268421531,-2.788802385,193.2704926,51.66235352,-30.20173454,91.452039,5.052958,-12.130233,99.937722,28.571596,-17.157477
564,1435597349,-178.7543488,-78.21688843,110.002594,7.944460392,-0.149871692,-4.347824097,160.7184753,47.24030685,-22.92972755,91.584447,5.05046,-12.202697,102.616363,29.358934,-17.539639
565,1435614016,-177.3497925,-78.90396118,110.6348267,8.249167442,-1.071973562,-4.948912621,121.6663818,42.48728943,-8.333100319,91.721933,5.032594,-12.285179,104.644136,30.067055,-17.678524
566,1435630683,-175.3170319,-79.44553375,109.8466721,8.306124687,-1.788325667,-5.078124046,75.73805237,34.62539673,7.363462448,91.860368,5.002789,-12.369814,105.906437,30.644145,-17.5558
567,1435647350,-171.7559814,-79.73620605,106.4546432,10.04340172,-3.93360877,-5.855256081,13.71050739,23.1616478,35.11931229,92.027758,4.937229,-12.467402,106.134945,31.030172,-16.970478
568,1435664017,-168.5562897,-79.74023438,102.2964172,10.96519375,-2.560599327,-3.053023815,-53.31241226,9.609948158,44.22533035,92.210511,4.894552,-12.518286,105.246405,31.190338,-16.233389
569,1435680684,-167.3358459,-80.00521088,100.3467102,12.45429897,1.674984336,1.181658864,-41.74098969,21.62007523,17.2314682,92.418083,4.922468,-12.498592,104.550722,31.550673,-15.946198
570,1435697351,-166.1763763,-80.44000244,99.05852509,10.10611439,1.009472609,1.61863935,-6.424629211,30.11360741,7.251902103,92.586518,4.939293,-12.471615,104.443645,32.052566,-15.825333
571,1435714018,-164.1821442,-80.61669922,97.4287796,9.684209824,1.00797677,-0.174180865,23.34747696,16.02611542,13.30484486,92.747921,4.956093,-12.474518,104.83277,32.319668,-15.603586
572,1435730685,-161.5860748,-80.6140213,95.21910095,9.910509109,0.632798016,-1.735495925,25.09565163,7.857533455,21.17901993,92.913096,4.96664,-12.503443,105.251031,32.450627,-15.250602
573,1435747352,-159.2492981,-80.6299057,93.0223999,9.341874123,-0.086829305,-1.519972086,10.31149006,9.743667603,20.39426804,93.068794,4.965193,-12.528776,105.422889,32.613021,-14.910698
574,1435764019,-157.8887024,-80.66426086,91.4895401,9.177728653,0.107767493,-0.815612376,-8.975667953,9.042459488,13.6317749,93.221756,4.966989,-12.54237,105.273295,32.763729,-14.683502
575,1435780686,-156.5667114,-80.65805054,90.04111481,9.399056435,0.330474406,-0.673856318,-6.300915241,6.75739193,13.61801624,93.378407,4.972497,-12.553601,105.16828,32.876352,-14.456535
576,1435797353,-155.0713806,-80.63273621,88.57572937,9.914452553,0.162825227,-0.814825118,3.09707737,6.097121239,14.13128185,93.543648,4.975211,-12.567181,105.219898,32.977971,-14.221014
577,1435814020,-153.6978302,-80.6079483,87.30419159,10.17136002,0.061795577,-1.170207143,7.263844967,5.657568932,12.32595634,93.713171,4.976241,-12.586684,105.340962,33.072264,-14.015581
578,1435830687,-152.4024811,-80.5923233,86.05773163,9.993543625,-0.040471312,-1.194282889,4.066979408,6.316698074,11.78447628,93.87973,4.975566,-12.606589,105.408745,33.177542,-13.819173
579,1435847354,-151.4900055,-80.56783295,85.10245514,9.693536758,-0.263200849,-1.102886796,-1.677562237,4.734074116,9.439769745,94.041289,4.971179,-12.62497,105.380786,33.256443,-13.661844
580,1435864021,-150.7012939,-80.54084015,84.27326965,9.589243889,-0.170561641,-1.281019092,-1.632368207,4.144084454,8.393936157,94.20111,4.968336,-12.64632,105.35358,33.325511,-13.521945
581,1435880688,-149.8537292,-80.51390839,83.42276764,9.521765709,0.09809576,-0.962366045,0.645850003,4.369271755,8.5572052,94.359806,4.969971,-12.662359,105.364344,33.398332,-13.379325
582,1435897355,-149.0921326,-80.46640778,82.65982819,9.547083855,0.235717893,-0.7988922,0.664137483,2.997032642,8.42291832,94.518924,4.9739,-12.675674,105.375413,33.448283,-13.238943
583,1435914022,-148.4503326,-80.39831543,81.99754333,9.743696213,0.089151829,-0.659325421,-0.561513782,1.529770017,8.232050896,94.681319,4.975386,-12.686663,105.366054,33.473779,-13.101742
584,1435930689,-148.0196533,-80.32012939,81.55555725,9.720342636,-0.114775755,-0.86313647,-0.193715289,-0.061758637,6.711360931,94.843325,4.973473,-12.701049,105.362825,33.47275,-12.989886
585,1435947356,-147.7314606,-80.23279572,81.27296448,9.763213158,-0.272422343,-1.282579422,0.695064723,-1.33059907,5.672919273,95.006045,4.968933,-12.722425,105.374409,33.450573,-12.895337
586,1435964023,-147.5376892,-80.16081238,81.09192657,9.709097862,-0.283182651,-1.206997037,1.041412473,-1.077097416,4.334002018,95.167863,4.964213,-12.742542,105.391766,33.432621,-12.823104
587,1435980690,-147.4509735,-80.10024261,80.98323059,9.749804497,-0.175072983,-0.967233479,-1.087957025,-0.884592295,3.350167036,95.33036,4.961295,-12.758663,105.373633,33.417878,-12.767268
588,1435997357,-147.4626465,-80.03308868,80.95800018,9.750000954,-0.03184263,-1.016085386,-2.06217432,-1.682325482,2.840934992,95.49286,4.960764,-12.775598,105.339263,33.389839,-12.719919
589,1436014024,-147.3768463,-79.97807312,80.83926392,9.739509583,0.077389129,-0.976857424,-1.732628822,-0.544545233,3.269538164,95.655185,4.962054,-12.791879,105.310386,33.380763,-12.665427
590,1436030691,-147.3117218,-79.91496277,80.75939941,9.676503181,-0.062636174,-1.296155572,-0.677308679,-1.170148253,3.1999228,95.81646,4.96101,-12.813482,105.299098,33.361261,-12.612095
591,1436047358,-147.1092529,-79.8670578,80.56892395,9.674308777,-0.230292246,-1.398817301,1.024802685,0.230514318,3.697770119,95.977698,4.957172,-12.836796,105.316178,33.365103,-12.550465
592,1436064025,-146.9332428,-79.8343811,80.39701843,9.63187027,-0.195282385,-1.292716503,0.533281982,0.913976312,3.043582201,96.138229,4.953917,-12.858341,105.325066,33.380336,-12.499739
593,1436080692,-146.7703094,-79.81369781,80.22213745,9.636897087,-0.147659749,-1.066941857,-0.38255769,1.536621094,2.677564621,96.298844,4.951456,-12.876123,105.31869,33.405946,-12.455113
594,1436097359,-146.6239777,-79.7925415,80.08308411,9.703141212,-0.138460383,-0.998340189,0.710137725,1.309244394,2.379855156,96.460563,4.949148,-12.892762,105.330526,33.427767,-12.415449
595,1436114026,-146.4857635,-79.77391815,79.99054718,9.748127937,-0.229297146,-1.071581364,2.996186733,1.160229802,1.885325432,96.623032,4.945326,-12.910622,105.380462,33.447104,-12.384027
596,1436130693,-146.3731537,-79.76145935,79.93409729,9.819438934,-0.083571263,-1.179647326,3.489154339,1.269275784,1.368192077,96.786689,4.943933,-12.930283,105.438615,33.468259,-12.361224
597,1436147360,-146.2694702,-79.7556839,79.86340332,9.688128471,-0.13167958,-1.161047339,2.181894541,1.682869554,1.267610908,96.948158,4.941738,-12.949634,105.47498,33.496307,-12.340097
598,1436164027,-146.2155304,-79.7456665,79.83815765,9.663651466,-0.165822402,-1.145477176,1.83207655,1.202708364,1.011804223,97.109219,4.938974,-12.968725,105.505515,33.516352,-12.323234
599,1436180694,-146.1635437,-79.73402405,79.81334686,9.614162445,-0.039138142,-1.045295835,1.855947495,1.104778171,1.053475976,97.269455,4.938322,-12.986147,105.536447,33.534765,-12.305676
600,1436197361,-146.1170959,-79.71221161,79.79793549,9.629700661,-0.10245838,-1.021070719,2.014297962,0.555962086,1.311229467,97.42995,4.936614,-13.003165,105.570019,33.544031,-12.283822
601,1436214028,-146.0900421,-79.6861496,79.78839874,9.81554985,0.002968441,-1.020090222,1.227514148,0.293060511,1.40509975,97.593542,4.936663,-13.020167,105.590478,33.548915,-12.260404
602,1436230695,-146.0537109,-79.65699005,79.75604248,9.733994484,-0.138758555,-1.011186957,0.396868825,0.276604354,1.716499209,97.755775,4.93435,-13.03702,105.597092,33.553525,-12.231796
603,1436247362,-146.0706024,-79.62361908,79.77787781,9.839463234,-0.198102817,-1.157835364,0.429243207,-0.263164073,1.370305061,97.919766,4.931048,-13.056317,105.604246,33.549139,-12.208958
604,1436264029,-146.1007233,-79.60342407,79.82109833,9.660386086,-0.158869117,-1.134647131,0.857359588,0.265104264,0.739105701,98.080772,4.9284,-13.075228,105.618535,33.553557,-12.19664
605,1436280696,-146.1145325,-79.58372498,79.85374451,9.648029327,-0.152385145,-1.292879343,1.245494246,0.340584844,0.815866828,98.241572,4.92586,-13.096776,105.639293,33.559233,-12.183042
606,1436297363,-146.0940704,-79.57170105,79.83763123,9.66875267,-0.07554967,-1.123785496,0.39232251,1.026608229,0.998254895,98.402718,4.924601,-13.115506,105.645832,33.576343,-12.166404
607,1436314030,-146.1040955,-79.55516815,79.83476257,9.668375969,-0.121162817,-1.155915856,-0.600816369,0.711764157,1.026595473,98.563858,4.922582,-13.134771,105.635818,33.588206,-12.149294
608,1436330697,-146.0589752,-79.53458405,79.78478241,9.80569458,-0.232471198,-1.031363606,-0.113329798,0.801882446,1.589831591,98.727286,4.918707,-13.15196,105.633929,33.601571,-12.122797
609,1436347364,-146.0485992,-79.51463318,79.78233337,9.809829712,-0.225666732,-1.114008546,0.580102026,0.534127176,1.143952727,98.890783,4.914946,-13.170527,105.643597,33.610473,-12.103731
610,1436364031,-146.0588226,-79.49760437,79.7980957,9.754073143,-0.173307285,-1.076830149,0.568166494,0.561584055,0.861406386,99.053351,4.912058,-13.188474,105.653066,33.619833,-12.089374
611,1436380698,-146.0969238,-79.48345184,79.84379578,9.681229591,-0.15105252,-1.176253557,0.55004549,0.523818016,0.504672527,99.214705,4.90954,-13.208078,105.662233,33.628563,-12.080963
612,1436397365,-146.1039429,-79.46987152,79.85422516,9.620764732,-0.103968486,-1.207316756,0.360242605,0.761286199,0.804149091,99.375051,4.907807,-13.2282,105.668237,33.641251,-12.067561
613,1436414032,-146.097641,-79.45378113,79.84092712,9.661944389,-0.120778643,-1.113978982,-0.142669141,0.777243018,1.090588808,99.536083,4.905794,-13.246766,105.665859,33.654205,-12.049385
614,1436430699,-146.1087341,-79.43573761,79.84780121,9.742793083,-0.173846751,-1.092898369,-0.068981402,0.553797841,0.983130634,99.698463,4.902897,-13.264981,105.664709,33.663435,-12.032999
615,1436447366,-146.0891724,-79.41716003,79.83663177,9.79132843,-0.24979569,-0.9189592,0.647143304,0.63938266,1.17217803,99.861652,4.898734,-13.280297,105.675495,33.674091,-12.013463
616,1436464033,-146.1309204,-79.39363861,79.88957214,9.874007225,-0.196989149,-0.968228936,0.803329468,-0.009342232,0.74105221,100.026219,4.895451,-13.296434,105.688884,33.673935,-12.001112
617,1436480700,-146.2134247,-79.37065887,79.98748779,9.767085075,-0.142727479,-1.213801026,0.962051392,-0.266852289,0.313332945,100.189004,4.893072,-13.316664,105.704918,33.669487,-11.99589
618,1436497367,-146.2095642,-79.3571167,80.00714111,9.62638855,-0.139716461,-1.300994992,1.515067935,0.690915346,0.716438413,100.349444,4.890743,-13.338347,105.730169,33.681002,-11.983949
619,1436514034,-146.1760559,-79.34815216,79.99695587,9.615001678,-0.173341453,-1.219882488,1.513146877,1.095749617,0.84487319,100.509694,4.887854,-13.358678,105.755388,33.699264,-11.969868
620,1436530701,-146.107254,-79.35020447,79.95368958,9.730740547,-0.12239749,-1.256365061,1.612063169,1.852656007,0.787744105,100.671873,4.885814,-13.379617,105.782256,33.730142,-11.956739
621,1436547368,-145.9969482,-79.35488129,79.87752533,9.682875633,-0.184823155,-1.104808927,2.241649151,2.187260628,0.992005467,100.833254,4.882734,-13.39803,105.819617,33.766596,-11.940206
622,1436564035,-145.9118805,-79.35681915,79.83724213,9.765234947,-0.112272225,-1.108675599,2.810686588,1.822522879,0.759173214,100.996008,4.880863,-13.416508,105.866462,33.796971,-11.927553
623,1436580702,-145.8287354,-79.3587265,79.79440308,9.757630348,-0.111734562,-1.013493299,2.554988384,1.83451581,0.783819079,101.158635,4.879001,-13.4334,105.909045,33.827546,-11.914489
624,1436597369,-145.7940521,-79.349617,79.79644012,9.66321373,-0.163834125,-1.047836185,2.371505499,1.003172636,0.732292712,101.319689,4.87627,-13.450864,105.94857,33.844266,-11.902284
625,1436614036,-145.7990723,-79.33483887,79.83412933,9.640089035,-0.099217646,-1.096070766,2.062590837,0.4963229,0.600861132,101.480357,4.874616,-13.469132,105.982947,33.852538,-11.89227
626,1436630703,-145.8197937,-79.31504059,79.88239288,9.620360374,-0.072721384,-1.174611449,1.730329633,0.177521586,0.675470769,101.640696,4.873404,-13.488709,106.011786,33.855497,-11.881012
627,1436647370,-145.8557129,-79.28865814,79.93989563,9.647963524,-0.125972822,-1.187633276,1.43164742,-0.216830716,0.80518645,101.801495,4.871304,-13.508503,106.035647,33.851883,-11.867592
628,1436664037,-145.9525299,-79.25905609,80.04988861,9.661808014,-0.108328395,-1.147040248,0.854746938,-0.704125166,0.426041663,101.962525,4.869499,-13.52762,106.049893,33.840148,-11.860491
629,1436680704,-146.1001587,-79.22121429,80.20715332,9.631248474,-0.057731949,-1.211708069,0.567206025,-1.414237142,0.25850898,102.123046,4.868537,-13.547815,106.059346,33.816577,-11.856183
630,1436697371,-146.2212067,-79.17955017,80.32603455,9.683726311,-0.129878551,-0.989628375,-0.054023586,-1.371220708,0.728578806,102.284441,4.866372,-13.564309,106.058446,33.793723,-11.84404
631,1436714038,-146.2904358,-79.13307953,80.39984131,9.801757813,-0.313165456,-0.747496128,0.315138638,-1.338487625,1.314968705,102.447804,4.861153,-13.576767,106.063698,33.771415,-11.822124
632,1436730705,-146.3727112,-79.08326721,80.49972534,9.917037964,-0.304604709,-1.087067008,1.181757212,-1.680737376,1.154057026,102.613088,4.856076,-13.594885,106.083394,33.743403,-11.80289
633,1436747372,-146.4293365,-79.04497528,80.57793427,9.827133179,-0.155714005,-1.331381559,1.390615821,-0.972610176,0.973487437,102.776874,4.853481,-13.617075,106.106571,33.727193,-11.786665
634,1436764039,-146.4186096,-79.01880646,80.5823822,9.666995049,-0.240952343,-1.252815366,1.150010347,0.094037034,1.262834311,102.937991,4.849465,-13.637955,106.125738,33.72876,-11.765618
635,1436780706,-146.4204102,-79.00215912,80.60219574,9.714969635,-0.22207956,-1.288083315,1.363760948,0.458825856,0.7957865,103.099907,4.845764,-13.659423,106.148467,33.736407,-11.752355
636,1436797373,-146.3581085,-79.00019836,80.56507111,9.698835373,-0.273409367,-1.273064494,1.766021252,1.565601945,0.858230293,103.261554,4.841207,-13.680641,106.177901,33.7625,-11.738051
637,1436814040,-146.2460785,-79.00765991,80.49724579,9.744430542,-0.213474616,-1.169077158,2.901291609,2.228240967,0.843042016,103.423961,4.837649,-13.700126,106.226256,33.799637,-11.724
638,1436830707,-146.1241608,-79.0171051,80.42758942,9.734835625,-0.263786137,-1.122232676,3.331674099,2.340052843,0.799129009,103.586208,4.833253,-13.71883,106.281784,33.838638,-11.710681
639,1436847374,-146.0426636,-79.0290451,80.39377594,9.78783226,-0.200078353,-1.122877121,3.226330042,2.222849607,0.34665513,103.749339,4.829918,-13.737545,106.335556,33.875685,-11.704903
640,1436864041,-145.9731445,-79.04163361,80.37483978,9.648117065,-0.203449741,-1.032819748,3.278387547,2.16505456,0.195002317,103.910141,4.826527,-13.754759,106.390196,33.911769,-11.701653
641,1436880708,-145.9103241,-79.04614258,80.36339569,9.750797272,-0.113581859,-1.042349935,3.273636341,1.708111048,0.404014766,104.072654,4.824634,-13.772131,106.444757,33.940238,-11.694919
642,1436897375,-145.892746,-79.04679108,80.39107513,9.601940155,-0.16447331,-1.129813194,2.88295269,1.263922811,0.160770923,104.232686,4.821893,-13.790961,106.492806,33.961303,-11.692239
643,1436914042,-145.850769,-79.04657745,80.38406372,9.672264099,-0.169614345,-1.195471048,2.277327299,1.440214872,0.521551371,104.39389,4.819066,-13.810886,106.530761,33.985307,-11.683546
644,1436930709,-145.8833771,-79.04273224,80.4413681,9.705477715,-0.209202856,-1.099513173,1.623409629,0.843016386,0.03437224,104.555648,4.815579,-13.829211,106.557818,33.999357,-11.682973
645,1436947376,-145.9341278,-79.03382111,80.51859283,9.715869904,-0.165247023,-1.021971107,1.771169305,0.465152204,0.004712737,104.717579,4.812825,-13.846244,106.587337,34.00711,-11.682894
646,1436964043,-146.0074921,-79.020401,80.62443542,9.726082802,-0.131629378,-1.033299208,1.964250326,0.056437574,-0.097629189,104.87968,4.810631,-13.863466,106.620075,34.008051,-11.684521
647,1436980710,-146.0887146,-79.00388336,80.74156952,9.666049004,-0.149319038,-1.193826556,2.200399876,-0.180319831,-0.105697222,105.040781,4.808142,-13.883363,106.656748,34.005046,-11.686283
648,1436997377,-146.1584778,-78.98797607,80.84165192,9.687350273,-0.203042611,-1.223864913,1.89784956,-0.042549092,0.028558159,105.202237,4.804758,-13.903761,106.688379,34.004337,-11.685807
649,1437014044,-146.2491302,-78.97637939,80.95481873,9.688169479,-0.18650417,-1.221945167,1.375158548,0.088056453,-0.235527977,105.363706,4.80165,-13.924127,106.711298,34.005805,-11.689732
