PacketCounter,SampleTimeFine,Euler_X,Euler_Y,Euler_Z,Acc_X,Acc_Y,Acc_Z,Gyr_X,Gyr_Y,Gyr_Z,Velo_X,Velo_Y,Velo_Z,ANG_X,ANG_Y,ANG_Z
0,2283354212,-100.7790756,-0.216473103,101.25457,0.0,0.0,0.0,0.0,0.0,0.0,0.0,0.0,0.0,0.0,0.0,0.0
1,2283370879,-100.6366882,-0.174752384,101.2166367,0.115151674,-9.687962532,-1.596551538,1.444511414,0.298932195,3.855908632,0.001919,-0.161466,-0.026609,0.024075,0.004982,0.064265
2,2283387546,-100.3978271,-0.186915293,101.2316284,0.138241366,-9.860592842,-1.500597358,0.625263751,0.46368596,3.77615118,0.004223,-0.325809,-0.051619,0.034496,0.01271,0.127201
3,2283404213,-100.102829,-0.211157486,101.184021,0.114267707,-10.08483791,-1.32220006,1.379621744,0.598088562,4.035031319,0.006127,-0.49389,-0.073656,0.05749,0.022678,0.194452
4,2283420880,-99.73230743,-0.210921854,101.1759491,0.059014775,-10.21778202,-1.17753613,3.302315712,0.325121194,4.35148859,0.007111,-0.664186,-0.093282,0.112529,0.028097,0.266977
5,2283437547,-99.32926941,-0.171374813,101.0809174,0.108628169,-10.08642197,-1.057677984,4.457846165,0.122652814,4.916978836,0.008921,-0.832293,-0.11091,0.186826,0.030141,0.348927
6,2283454214,-98.93802643,-0.123001553,100.9591141,0.190453082,-10.02872181,-0.934867263,4.611458778,-0.144391626,5.222705841,0.012095,-0.999438,-0.126491,0.263684,0.027734,0.435972
7,2283470881,-98.58235168,-0.074512266,100.8527908,0.382251561,-9.758526802,-0.886254907,3.587769985,-0.264476776,5.871193409,0.018466,-1.16208,-0.141262,0.32348,0.023326,0.533825
8,2283487548,-98.29129028,-0.043866899,100.7335129,0.542722881,-9.803242683,-0.854807019,1.557438135,0.136253178,6.580601692,0.027511,-1.325467,-0.155509,0.349437,0.025597,0.643502
9,2283504215,-98.07065582,-0.036638845,100.6149673,0.680368841,-9.769386292,-0.868759632,-0.980044544,0.727458417,6.971784592,0.03885,-1.48829,-0.169988,0.333103,0.037721,0.759698
10,2283520882,-97.89387512,-0.051381808,100.468689,0.77112633,-9.73626709,-0.944231808,-1.90340817,1.476015329,7.176661015,0.051702,-1.650561,-0.185725,0.30138,0.062321,0.879309
11,2283537549,-97.7495575,-0.082397722,100.3237305,0.837116539,-9.71423912,-1.070238113,-2.042267323,2.506465435,7.309628487,0.065654,-1.812465,-0.203562,0.267342,0.104095,1.001136
12,2283554216,-97.61952209,-0.126179323,100.1647339,0.868555784,-9.68776226,-1.13706398,-1.007578254,3.719471455,7.285106182,0.08013,-1.973928,-0.222513,0.250549,0.166086,1.122554
13,2283570883,-97.50192261,-0.182354406,100.0048218,0.862313807,-9.597340584,-1.166553378,-0.108585075,4.659585476,6.903860569,0.094502,-2.133884,-0.241956,0.248739,0.243746,1.237618
14,2283587550,-97.40302277,-0.243413344,99.82566833,0.824647605,-9.434630394,-1.174741268,0.116973236,5.418239594,6.643743992,0.108246,-2.291128,-0.261535,0.250689,0.33405,1.348347
15,2283604217,-97.3353653,-0.303447932,99.64967346,0.743746579,-9.342123032,-1.08457303,-0.66473937,5.760029316,6.441288471,0.120642,-2.44683,-0.279611,0.23961,0.43005,1.455702
16,2283620884,-97.30686188,-0.355511934,99.55778503,0.67331326,-9.239964485,-0.97130239,-2.320709705,5.794311047,6.410552502,0.131864,-2.600829,-0.295799,0.200932,0.526622,1.562545
17,2283637551,-97.31892395,-0.396340251,99.50170898,0.601801455,-9.201746941,-0.956181765,-4.372857094,5.506872654,6.445616245,0.141894,-2.754191,-0.311735,0.128051,0.618403,1.669972
18,2283654218,-97.37451172,-0.426188946,99.38816071,0.530394077,-9.302014351,-0.958416522,-6.687555313,5.258269787,6.425786495,0.150734,-2.909225,-0.327709,0.016592,0.706041,1.777068
19,2283670885,-97.45696259,-0.447163403,99.15803528,0.493017226,-9.370601654,-0.909070432,-8.084070206,5.232126236,6.302034378,0.158951,-3.065402,-0.34286,-0.118143,0.793243,1.882102
20,2283687552,-97.55741119,-0.463827848,99.07357025,0.507208109,-9.459226608,-0.858124018,-9.059387207,5.107199192,5.944863319,0.167404,-3.223056,-0.357162,-0.269133,0.878363,1.981183
21,2283704219,-97.65885925,-0.477512628,98.98758698,0.5670771,-9.476881027,-0.946241081,-9.101456642,5.010998249,5.625921249,0.176855,-3.381004,-0.372933,-0.420824,0.96188,2.074948
22,2283720886,-97.76296997,-0.493015975,98.86965179,0.588362515,-9.481111526,-0.982879579,-9.155243874,5.176495075,5.185267448,0.186661,-3.539023,-0.389314,-0.573411,1.048155,2.161369
23,2283737553,-97.88008881,-0.513287067,98.79046631,0.600491047,-9.512346268,-1.000625253,-9.820541382,5.444110394,4.647836685,0.196669,-3.697562,-0.405991,-0.737087,1.13889,2.238833
24,2283754220,-98.016716,-0.547386467,98.66969299,0.589660108,-9.497896194,-1.040093064,-10.88921928,5.639874458,3.593623877,0.206497,-3.85586,-0.423326,-0.918574,1.232888,2.298727
25,2283770887,-98.16007233,-0.591655195,98.57103729,0.634982944,-9.536679268,-1.07451117,-11.18476391,5.713830471,2.75937891,0.21708,-4.014805,-0.441235,-1.104987,1.328119,2.344717
26,2283787554,-98.30255127,-0.642565191,98.46057892,0.66338855,-9.570013046,-1.194846511,-11.0296669,5.732009411,2.186249971,0.228136,-4.174305,-0.461149,-1.288815,1.423652,2.381154
27,2283804221,-98.45738983,-0.699239194,98.36685181,0.641323745,-9.564214706,-1.243975878,-11.61686993,5.644888401,1.680270791,0.238825,-4.333709,-0.481882,-1.482429,1.517733,2.409159
28,2283820888,-98.63259125,-0.757105827,98.2631073,0.607597947,-9.606239319,-1.313631296,-12.69374561,5.903129101,1.496986389,0.248952,-4.493813,-0.503776,-1.693991,1.616118,2.434109
29,2283837555,-98.82717896,-0.813548982,98.14703369,0.593055904,-9.641670227,-1.453547478,-13.71847916,6.674271584,1.543428898,0.258836,-4.654508,-0.528002,-1.922632,1.727356,2.459833
30,2283854222,-99.03569031,-0.875705361,98.00797272,0.516977251,-9.859045982,-1.594872713,-14.39573193,8.277090073,1.294780612,0.267452,-4.818825,-0.554583,-2.162561,1.865308,2.481413
31,2283870889,-99.2793808,-0.956813872,97.83509064,0.445446759,-10.06816006,-1.720584631,-16.35054016,10.46825027,0.323354334,0.274876,-4.986628,-0.583259,-2.43507,2.039779,2.486802
32,2283887556,-99.53582764,-1.0564152,97.62304688,0.422439426,-10.38391399,-1.790882587,-16.9806881,12.96096611,-0.568762898,0.281917,-5.159693,-0.613107,-2.718081,2.255795,2.477323
33,2283904223,-99.75551605,-1.144735694,97.39077759,0.454740107,-10.75741482,-1.78139925,-14.66550064,14.0844183,0.140012026,0.289496,-5.338983,-0.642797,-2.962506,2.490535,2.479657
34,2283920890,-99.90354919,-1.190140247,97.16862488,0.3908104,-11.11243343,-1.903309703,-10.28787994,13.08398819,2.434156179,0.29601,-5.52419,-0.674519,-3.133971,2.708601,2.520226
35,2283937557,-100.0122375,-1.181096673,96.96237946,0.313840687,-11.19476891,-2.305534124,-7.82601738,11.60281754,5.316188335,0.301241,-5.710769,-0.712945,-3.264405,2.901981,2.608829
36,2283954224,-100.1695633,-1.124090791,96.77106476,0.087031476,-11.09483433,-2.609286785,-10.51108932,10.25473213,7.815723419,0.302692,-5.895683,-0.756433,-3.43959,3.072893,2.739091
37,2283970891,-100.412323,-1.038626313,96.59200287,-0.228301436,-11.2174139,-2.968946218,-15.31806183,9.249181747,9.141812325,0.298887,-6.08264,-0.805915,-3.694891,3.227046,2.891455
38,2283987558,-100.6952133,-0.954330802,96.40751648,-0.468259484,-11.61166763,-3.529548407,-17.36371994,9.608377457,8.848230362,0.291083,-6.276168,-0.864741,-3.984286,3.387186,3.038926
39,2284004225,-100.9502869,-0.896198332,96.19857788,-0.712207854,-11.80501747,-3.793910742,-15.25999355,11.37900352,7.26559782,0.279213,-6.472918,-0.927973,-4.238619,3.576836,3.160019
40,2284020892,-101.1651688,-0.894856095,95.95775604,-0.970311582,-11.64647579,-3.635917187,-12.43268871,13.96022511,3.949463844,0.263041,-6.667026,-0.988572,-4.44583,3.809506,3.225843
41,2284037559,-101.3194046,-0.952950895,95.68885803,-0.949955642,-10.95163059,-3.113259077,-8.493533134,16.38255501,0.41710332,0.247208,-6.849553,-1.04046,-4.587389,4.082549,3.232795
42,2284054226,-101.3816147,-1.068467498,95.39844513,-0.691412568,-10.06807137,-2.649634123,-2.842270374,18.39873123,-3.026746035,0.235684,-7.017354,-1.084621,-4.63476,4.389195,3.182349
43,2284070893,-101.3578796,-1.233513117,95.08513641,-0.300078005,-9.476802826,-2.419654369,2.320507526,20.38501549,-5.906027794,0.230683,-7.175301,-1.124949,-4.596085,4.728945,3.083915
44,2284087560,-101.3187027,-1.430077672,94.74598694,0.058035616,-9.025690079,-2.375669479,3.189857006,22.30168152,-7.58536911,0.23165,-7.325729,-1.164543,-4.542921,5.10064,2.957492
45,2284104227,-101.2674332,-1.638553381,94.37863922,0.333412558,-8.994852066,-2.671247959,3.842842579,24.10102463,-7.994356632,0.237207,-7.475643,-1.209064,-4.478874,5.502324,2.824253
46,2284120894,-101.1462479,-1.838278174,93.98742676,0.436792791,-9.129554749,-2.964667082,8.026432037,25.39025879,-7.201041222,0.244487,-7.627802,-1.258475,-4.3451,5.925495,2.704236
47,2284137561,-100.978447,-2.021569729,93.58152771,0.447269917,-9.375366211,-3.306403875,10.87679291,26.045681,-6.076990128,0.251941,-7.784058,-1.313582,-4.16382,6.35959,2.602953
48,2284154228,-100.7392044,-2.179089069,93.17098999,0.398487151,-9.697809219,-3.715244293,15.29054356,26.00679016,-4.55812788,0.258582,-7.945688,-1.375503,-3.908978,6.793037,2.526984
49,2284170895,-100.4613266,-2.320901155,92.76714325,0.167914212,-9.75908947,-4.134771347,17.82995796,25.42293167,-3.803735733,0.261381,-8.108339,-1.444416,-3.611812,7.216753,2.463588
50,2284187562,-100.1507339,-2.458331585,92.36859131,-0.02512064,-10.0031929,-4.464225769,20.0773983,25.06711578,-3.762449026,0.260962,-8.275059,-1.51882,-3.277189,7.634538,2.400881
51,2284204229,-99.83407593,-2.613549471,91.9832077,-0.291113198,-9.746816635,-4.398196697,20.78234863,24.48996735,-5.156450748,0.25611,-8.437506,-1.592123,-2.930817,8.042704,2.31494
52,2284220896,-99.59069061,-2.797089815,91.6236496,-0.394260854,-9.306844711,-4.024169922,16.73000908,23.2595253,-7.326412678,0.249539,-8.59262,-1.659192,-2.651984,8.430363,2.192833
53,2284237563,-99.41816711,-3.009289265,91.30123901,-0.28137967,-8.794668198,-3.543152332,12.78154945,21.36577034,-9.598081589,0.244849,-8.739198,-1.718245,-2.438958,8.786459,2.032865
54,2284254230,-99.28970337,-3.233987808,91.01835632,0.038753398,-8.445830345,-3.148583412,10.37215424,19.15379333,-10.8742342,0.245495,-8.879962,-1.770721,-2.266089,9.105689,1.851628
55,2284270897,-99.19307709,-3.448225737,90.76430511,0.374471873,-8.367444038,-2.821733236,8.609596252,17.35201836,-10.60484791,0.251736,-9.019419,-1.81775,-2.122596,9.394889,1.674881
56,2284287564,-99.11003113,-3.630882978,90.53459167,0.606017947,-8.368804932,-2.536897421,7.88646841,15.60482597,-8.978434563,0.261836,-9.158899,-1.860032,-1.991155,9.654969,1.52524
57,2284304231,-99.07790375,-3.76590085,90.32304382,0.736699998,-8.04432869,-2.445133686,4.870489597,14.07017136,-6.29914856,0.274114,-9.292971,-1.900784,-1.90998,9.889472,1.420254
58,2284320898,-99.14189148,-3.855788708,90.12345886,0.907330811,-8.430900574,-2.496550083,-0.872093797,12.93075848,-3.675290585,0.289236,-9.433486,-1.942393,-1.924515,10.104985,1.358999
59,2284337565,-99.2133255,-3.911009073,89.9323349,1.053846121,-8.680549622,-2.528870821,-1.302957058,12.09534073,-1.614100337,0.3068,-9.578162,-1.984541,-1.946231,10.306574,1.332097
60,2284354232,-99.28244019,-3.935599327,89.75158691,1.005560875,-9.014436722,-2.418879271,-1.130007029,11.17588139,0.200054467,0.323559,-9.728403,-2.024856,-1.965064,10.492839,1.335431
61,2284370899,-99.35556793,-3.940741301,89.5891571,0.985484719,-9.204964638,-2.416714668,-1.323370337,9.890982628,1.254043102,0.339984,-9.881819,-2.065135,-1.98712,10.657689,1.356332
62,2284387566,-99.42357635,-3.936524153,89.43893433,0.981513321,-9.509746552,-2.551636219,-0.998312831,9.062569618,1.755853295,0.356343,-10.040315,-2.107662,-2.003759,10.808732,1.385596
63,2284404233,-99.4600296,-3.927464247,89.28988647,0.919060707,-9.488433838,-2.539180994,0.881704569,8.936849594,2.087986231,0.371661,-10.198456,-2.149982,-1.989064,10.957679,1.420396
64,2284420900,-99.46271515,-3.91130352,89.14599609,0.892438829,-9.369387627,-2.405554771,2.914393187,8.551430702,2.497264385,0.386535,-10.354612,-2.190075,-1.940491,11.100203,1.462017
65,2284437567,-99.47173309,-3.896283627,89.01343536,0.994722366,-9.232133865,-2.36518836,2.551038265,7.883206367,2.350298882,0.403114,-10.508481,-2.229495,-1.897974,11.23159,1.501189
66,2284454234,-99.45791626,-3.880512238,88.89045715,1.100344062,-9.232508659,-2.355420828,3.930974483,7.301785469,2.344292641,0.421453,-10.662356,-2.268752,-1.832458,11.353286,1.540261
67,2284470901,-99.44147491,-3.862144947,88.78099823,1.179705381,-9.073919296,-2.309661627,4.117357731,6.464850903,2.415572643,0.441115,-10.813588,-2.307246,-1.763835,11.461034,1.580521
68,2284487568,-99.40070343,-3.834346533,88.68596649,1.265992045,-9.008416176,-2.296950102,5.60896349,5.50799799,2.889048576,0.462215,-10.963728,-2.345529,-1.670352,11.552834,1.628672
69,2284504235,-99.32598114,-3.78790307,88.60778809,1.385497332,-9.331315994,-2.188486576,7.692405224,4.316201687,3.890646935,0.485307,-11.11925,-2.382004,-1.542145,11.624771,1.693516
70,2284520902,-99.18733978,-3.723958015,88.55749512,1.391019702,-9.470540047,-2.070527315,11.60353184,2.49045229,4.725161552,0.508491,-11.277092,-2.416513,-1.348753,11.666279,1.772269
71,2284537569,-98.9881897,-3.645533323,88.53913116,1.322609782,-9.68947506,-2.153446674,15.30944061,0.459287316,5.341660976,0.530534,-11.438583,-2.452404,-1.093596,11.673934,1.861297
72,2284554236,-98.75979614,-3.533368826,88.55149841,1.364667535,-9.664532661,-2.130475283,17.14708328,-1.665717483,7.112399101,0.553278,-11.599659,-2.487912,-0.807811,11.646172,1.979837
73,2284570903,-98.50473022,-3.396786213,88.58849335,1.260729671,-9.997361183,-2.271887779,18.8020916,-3.3329916,8.404947281,0.57429,-11.766282,-2.525777,-0.494443,11.590622,2.119919
74,2284587570,-98.21097565,-3.233146191,88.64709473,0.974791288,-10.1945858,-2.196274996,21.17926979,-4.827471256,9.881090164,0.590537,-11.936192,-2.562382,-0.141455,11.510164,2.284604
75,2284604237,-97.91504669,-3.052800179,88.72427368,0.802086413,-9.998747826,-2.202368021,21.34403038,-6.028877735,10.75479603,0.603905,-12.102838,-2.599088,0.214279,11.409683,2.463851
76,2284620904,-97.62397003,-2.862662554,88.81755066,0.684991241,-10.357234,-2.272772551,21.08184624,-7.018964767,11.23303795,0.615322,-12.275459,-2.636968,0.565643,11.2927,2.651068
77,2284637571,-97.25743866,-2.658944607,88.94007111,0.559334338,-10.7253561,-2.043154955,25.67738533,-8.814476013,11.83955765,0.624644,-12.454215,-2.671021,0.993599,11.145792,2.848394
78,2284654238,-96.80760193,-2.432269335,89.12610626,0.443463564,-11.2783947,-1.838412404,30.7997303,-12.68485546,12.77555752,0.632035,-12.642188,-2.701661,1.506928,10.934378,3.06132
79,2284670905,-96.18022156,-2.148071766,89.40787506,0.347209364,-12.41446114,-1.947436333,41.59814835,-18.66799927,15.63647652,0.637822,-12.849096,-2.734118,2.20023,10.623245,3.321928
80,2284687572,-95.24110413,-1.785827041,89.8092804,-0.097099893,-13.19266033,-1.692125916,60.43156815,-26.07538223,19.78323174,0.636204,-13.068974,-2.76232,3.207423,10.188655,3.651649
81,2284704239,-94.14052582,-1.372573972,90.35166931,-0.703154624,-12.78802395,-1.426758528,70.15272522,-34.4145813,22.50922012,0.624485,-13.282108,-2.786099,4.376635,9.615079,4.026803
82,2284720906,-92.97662354,-0.940368056,91.03188324,-0.797356427,-12.65398598,-1.228344321,73.84607697,-42.30312729,23.66265869,0.611196,-13.493008,-2.806571,5.607403,8.910027,4.421181
83,2284737573,-91.72432709,-0.526428819,91.8024292,-1.398816943,-12.29172039,-0.877879798,78.89124298,-47.18292999,23.08909225,0.587882,-13.69787,-2.821202,6.922257,8.123645,4.805999
84,2284754240,-90.27377319,-0.207757711,92.61819458,-1.746904731,-12.49397182,-0.992185235,90.47394562,-49.25613403,18.2476387,0.558767,-13.906103,-2.837738,8.430156,7.302709,5.110126
85,2284770907,-88.31692505,0.01837321,93.3895874,-1.337765455,-11.03617096,-0.646748602,120.6162415,-46.11284637,13.91521931,0.536471,-14.090039,-2.848517,10.440427,6.534162,5.342046
86,2284787574,-85.93593597,0.156411529,94.07868958,-1.129917145,-9.970015526,-0.463816881,145.9276886,-40.90431976,9.973294258,0.517639,-14.256206,-2.856247,12.872555,5.852423,5.508268
87,2284804241,-82.79320526,0.238398209,94.64938354,-0.751383185,-9.929628372,-0.644828916,191.5993347,-33.65222549,7.769088268,0.505116,-14.4217,-2.866994,16.065877,5.291553,5.637753
88,2284820908,-78.78829193,0.361310869,95.12824249,-0.81492871,-9.089208603,-0.460549742,243.3753815,-27.29041862,11.31888199,0.491534,-14.573187,-2.87467,20.122133,4.836713,5.826401
89,2284837575,-74.09624481,0.605676651,95.57165527,-1.348591805,-8.591324806,0.246802926,284.6313171,-22.60712814,19.87227821,0.469057,-14.716376,-2.870557,24.865988,4.459928,6.157606
90,2284854242,-69.06438446,0.980630875,96.04864502,-1.948019981,-8.277915001,1.32869482,304.9360962,-20.32599449,29.68051147,0.43659,-14.854341,-2.848412,29.948256,4.121161,6.652281
91,2284870909,-64.13008881,1.469623446,96.59126282,-2.32068038,-7.666226864,2.568221092,298.8304443,-18.62943649,39.02684784,0.397912,-14.982111,-2.805608,34.928763,3.81067,7.302728
92,2284887576,-59.77738571,2.010706425,97.18082428,-2.470010042,-7.272840977,3.933436155,263.5440674,-16.53599358,44.33348846,0.356745,-15.103325,-2.740051,39.321164,3.53507,8.041619
93,2284904243,-56.38272858,2.501002073,97.75666809,-2.315881491,-6.721068382,4.805691719,205.7066803,-14.50683403,42.16159058,0.318147,-15.215343,-2.659956,42.749609,3.293289,8.744312
94,2284920910,-53.98755646,2.911382914,98.27185059,-1.797098398,-6.292479515,5.043413639,145.528717,-12.19428921,36.69018936,0.288195,-15.320218,-2.575899,45.175088,3.090051,9.355815
95,2284937577,-52.3429985,3.240411758,98.70378113,-1.405045152,-6.406192303,5.028316498,100.4564056,-9.875919342,30.10946846,0.264778,-15.426988,-2.492094,46.849361,2.925452,9.857639
96,2284954244,-50.91490936,3.534444809,99.08560944,-0.990858316,-6.941871643,4.798875809,87.43399048,-8.040967941,26.80036163,0.248264,-15.542686,-2.412113,48.306594,2.791436,10.304312
97,2284970911,-49.07702637,3.891626596,99.48752594,-0.37362653,-7.026425838,4.635753155,111.8050308,-5.767351151,30.67754555,0.242037,-15.659793,-2.33485,50.170011,2.695313,10.815604
98,2284987578,-46.93625259,4.26956892,99.8795166,-0.430503309,-5.741179943,5.085897923,129.8938446,-3.394644976,31.40746117,0.234862,-15.755479,-2.250085,52.334908,2.638736,11.339062
99,2285004245,-44.92750168,4.619494438,100.2622299,-0.845572352,-5.732745647,5.366309643,121.8228302,-2.993989706,29.93003654,0.220769,-15.851025,-2.160647,54.365289,2.588836,11.837896
100,2285020912,-43.11981964,4.936211586,100.6603546,-1.142971873,-4.351182938,6.352222443,109.5105591,-4.061455727,29.28850365,0.201719,-15.923545,-2.054777,56.190465,2.521145,12.326038
101,2285037579,-41.84309006,5.22441864,101.0933151,-1.455553293,-3.766470909,6.945690632,77.19574738,-5.928068638,29.73056984,0.17746,-15.98632,-1.939015,57.477061,2.422344,12.821547
102,2285054246,-40.90401077,5.497638702,101.5922012,-1.624452949,-4.32030201,6.953633308,56.24863052,-8.638109207,32.15396118,0.150386,-16.058325,-1.823121,58.414538,2.278376,13.357446
103,2285070913,-40.01135254,5.780231953,102.123764,-1.74018991,-4.781157494,6.892430305,52.97746658,-8.971776009,34.08282852,0.121383,-16.138011,-1.708247,59.297496,2.128846,13.925493
104,2285087580,-38.92175293,6.097878456,102.6655426,-1.925566912,-5.482208729,6.890137672,64.46073151,-7.154810429,35.98246002,0.08929,-16.229381,-1.593411,60.371842,2.009599,14.525201
105,2285104247,-37.54839706,6.448564529,103.1895599,-2.092654705,-5.582743645,7.088520527,81.36367798,-4.189861774,36.47009659,0.054412,-16.322427,-1.475269,61.727903,1.939768,15.133036
106,2285120914,-36.08430099,6.828691006,103.6624374,-2.05561614,-4.808684826,7.194839001,86.92835999,-0.063028403,35.12031555,0.020152,-16.402572,-1.355355,63.176709,1.938718,15.718375
107,2285137581,-34.71613693,7.223937511,104.0859222,-2.133567333,-3.892073631,7.732055664,81.27747345,3.234626293,33.17874908,-0.015407,-16.46744,-1.226487,64.531334,1.992628,16.271354
108,2285154248,-33.65708923,7.61680603,104.4649048,-2.238023281,-3.173891783,8.299333572,62.77457428,5.296926022,30.7693634,-0.052707,-16.520338,-1.088165,65.577577,2.08091,16.784177
109,2285170915,-32.88661575,7.982271194,104.8329315,-2.31656456,-3.025865316,8.599843979,45.2215271,4.764279842,29.1648407,-0.091316,-16.570769,-0.944834,66.331269,2.160315,17.270258
110,2285187582,-32.34562302,8.305702209,105.1903229,-2.134454489,-2.892699957,8.739364624,31.22801399,3.311345339,27.14615631,-0.12689,-16.618981,-0.799178,66.851736,2.215504,17.722694
111,2285204249,-32.03269196,8.582209587,105.5349197,-2.117383957,-2.864262819,8.724197388,17.35896111,1.548292756,24.91576958,-0.16218,-16.666719,-0.653775,67.141052,2.241309,18.137957
112,2285220916,-32.13433456,8.772841454,105.8400879,-1.960750461,-2.496679306,8.881838799,-7.420951843,-1.513924241,20.14038658,-0.194859,-16.70833,-0.505744,67.017369,2.216077,18.47363
113,2285237583,-32.54014969,8.937872887,106.1204453,-1.452102184,-3.52850914,7.850969791,-25.69875145,-2.086936235,18.01828766,-0.219061,-16.767138,-0.374895,66.589056,2.181295,18.773935
114,2285254250,-32.97714996,9.103777885,106.3538208,-1.158156872,-3.539974689,7.482924461,-27.27355385,-0.626021326,15.67556477,-0.238364,-16.826138,-0.25018,66.134497,2.170861,19.035194
115,2285270917,-33.51760483,9.278253555,106.5410233,-1.175391316,-3.742161274,7.793725967,-33.16337204,1.221244454,13.66624165,-0.257954,-16.888507,-0.120285,65.581774,2.191215,19.262965
116,2285287584,-34.21287918,9.458907127,106.6777267,-1.102380276,-3.77341485,7.984361649,-42.07704926,3.10509944,11.40301609,-0.276327,-16.951397,0.012788,64.88049,2.242967,19.453015
117,2285304251,-35.09365463,9.655899048,106.7745438,-1.112700224,-4.234332561,7.851551056,-52.93287277,5.153546333,10.06884003,-0.294872,-17.021969,0.143647,63.998275,2.328859,19.620829
118,2285320918,-36.04887009,9.864296913,106.8224258,-1.207126498,-4.732468605,7.627200603,-56.99018097,7.288974762,8.20603466,-0.314991,-17.100843,0.270767,63.048439,2.450342,19.757596
119,2285337585,-36.95809555,10.07298088,106.8205566,-1.341114521,-5.267495155,7.405786991,-53.76163483,8.959467888,5.992052555,-0.337343,-17.188635,0.394197,62.152412,2.599666,19.857464
120,2285354252,-37.78775406,10.266119,106.7469711,-1.440716624,-5.141710758,7.198369503,-48.2354126,10.73554134,2.209985256,-0.361355,-17.27433,0.51417,61.348488,2.778592,19.894297
121,2285370919,-38.59925842,10.45073986,106.5831909,-1.311378479,-5.105172634,7.025840282,-46.17011642,13.61912632,-2.117732763,-0.383211,-17.359416,0.631267,60.578986,3.005577,19.859001
122,2285387586,-39.39412689,10.66590214,106.3348846,-1.044030547,-5.395464897,7.206427574,-44.22244644,18.23811913,-4.623942852,-0.400612,-17.44934,0.751374,59.841945,3.309546,19.781935
123,2285404253,-40.14758301,10.97273731,106.0183029,-1.107751012,-6.164246082,7.874054909,-40.91559219,25.13999367,-3.908037186,-0.419075,-17.552077,0.882608,59.160018,3.728546,19.716801
124,2285420920,-40.8616066,11.37752438,105.6631241,-1.656596661,-7.185768127,8.804883957,-37.99392319,31.16912842,-1.436365962,-0.446685,-17.67184,1.029356,58.526786,4.248031,19.692862
125,2285437587,-41.64411545,11.86573982,105.2842026,-2.152418375,-7.708331585,9.119515419,-41.65885544,35.88592911,1.281148195,-0.482559,-17.800312,1.181348,57.832472,4.84613,19.714214
126,2285454254,-42.51535034,12.41625214,104.8801498,-2.749131918,-8.085097313,8.755907059,-46.46550751,39.62218094,3.258938313,-0.528378,-17.935064,1.32728,57.058047,5.5065,19.76853
127,2285470921,-43.36775589,12.97594452,104.4554977,-3.4852314,-8.575460434,8.052110672,-44.81141663,40.75823593,3.388706446,-0.586465,-18.077988,1.461482,56.31119,6.185804,19.825008
128,2285487588,-43.97164536,13.49497032,104.0364227,-4.036002636,-8.982300758,7.339934826,-29.67681122,38.65354919,2.473720789,-0.653732,-18.227693,1.583814,55.816576,6.83003,19.866237
129,2285504255,-44.27755737,13.92491627,103.6138306,-4.282421589,-8.465158463,6.969182968,-11.43488789,34.84654999,-1.082071185,-0.725106,-18.368779,1.699967,55.625995,7.410806,19.848202
130,2285520922,-44.46754456,14.22706509,103.1972809,-4.078766346,-7.538617611,6.744087696,-4.315990448,29.03290367,-6.060809612,-0.793085,-18.494423,1.812368,55.554062,7.894688,19.747189
131,2285537589,-44.68550873,14.41336441,102.7916565,-3.534752607,-6.376617432,6.280874252,-5.995441914,23.58556366,-10.41381073,-0.851998,-18.6007,1.917049,55.454138,8.287781,19.573625
132,2285554256,-44.95495224,14.5312376,102.4087906,-2.953519344,-5.591844559,5.895277977,-9.343385696,19.73849487,-12.29821491,-0.901223,-18.693897,2.015304,55.298415,8.616756,19.368655
133,2285570923,-45.33061981,14.63482952,102.0641251,-2.696816921,-5.701106071,5.72621727,-16.25581169,17.60615921,-11.24928474,-0.94617,-18.788915,2.110741,55.027485,8.910192,19.181167
134,2285587590,-45.79522324,14.75514984,101.7569962,-2.82093358,-6.546161652,5.758839607,-22.1183548,16.81615829,-8.885296822,-0.993186,-18.898018,2.206722,54.658846,9.190461,19.033079
135,2285604257,-46.21496582,14.91613483,101.5197678,-3.096916676,-7.78608799,5.556132317,-20.42118645,15.64009857,-4.180623055,-1.044801,-19.027786,2.299324,54.318493,9.451129,18.963402
136,2285620924,-46.416008,15.13745117,101.3942871,-3.69406271,-8.358551979,5.638175488,-8.895421028,13.44483566,3.009648561,-1.106369,-19.167095,2.393294,54.170236,9.67521,19.013563
137,2285637591,-46.55993271,15.3766222,101.3827896,-4.363534927,-8.360890388,5.696123123,-7.129268169,9.338909149,8.361618042,-1.179095,-19.306443,2.488229,54.051415,9.830858,19.152923
138,2285654258,-46.72667694,15.5910387,101.4791031,-4.792229652,-8.991930962,5.4018116,-10.12041187,3.699462652,11.5472641,-1.258965,-19.456309,2.578259,53.882741,9.892516,19.345377
139,2285670925,-46.91669464,15.76786709,101.6886749,-4.861803532,-8.42898941,4.835595608,-13.2362833,-2.731617451,14.34196663,-1.339995,-19.596792,2.658852,53.662136,9.846989,19.58441
140,2285687592,-47.02664185,15.91803455,102.0139008,-4.805569172,-7.919290066,4.450113773,-10.23151588,-8.825261116,17.65426254,-1.420088,-19.72878,2.733021,53.491611,9.699901,19.878648
141,2285704259,-47.10690308,16.07029533,102.4602737,-4.569487095,-6.807454109,4.35692358,-10.38302803,-13.96778011,22.4138031,-1.496246,-19.842238,2.805636,53.318561,9.467105,20.252211
142,2285720926,-47.25461197,16.26309395,103.0305252,-4.356261253,-6.09046793,4.353721619,-16.5073719,-17.66291809,28.93074226,-1.56885,-19.943746,2.878198,53.043438,9.172723,20.73439
143,2285737593,-47.50498962,16.5201416,103.7213821,-4.182317734,-5.936846256,4.250311852,-24.81014442,-20.31168747,36.30187225,-1.638555,-20.042693,2.949037,52.629936,8.834195,21.339421
144,2285754260,-47.78388977,16.85616493,104.5322189,-4.233560085,-6.28256321,4.194722176,-28.77322006,-22.40854836,44.23776627,-1.709114,-20.147402,3.018949,52.150382,8.460719,22.076717
145,2285770927,-48.06896591,17.26628876,105.4571457,-4.344537258,-6.679576874,4.308020115,-31.42432404,-24.50875664,51.67809677,-1.781523,-20.258728,3.090749,51.626643,8.05224,22.938019
146,2285787594,-48.37131882,17.73604584,106.4876709,-4.424685001,-6.804077625,4.33706522,-34.74155045,-26.87898445,58.09724045,-1.855268,-20.372129,3.163033,51.047617,7.604257,23.906306
147,2285804261,-48.646698,18.26229286,107.619072,-4.503914356,-7.044975281,4.280196667,-35.47603607,-29.18686676,64.13471985,-1.930333,-20.489545,3.23437,50.45635,7.117809,24.975218
148,2285820928,-48.81450272,18.83859444,108.853363,-4.745124817,-7.119066715,4.44338131,-31.572752,-31.7760067,69.94192505,-2.009418,-20.608196,3.308426,49.930137,6.588209,26.140917
149,2285837595,-48.88010025,19.44660187,110.1831818,-4.837515831,-7.374745369,4.560283661,-28.0246048,-34.63366318,74.63896179,-2.090043,-20.731108,3.384431,49.46306,6.010981,27.3849
150,2285854262,-48.81579971,20.07132912,111.6040039,-4.876964569,-7.353408337,4.6366539,-22.8694706,-37.69911194,78.51864624,-2.171326,-20.853665,3.461709,49.081902,5.382662,28.693544
151,2285870929,-48.64928818,20.70914841,113.1143188,-4.951989174,-7.154213905,4.688511848,-19.48248863,-40.63108826,82.2274704,-2.253859,-20.972902,3.539851,48.757194,4.705477,30.064002
152,2285887596,-48.37479019,21.36259842,114.7160645,-5.066222668,-7.01921463,4.755536079,-15.93769836,-43.32274628,86.17033386,-2.338296,-21.089889,3.61911,48.491566,3.983431,31.500174
153,2285904263,-47.96941376,22.02590942,116.4159698,-5.17625618,-6.964212418,5.022740364,-11.30993748,-46.2516861,90.1745224,-2.424567,-21.205959,3.702822,48.303067,3.21257,33.003083
154,2285920930,-47.47197723,22.6840744,118.2335434,-5.217007637,-6.570121765,5.396646023,-9.598421097,-50.29860687,94.32730103,-2.511517,-21.315461,3.792766,48.143093,2.37426,34.575205
155,2285937597,-47.01308823,23.34705162,120.1745453,-5.061419487,-5.901011944,5.342657566,-16.03888893,-53.99926376,99.17354584,-2.595874,-21.413811,3.88181,47.875778,1.474272,36.228097
156,2285954264,-46.53577423,24.03608131,122.2306747,-4.866605282,-6.936208248,5.053896427,-19.0702858,-56.35072708,104.6233902,-2.676984,-21.529414,3.966042,47.55794,0.535093,37.97182
157,2285970931,-45.97789001,24.79137802,124.4083557,-4.601951122,-6.622262955,5.234354496,-18.71698761,-57.01214981,112.1040955,-2.753683,-21.639785,4.053281,47.24599,-0.415109,39.840222
158,2285987598,-45.40074921,25.63701057,126.7129059,-4.557073116,-7.198813915,5.626430511,-22.52939224,-56.48695755,120.7755051,-2.829634,-21.759765,4.147055,46.8705,-1.356558,41.853147
159,2286004265,-44.83765793,26.56642914,129.1510925,-4.570351601,-7.187118053,6.078557014,-28.89549446,-56.15951538,129.2987518,-2.905807,-21.87955,4.248364,46.388908,-2.29255,44.008126
160,2286020932,-44.38047791,27.54064751,131.708252,-4.70051384,-6.933193207,6.338346004,-40.7497673,-56.74919891,135.416153,-2.984149,-21.995103,4.354003,45.709745,-3.23837,46.265062
161,2286037599,-44.15148926,28.49674225,134.3504486,-4.71511364,-6.068358421,6.291593075,-59.22336197,-58.97294617,137.3474274,-3.062734,-22.096242,4.458863,44.722689,-4.221252,48.554186
162,2286054266,-44.30184555,29.37141228,137.0043793,-4.643869877,-5.728978634,6.028998375,-84.66912079,-61.90182114,133.5239868,-3.140132,-22.191725,4.559346,43.311537,-5.252949,50.779586
163,2286070933,-44.86326981,30.15631676,139.5792847,-4.332717419,-5.775411606,5.375092506,-109.1048431,-62.82001495,125.5939407,-3.212344,-22.287982,4.648931,41.493123,-6.299949,52.872818
164,2286087600,-45.6119957,30.89092827,142.0035706,-3.794428349,-5.934565067,5.093577385,-117.608757,-60.0562439,116.5159912,-3.275584,-22.386891,4.733824,39.532977,-7.300886,54.814751
165,2286104267,-46.23023224,31.62542915,144.2909698,-3.476742744,-5.394120693,5.522000313,-107.1815872,-55.63933563,110.259903,-3.33353,-22.476793,4.825857,37.746617,-8.228208,56.652416
166,2286120934,-46.87026978,32.38640976,146.4598694,-3.320797682,-4.327341557,6.167628765,-106.3414154,-50.58843613,106.0354614,-3.388877,-22.548915,4.928651,35.97426,-9.071349,58.419674
167,2286137601,-47.68011856,33.18493652,148.5355835,-3.284141779,-4.164656162,6.509311676,-115.1423874,-46.10737991,103.2180023,-3.443613,-22.618326,5.03714,34.05522,-9.839805,60.139974
168,2286154268,-48.66542816,34.01914597,150.5343781,-3.270109653,-4.466490746,6.734117031,-124.7536545,-42.54597855,100.8838654,-3.498115,-22.692768,5.149375,31.975992,-10.548905,61.821372
169,2286170935,-49.6872139,34.87666321,152.4898987,-3.445602655,-4.96505928,6.505792618,-127.0947952,-40.85967636,99.17230988,-3.555542,-22.775519,5.257805,29.857745,-11.2299,63.474244
170,2286187602,-50.47986603,35.74522018,154.4304962,-3.560510397,-5.492041588,6.038033485,-114.3994141,-40.50058365,97.95013428,-3.614884,-22.867053,5.358439,27.951088,-11.90491,65.106746
171,2286204269,-50.84608459,36.60565948,156.3750916,-3.773765326,-5.656014919,6.084550381,-90.47344971,-41.0021553,96.69979095,-3.67778,-22.96132,5.459848,26.443197,-12.588279,66.718409
172,2286220936,-50.81098938,37.4330864,158.3498993,-3.960918665,-5.394278049,6.427789211,-68.94877625,-42.69849396,95.38132477,-3.743795,-23.051225,5.566978,25.294051,-13.299921,68.308098
173,2286237603,-50.56104279,38.21414185,160.3547363,-4.068330288,-5.208127975,6.465945244,-58.57992935,-44.36730957,93.65736389,-3.811601,-23.138027,5.674744,24.317719,-14.039376,69.869054
174,2286254270,-50.22780609,38.94721603,162.383728,-4.172663212,-5.397960186,6.12514925,-55.82500076,-45.65842438,91.82030487,-3.881145,-23.227993,5.77683,23.387302,-14.80035,71.399392
175,2286270937,-49.65145111,39.64549255,164.4259949,-4.284072399,-6.261623859,5.720635891,-42.99433899,-45.8418541,90.43266296,-3.952546,-23.332353,5.872174,22.67073,-15.564381,72.906603
176,2286287604,-48.57792282,40.31835938,166.484024,-4.419213295,-6.599225998,5.915095329,-14.92677212,-45.21285248,89.89378357,-4.0262,-23.44234,5.970759,22.42195,-16.317929,74.404833
177,2286304271,-47.17322922,40.96117783,168.5432129,-4.527077198,-5.813085079,6.845642567,3.80795908,-43.6533432,89.04640961,-4.101651,-23.539225,6.084853,22.485416,-17.045485,75.88894
178,2286320938,-45.75904465,41.55746841,170.6072693,-4.611413002,-5.049455166,7.31778574,3.125251293,-42.69762802,87.70412445,-4.178508,-23.623383,6.206816,22.537504,-17.757112,77.350675
179,2286337605,-44.47047424,42.1051178,172.6728668,-4.522255898,-4.599382877,6.747863293,-5.46437788,-41.93486023,86.15658569,-4.253879,-23.700039,6.31928,22.446431,-18.456026,78.786618
180,2286354272,-43.14395523,42.63722229,174.7210846,-4.332412243,-5.087964058,6.063599586,-3.398732185,-39.36933136,85.38470459,-4.326086,-23.784838,6.42034,22.389785,-19.112182,80.209696
181,2286370939,-41.77224731,43.16591644,176.7333069,-4.317511559,-4.826637268,5.794610977,-0.056311194,-35.74339294,84.50401306,-4.398045,-23.865282,6.516917,22.388846,-19.707905,81.618096
182,2286387606,-40.35343552,43.69824982,178.6765747,-4.270660877,-4.811692715,5.77545929,4.808276176,-30.87998962,82.73516846,-4.469223,-23.945477,6.613175,22.468984,-20.222571,82.997015
183,2286404273,-39.13392258,44.2284584,-179.5107574,-4.333590984,-5.055771828,5.534957409,-2.472049475,-24.83522415,78.52012634,-4.54145,-24.02974,6.705424,22.427783,-20.636491,84.305684
184,2286420940,-37.92142487,44.77068329,-177.7874756,-4.472220421,-4.699269772,5.56398344,0.179126307,-19.64081383,76.03019714,-4.615987,-24.108061,6.798157,22.430768,-20.963838,85.572854
185,2286437607,-36.8235321,45.30788422,-176.1486206,-4.660485268,-4.37594986,5.902508736,-3.76390481,-15.63498306,72.9228363,-4.693662,-24.180993,6.896532,22.368036,-21.224421,86.788235
186,2286454274,-35.90129089,45.82672501,-174.579071,-4.725720406,-4.206587315,5.857949257,-11.94441319,-13.00841045,69.74352264,-4.772424,-24.251103,6.994164,22.168962,-21.441228,87.950627
187,2286470941,-35.08662033,46.32566452,-173.0711975,-4.831979752,-4.573006153,5.477807999,-16.28750229,-10.97414589,66.73009491,-4.852957,-24.32732,7.085461,21.897504,-21.62413,89.062795
188,2286487608,-34.18117142,46.81378937,-171.6173248,-4.860705853,-4.79585886,5.268238544,-8.973885536,-8.83015728,64.30381775,-4.933969,-24.407251,7.173265,21.747939,-21.771299,90.134525
189,2286504275,-33.27104187,47.30100632,-170.2190857,-4.95578289,-4.621683598,5.322410583,-6.694490433,-6.211915493,62.15675735,-5.016565,-24.484279,7.261972,21.636364,-21.874831,91.170471
190,2286520942,-32.48403549,47.79122162,-168.8915863,-5.115958214,-4.252702713,5.307713509,-11.37125206,-3.222093821,59.57846451,-5.101831,-24.555157,7.350434,21.446843,-21.928533,92.163445
191,2286537609,-31.78799057,48.30117035,-167.6030731,-5.297680378,-4.269646168,5.220819473,-15.50443745,-0.278951496,58.55678177,-5.190126,-24.626318,7.437448,21.188436,-21.933182,93.139391
192,2286554276,-31.17004013,48.83625793,-166.3198547,-5.447320938,-4.186760902,5.258490086,-20.363657,2.115227938,58.78931808,-5.280915,-24.696097,7.52509,20.849042,-21.897928,94.119213
193,2286570943,-30.55815697,49.38551331,-164.9999695,-5.533543587,-4.394790649,4.932264805,-22.81142426,3.066870928,60.03375626,-5.373141,-24.769344,7.607294,20.468852,-21.846813,95.119776
194,2286587610,-29.62763977,49.94489288,-163.6270599,-5.439221859,-4.878622532,4.318063259,-6.549134731,3.698626041,61.65120697,-5.463795,-24.850654,7.679262,20.3597,-21.785169,96.147296
195,2286604277,-28.34601021,50.5137825,-162.2634125,-5.84423399,-4.518075466,4.42458868,14.5181427,5.892086029,61.09708023,-5.561199,-24.925955,7.753005,20.601669,-21.686968,97.165581
196,2286620944,-27.22465324,51.04186249,-160.9493103,-5.84222126,-3.629071474,4.644997597,6.791090965,6.186278343,57.70889664,-5.658569,-24.98644,7.830422,20.714854,-21.583863,98.127396
197,2286637611,-26.16444397,51.54299164,-159.6580353,-6.437093735,-3.590313196,4.537590981,3.802336931,6.493518353,55.65967178,-5.765854,-25.046279,7.906049,20.778226,-21.475638,99.055057
198,2286654278,-25.20645905,52.01618195,-158.3568268,-6.938407421,-4.075323582,4.332319736,-3.145061493,6.026783466,54.73110962,-5.881494,-25.114201,7.978254,20.725808,-21.375192,99.967242
199,2286670945,-24.13964844,52.46683502,-157.008606,-7.519515514,-4.321419716,4.300671577,0.838863432,5.232232094,55.25019836,-6.006819,-25.186225,8.049932,20.739789,-21.287988,100.888079
200,2286687612,-22.95492172,52.89018631,-155.6314697,-8.000396729,-4.172116756,4.509693623,6.242484093,4.562426567,55.08277893,-6.140159,-25.25576,8.125094,20.84383,-21.211948,101.806125
201,2286704279,-21.80394936,53.30289841,-154.2201996,-8.33242321,-3.450546503,4.374133587,2.295857906,4.776334286,55.50683975,-6.279033,-25.313269,8.197996,20.882094,-21.132342,102.731239
202,2286720946,-20.72018814,53.72650909,-152.7796478,-8.64751339,-3.389876842,4.082448959,-3.455045223,6.217720032,56.20830917,-6.423158,-25.369767,8.266037,20.82451,-21.028713,103.668044
203,2286737613,-19.50440598,54.17370224,-151.2970428,-9.063174248,-3.707784176,4.101738453,2.103096485,8.277981758,57.51466751,-6.574211,-25.431563,8.334399,20.859562,-20.890747,104.626622
204,2286754280,-18.06120682,54.62770844,-149.7948303,-9.39963913,-3.848465443,4.186672688,14.45484066,9.890675545,57.62162781,-6.730872,-25.495704,8.404177,21.100476,-20.725902,105.586982
205,2286770947,-16.47530746,55.07557297,-148.3099365,-9.668720245,-3.391543388,4.33085537,23.5295372,11.34221172,56.18873215,-6.892017,-25.55223,8.476358,21.492635,-20.536865,106.523461
206,2286787614,-14.8033762,55.50095367,-146.8209381,-9.906984329,-2.897009373,4.279135704,28.16329765,11.6869812,55.14675522,-7.057133,-25.600513,8.547677,21.962023,-20.342082,107.442574
207,2286804281,-13.1570282,55.89731216,-145.3243561,-9.825910568,-2.388637304,3.975393295,25.94070435,11.58148479,54.15701294,-7.220898,-25.640324,8.613934,22.394368,-20.149057,108.345191
208,2286820948,-11.5993557,56.28286362,-143.8589478,-9.970977783,-2.729767561,3.916924953,21.86911774,12.70917702,52.20544815,-7.387081,-25.68582,8.679216,22.758853,-19.937237,109.215282
209,2286837615,-10.16279697,56.63788986,-142.4927673,-10.20920277,-2.582977057,4.263197899,19.29893303,12.89989567,47.87888336,-7.557234,-25.72887,8.750269,23.080502,-19.722239,110.013263
210,2286854282,-8.826229095,56.94870758,-141.2332764,-10.36019802,-2.337990761,4.387155056,18.43520546,12.01194954,43.32799911,-7.729904,-25.767837,8.823388,23.387755,-19.52204,110.735396
211,2286870949,-7.56075573,57.21725845,-140.1052094,-10.34979057,-2.395705938,4.337449551,20.61729813,11.0685482,38.17932892,-7.902401,-25.807765,8.895679,23.731377,-19.337564,111.371718
212,2286887616,-6.324176311,57.43978882,-139.1223907,-10.4816761,-2.445157766,4.188903809,26.0993576,9.691203117,32.74419403,-8.077096,-25.848518,8.965494,24.166366,-19.176044,111.917455
213,2286904283,-5.147603989,57.62630844,-138.2896881,-10.47131062,-2.207824945,4.075231075,30.02197456,8.661557198,27.3985157,-8.251618,-25.885315,9.033415,24.666732,-19.031685,112.374097
214,2286920950,-4.082643509,57.78533936,-137.5966187,-10.25758934,-2.006355047,4.01785326,30.36016655,7.853106499,22.56596184,-8.422578,-25.918754,9.100379,25.172735,-18.9008,112.750196
215,2286937617,-3.0721457,57.91041565,-137.0008392,-10.02516651,-1.85755384,4.277537346,32.0096817,6.360958099,19.16516876,-8.589664,-25.949713,9.171671,25.70623,-18.794784,113.069615
216,2286954284,-2.126873493,58.00335312,-136.4737396,-9.847847939,-1.699968338,4.460465431,31.57605743,4.81597805,16.78110886,-8.753795,-25.978046,9.246012,26.232498,-18.714518,113.3493
217,2286970951,-1.326601744,58.08924484,-136.0400391,-9.725037575,-1.752519488,4.439020634,27.62443733,4.699766636,13.73764801,-8.915879,-26.007255,9.319996,26.692905,-18.636189,113.578261
218,2286987618,-0.673956513,58.20237732,-135.7130585,-9.681775093,-1.622739673,4.530517578,24.20666313,6.536045074,10.34286976,-9.077242,-26.034301,9.395505,27.096349,-18.527255,113.750642
219,2287004285,-0.172282517,58.35157776,-135.4358673,-9.70955658,-1.179456711,4.803594589,17.68075562,8.783185005,8.73788929,-9.239068,-26.053959,9.475565,27.391028,-18.380869,113.896273
220,2287020952,0.186756507,58.51369858,-135.1533051,-9.578665733,-1.22383678,4.726309776,8.83149147,9.598220825,8.84026432,-9.398712,-26.074356,9.554337,27.53822,-18.220899,114.043611
221,2287037619,0.603522897,58.66164017,-134.8012848,-9.396682739,-1.624544621,4.587312698,8.721376419,8.799328804,10.9552927,-9.555323,-26.101432,9.630792,27.683576,-18.074244,114.226199
222,2287054286,1.086201072,58.79113388,-134.4418182,-9.156869888,-1.436860323,4.572542191,12.28428936,7.759249687,11.14547062,-9.707937,-26.12538,9.707001,27.888314,-17.944923,114.411957
223,2287070953,1.527824163,58.91669464,-134.1107941,-8.767341614,-0.820139706,4.780914307,11.26861477,7.576308727,10.21289539,-9.854059,-26.139049,9.786683,28.076124,-17.818651,114.582172
224,2287087620,1.804213643,59.0500946,-133.8207245,-8.624835014,-0.682157218,4.970952511,3.43261528,8.070923805,8.874816895,-9.997806,-26.150418,9.869532,28.133334,-17.684136,114.730086
225,2287104287,1.96977818,59.19739914,-133.5780792,-8.622376442,-1.129689813,5.108403206,-0.796407998,8.887418747,7.336734772,-10.141512,-26.169246,9.954672,28.120061,-17.536012,114.852365
226,2287120954,2.126382589,59.33864975,-133.3534851,-8.548490524,-0.945296943,5.264117718,-0.420989692,8.538841248,6.776366711,-10.283987,-26.185001,10.042407,28.113045,-17.393698,114.965304
227,2287137621,2.264650822,59.45903778,-133.106842,-8.387233734,-0.815268099,5.042729855,-2.67574048,7.346569538,7.475453377,-10.423774,-26.198589,10.126452,28.068449,-17.271255,115.089895
228,2287154288,2.466814518,59.56430435,-132.838028,-8.328865051,-1.148663402,4.522545338,-0.005429894,6.501933575,8.161764145,-10.562588,-26.217733,10.201828,28.068359,-17.162889,115.225924
229,2287170955,2.76590848,59.66588211,-132.5879211,-8.45644474,-1.149069428,4.782214165,6.767696857,6.288406849,7.588840485,-10.703529,-26.236884,10.281532,28.181154,-17.058082,115.352405
230,2287187622,3.055756092,59.77085114,-132.3990784,-8.605664253,-0.828167975,5.077103615,9.377338409,6.448525906,5.708177567,-10.846957,-26.250687,10.36615,28.337443,-16.950607,115.447541
231,2287204289,3.258539915,59.85081863,-132.2872009,-8.806556702,-1.426722288,5.435829163,8.137131691,4.858961105,3.45103097,-10.993733,-26.274466,10.456747,28.473062,-16.869624,115.505058
232,2287220956,3.345667362,59.84120178,-132.2622375,-9.349197388,-0.952797651,6.630552769,5.713643074,-0.618079424,1.172344685,-11.149553,-26.290346,10.567256,28.568289,-16.879925,115.524597
233,2287237623,3.225245953,59.76587677,-132.2887878,-8.537137985,-0.777855158,6.016067505,-4.06078434,-4.594771385,-0.134780422,-11.291839,-26.30331,10.667524,28.500609,-16.956505,115.522351
234,2287254290,3.130666733,59.67214584,-132.311264,-8.105419159,-1.205412149,5.35220623,-2.722675323,-5.646070957,0.051481534,-11.426929,-26.3234,10.756727,28.455231,-17.050606,115.523209
235,2287270957,3.126079798,59.60728073,-132.3275757,-8.035218239,-1.160814047,5.081474781,2.366024494,-3.872416258,0.166098356,-11.560849,-26.342747,10.841418,28.494665,-17.115146,115.525977
236,2287287624,3.192154169,59.5879631,-132.3608093,-8.354728699,-1.092845082,5.000015736,7.485920906,-1.148268819,-0.467098862,-11.700094,-26.360961,10.924752,28.61943,-17.134284,115.518192
237,2287304291,3.358603239,59.5945816,-132.3565216,-8.424657822,-0.60282886,5.249581337,11.57229614,0.488293499,0.61218226,-11.840505,-26.371008,11.012245,28.812302,-17.126146,115.528395
238,2287320958,3.525156498,59.61614609,-132.2707825,-8.349064827,-0.741806507,5.066943645,7.355469227,1.552437186,3.038063765,-11.979656,-26.383371,11.096694,28.934893,-17.100272,115.579029
239,2287337625,3.692765236,59.65354919,-132.1517487,-8.251561165,-1.131068468,4.874169827,5.692987442,2.590661049,3.99677372,-12.117182,-26.402222,11.17793,29.029776,-17.057094,115.645642
240,2287354292,3.889327526,59.71716309,-132.044342,-8.297470093,-1.026479244,5.141196728,8.030967712,4.162743568,3.561203957,-12.255473,-26.41933,11.263617,29.163625,-16.987715,115.704995
241,2287370959,4.046610832,59.76177216,-131.940979,-8.327297211,-0.619398892,5.40144062,5.880306244,3.045568466,3.527586937,-12.394261,-26.429653,11.353641,29.26163,-16.936956,115.763788
242,2287387626,4.121703625,59.75359726,-131.8139801,-8.117870331,-0.459995717,4.819770336,-0.279901981,-0.029217688,4.469006538,-12.529559,-26.43732,11.433971,29.256965,-16.937443,115.838271
243,2287404293,4.315997124,59.75604248,-131.6322937,-8.035360336,-0.871020079,4.449730873,4.0329566,0.741993546,6.079565048,-12.663482,-26.451837,11.508133,29.324181,-16.925076,115.939597
244,2287420960,4.650754452,59.79408646,-131.4356232,-8.006968498,-0.926524937,4.422198772,11.6767168,2.942612886,6.385205746,-12.796931,-26.467279,11.581836,29.518793,-16.876032,116.046017
245,2287437627,5.114360809,59.84904861,-131.230072,-8.034876823,-0.712698936,4.715637207,18.9414959,4.022231102,6.566625595,-12.930846,-26.479157,11.66043,29.834485,-16.808995,116.155461
246,2287454294,5.60959053,59.90299988,-131.0084534,-8.159761429,-0.307343602,5.277864933,19.99472237,4.072777748,7.031036854,-13.066842,-26.484279,11.748394,30.16773,-16.741115,116.272645
247,2287470961,6.012582779,59.93896866,-130.7785034,-8.170348167,-0.241063356,5.560006142,14.01661491,3.103878021,7.351953506,-13.203014,-26.488297,11.841061,30.40134,-16.689384,116.395178
248,2287487628,6.307172298,59.956604,-130.5407562,-8.196937561,-0.322501481,5.61380434,7.096641541,2.107990265,7.680778503,-13.33963,-26.493672,11.934624,30.519617,-16.654251,116.523191
249,2287504295,6.519927025,59.95360565,-130.291275,-8.12402153,-0.44331795,5.213131905,1.571313739,0.979301751,8.16160202,-13.47503,-26.501061,12.02151,30.545806,-16.637929,116.659218
250,2287520962,6.649269581,59.94728088,-130.0869446,-8.053955078,-0.478078216,5.26177597,-1.089967966,0.668863058,6.845789909,-13.609263,-26.509029,12.109206,30.52764,-16.626781,116.773314
251,2287537629,6.778941154,59.93104553,-129.8747406,-7.91803503,-0.291752368,5.083721161,-1.479588151,0.140805826,7.16214323,-13.74123,-26.513892,12.193935,30.50298,-16.624434,116.892683
252,2287554296,6.946984768,59.89295197,-129.6495667,-8.041205406,-0.274559975,5.351658821,0.146748006,-1.077392101,7.717812538,-13.87525,-26.518468,12.283129,30.505426,-16.642391,117.021313
253,2287570963,6.970967293,59.84857178,-129.4615021,-7.976490021,-0.199896649,5.323675156,-6.568563938,-1.554659128,6.668843746,-14.008192,-26.5218,12.371857,30.39595,-16.668302,117.13246
254,2287587630,6.835072517,59.79513931,-129.3309784,-8.08056736,-0.217132002,5.27320528,-13.17407894,-2.288496017,5.018588066,-14.142868,-26.525419,12.459744,30.176382,-16.706444,117.216103
255,2287604297,6.637465,59.71702194,-129.2123108,-8.120641708,-0.164659813,5.014862537,-16.2640934,-3.797445297,4.840939522,-14.278212,-26.528163,12.543325,29.905314,-16.769735,117.296785
256,2287620964,6.415421486,59.62721252,-129.0846863,-8.113300323,-0.231763959,5.022045612,-18.19267082,-4.475235462,5.188184738,-14.413434,-26.532026,12.627026,29.602103,-16.844322,117.383255
257,2287637631,6.125712872,59.55187225,-128.9680481,-8.062809944,-0.264713079,5.004122734,-21.68333626,-3.666009665,4.755428791,-14.547814,-26.536438,12.710428,29.240714,-16.905422,117.462512
258,2287654298,5.734666824,59.49609756,-128.8796539,-8.020148277,-0.296164244,5.213319778,-26.30151176,-2.610126257,3.76867485,-14.681483,-26.541374,12.797317,28.802355,-16.948924,117.525323
259,2287670965,5.250065327,59.41954422,-128.7812042,-8.032504082,-0.0988933,5.36562252,-32.43512726,-3.839018822,4.18061018,-14.815358,-26.543022,12.886744,28.26177,-17.012908,117.595
260,2287687632,4.736789703,59.33036423,-128.6668701,-8.017349243,-0.44974643,5.171944618,-34.97832108,-4.575671196,4.69701767,-14.94898,-26.550518,12.972943,27.678798,-17.089169,117.673284
261,2287704299,4.275982857,59.24149704,-128.5408478,-7.974048138,-0.429478884,5.124274731,-32.42798615,-4.562900543,5.027497768,-15.081881,-26.557676,13.058348,27.138332,-17.165217,117.757076
262,2287720966,3.812472105,59.18486023,-128.4163971,-8.015745163,-0.630933404,4.90349102,-32.50693512,-2.669346094,4.817779541,-15.215477,-26.568192,13.140073,26.59655,-17.209706,117.837372
263,2287737633,3.445596933,59.16888428,-128.2852325,-8.063503265,-1.033462644,4.702223778,-27.05566788,-0.25660792,4.864133358,-15.349869,-26.585416,13.218443,26.145622,-17.213983,117.918441
264,2287754300,3.34152317,59.18449783,-128.1338806,-8.166210175,-1.153517365,4.968628407,-12.32483959,1.648607373,5.394787312,-15.485973,-26.604641,13.301253,25.940208,-17.186506,118.008354
265,2287770967,3.381780624,59.19755936,-127.9611664,-8.236841202,-0.689317763,5.603681087,-4.768311024,1.540591478,6.085771084,-15.623254,-26.61613,13.394648,25.860736,-17.160829,118.109784
266,2287787634,3.386894941,59.15777206,-127.742363,-8.155207634,-0.403798848,5.692732334,-9.25042057,-1.515369534,7.694942474,-15.759174,-26.62286,13.489527,25.706562,-17.186085,118.238033
267,2287804301,3.378150463,59.07963943,-127.4624939,-7.934749603,-0.832128942,5.189047813,-13.22062683,-3.685305357,9.71279335,-15.89142,-26.636729,13.576011,25.486218,-17.247507,118.399913
268,2287820968,3.43206358,59.00824356,-127.1563873,-7.803719997,-0.67462647,4.966884613,-10.79934025,-3.213788033,10.53073311,-16.021482,-26.647973,13.658792,25.306229,-17.30107,118.575425
269,2287837635,3.522094965,58.97521973,-126.8511047,-7.764764309,-0.697165847,4.755148411,-8.579070091,-0.899915755,10.3907671,-16.150895,-26.659592,13.738044,25.163244,-17.316069,118.748604
270,2287854302,3.684400797,58.98623276,-126.5744324,-8.009016991,-0.922636449,4.939866543,-2.775469542,1.708053589,9.361231804,-16.284379,-26.674969,13.820375,25.116986,-17.287601,118.904625
271,2287870969,3.826815128,59.02163315,-126.3528442,-8.223259926,-0.915246606,5.202814579,-1.139682293,3.088008642,7.575470448,-16.421433,-26.690223,13.907089,25.097991,-17.236134,119.030883
272,2287887636,3.892826557,59.07034683,-126.1954803,-8.22281456,-1.018575191,5.171341896,-2.422865868,3.774966717,5.546802521,-16.55848,-26.707199,13.993278,25.05761,-17.173218,119.12333
273,2287904303,3.944483757,59.13336563,-126.0990067,-8.157940865,-1.315880656,5.037974834,-0.154489413,4.52125597,3.625131845,-16.694446,-26.72913,14.077244,25.055035,-17.097864,119.183749
274,2287920970,4.014440536,59.20598602,-126.0369873,-8.076377869,-0.928797424,5.176927567,2.718724489,5.040272713,2.54836154,-16.829052,-26.74461,14.163526,25.100347,-17.013859,119.226222
275,2287937637,4.110503674,59.2820549,-125.9653549,-8.063721657,-0.867968619,5.072521687,3.782036304,5.289573669,2.834058523,-16.963447,-26.759076,14.248068,25.163381,-16.925699,119.273456
276,2287954304,4.263991833,59.35756302,-125.8873291,-8.007897377,-0.973656714,4.903132439,6.895343304,5.289259911,3.029259443,-17.096912,-26.775304,14.329787,25.278303,-16.837545,119.323944
277,2287970971,4.436748505,59.4370575,-125.825325,-8.094908714,-0.900142908,5.011730194,8.871328354,5.515524864,2.523639917,-17.231827,-26.790306,14.413316,25.426158,-16.74562,119.366005
278,2287987638,4.583239079,59.51262665,-125.8075333,-8.115483284,-0.714748085,4.94939518,9.57868576,5.19308567,1.194775224,-17.367085,-26.802218,14.495806,25.585803,-16.659069,119.385918
279,2288004305,4.770288944,59.5961113,-125.7999268,-8.177731514,-0.811270416,4.94449234,12.53393936,5.659769535,0.84346509,-17.503381,-26.815739,14.578214,25.794702,-16.56474,119.399976
280,2288020972,4.994693279,59.67934036,-125.795105,-8.143399239,-0.549592257,5.040230751,14.9108448,5.656083584,0.757547557,-17.639104,-26.824899,14.662218,26.043216,-16.470472,119.412602
281,2288037639,5.197799206,59.7522583,-125.7768173,-8.152833939,-0.29617089,5.108383179,12.93356991,5.09345293,1.203740001,-17.774985,-26.829835,14.747358,26.258775,-16.385581,119.432664
282,2288054306,5.33863306,59.80438614,-125.7569427,-8.115263939,-0.161002532,5.021193027,9.10590744,3.876982689,1.348521948,-17.910239,-26.832518,14.831045,26.41054,-16.320965,119.455139
283,2288070973,5.443642139,59.8391304,-125.728447,-8.107946396,-0.20396018,4.999285221,6.499901772,2.877254248,1.693793535,-18.045371,-26.835917,14.914366,26.518872,-16.273011,119.483369
284,2288087640,5.534148693,59.86032486,-125.7017517,-8.188862801,-0.327584893,4.97743988,5.715654373,2.076614141,1.709058762,-18.181852,-26.841377,14.997323,26.614133,-16.238401,119.511853
285,2288104307,5.621312618,59.87424469,-125.6800003,-8.160251617,-0.426681578,4.94978857,5.762396812,1.645372629,1.603713632,-18.317856,-26.848488,15.079819,26.710173,-16.210978,119.538582
286,2288120974,5.679090977,59.88667679,-125.6673126,-8.121588707,-0.423343271,5.01448822,4.467264652,1.541948557,1.342950702,-18.453216,-26.855544,15.163394,26.784627,-16.185279,119.560965
287,2288137641,5.682890415,59.89170837,-125.6743469,-8.090665817,-0.414331913,5.0201478,2.251894236,1.054487705,0.797617853,-18.58806,-26.86245,15.247063,26.822159,-16.167704,119.574259
288,2288154308,5.647256374,59.88727188,-125.6940308,-8.13537693,-0.271203935,5.173037529,0.536131382,0.467924803,0.479271233,-18.72365,-26.86697,15.33328,26.831095,-16.159905,119.582247
289,2288170975,5.491939545,59.84918594,-125.7386627,-8.124288559,-0.179989427,5.118862629,-5.350493431,-1.601933599,-0.077299133,-18.859055,-26.86997,15.418594,26.74192,-16.186604,119.580959
290,2288187642,5.160223961,59.74377441,-125.8105164,-8.250600815,0.339721948,5.431351185,-14.52964687,-5.68295002,-0.536535263,-18.996565,-26.864308,15.509117,26.499759,-16.28132,119.572017
291,2288204309,4.537207127,59.55724335,-125.9069061,-8.200771332,0.224097177,5.23005724,-30.74712181,-10.57719994,-0.94969672,-19.133245,-26.860573,15.596285,25.987307,-16.457607,119.556189
292,2288220976,3.792350769,59.38062668,-126.0276871,-8.371501923,-0.197326705,5.166731358,-36.81163025,-10.01938057,-1.899575472,-19.27277,-26.863862,15.682397,25.37378,-16.624597,119.524529
293,2288237643,3.108581066,59.20283127,-126.178688,-8.518750191,-1.024701595,4.563200951,-31.59848785,-10.11671066,-2.976066589,-19.414749,-26.88094,15.75845,24.847139,-16.793209,119.474928
294,2288254310,2.690519094,59.06301498,-126.3360977,-8.313762665,-0.237722665,4.401390076,-15.33888245,-7.82835722,-3.389095545,-19.553312,-26.884902,15.831807,24.591491,-16.923682,119.418443
295,2288270977,2.257063389,58.93786621,-126.5026169,-8.477736473,0.925178051,4.978911877,-15.8191061,-6.946716309,-3.785849333,-19.694608,-26.869482,15.914789,24.327839,-17.039461,119.355346
296,2288287644,1.373707652,58.77318573,-126.7790909,-8.772702217,1.488227248,5.871629238,-37.19836044,-9.388635635,-7.263333321,-19.84082,-26.844678,16.012649,23.707866,-17.195938,119.23429
297,2288304311,-0.116770446,58.5206871,-127.2382736,-9.037382126,-0.751314402,6.259592056,-64.31765747,-14.56029034,-13.22149277,-19.991443,-26.8572,16.116976,22.635905,-17.43861,119.013932
298,2288320978,-1.831826687,58.18519211,-127.8640137,-9.04467392,-1.676444292,5.993328094,-69.34811401,-19.04526901,-19.09305,-20.142188,-26.885141,16.216865,21.480103,-17.756031,118.695714
299,2288337645,-3.742045164,57.73929977,-128.5659637,-8.597738266,-0.233878359,5.652600765,-77.30071259,-24.89480972,-22.64590836,-20.285484,-26.889039,16.311075,20.191758,-18.170944,118.318282
300,2288354312,-5.968467236,57.19613647,-129.1886139,-8.42202282,1.886208534,6.530276775,-100.4794769,-30.05992317,-21.82456779,-20.425851,-26.857602,16.419913,18.5171,-18.671943,117.954539
301,2288370979,-9.127591133,56.58500671,-129.7200012,-8.316008568,3.496122599,7.355518341,-161.2552185,-33.38122177,-21.21055412,-20.564451,-26.799333,16.542505,15.829513,-19.228297,117.60103
302,2288387646,-12.93626308,56.03099823,-130.0839691,-7.845690727,1.7973876,5.124789715,-208.8188019,-29.66492653,-17.50538826,-20.695213,-26.769377,16.627918,12.3492,-19.722712,117.309274
303,2288404313,-16.74752235,55.69610214,-130.3860931,-7.555929184,-2.201442242,2.788915396,-212.1681213,-16.25472832,-14.31319237,-20.821145,-26.806068,16.6744,8.813065,-19.993624,117.070721
304,2288420980,-19.8882637,55.42153168,-130.7619324,-7.819095135,-5.616814137,2.686591864,-168.3546143,-11.18235016,-16.57413864,-20.951463,-26.899682,16.719177,6.007155,-20.179997,116.794485
305,2288437647,-22.22184944,55.08647537,-131.2194672,-8.248354912,-5.548748493,4.547751427,-115.92733,-12.77777672,-21.0078907,-21.088936,-26.992161,16.794973,4.075033,-20.39296,116.444353
306,2288454314,-24.48697662,54.64219284,-131.7114716,-7.985470295,-2.963559628,5.880420208,-110.1943054,-17.40806389,-25.27709579,-21.222027,-27.041554,16.89298,2.238461,-20.683094,116.023068
307,2288470981,-27.06354141,54.20384979,-132.1398926,-7.144146442,-2.295964241,5.347667694,-132.1109161,-16.86188889,-24.02647972,-21.341096,-27.07982,16.982108,0.036612,-20.964125,115.622627
308,2288487648,-29.90604591,53.85512924,-132.634491,-7.124081135,-4.752510071,4.029644012,-144.9652557,-9.778535843,-24.44638634,-21.459831,-27.159029,17.049269,-2.379476,-21.127101,115.215187
309,2288504315,-32.84751892,53.48526382,-133.2792816,-7.004061699,-6.018815994,3.725624561,-143.7223816,-6.751925945,-30.24059868,-21.576565,-27.259343,17.111363,-4.774849,-21.239633,114.711177
310,2288520982,-35.63141632,53.0653801,-133.8856049,-7.172314167,-5.809496403,4.665647984,-136.2466278,-8.362451553,-31.21253014,-21.696104,-27.356168,17.189124,-7.045626,-21.379007,114.190968
311,2288537649,-38.38035583,52.55871964,-134.3352814,-7.342760563,-5.099165916,4.57738018,-141.780304,-14.24797249,-30.34517097,-21.818483,-27.441154,17.265414,-9.408631,-21.616473,113.685215
312,2288554316,-41.02160645,52.01263046,-134.5005035,-6.66592598,-4.330227375,4.311532021,-148.9494324,-21.1466713,-24.61622047,-21.929582,-27.513324,17.337273,-11.891122,-21.968918,113.274945
313,2288570983,-43.69380951,51.48376846,-134.3970184,-6.42152071,-4.08620882,4.027956009,-163.5158539,-25.87949371,-17.56964111,-22.036607,-27.581427,17.404406,-14.616386,-22.400243,112.982118
314,2288587650,-46.10721207,51.03770828,-134.1641388,-6.275619507,-6.560389042,2.281830072,-154.0063477,-25.00490189,-11.75115967,-22.141201,-27.690767,17.442437,-17.183158,-22.816991,112.786265
315,2288604317,-47.82795715,50.67155075,-133.9767914,-6.043354034,-8.221481323,1.407511115,-110.2281265,-20.09937286,-10.22664642,-22.241924,-27.827792,17.465896,-19.020293,-23.151981,112.615821
316,2288620984,-49.22676468,50.35042953,-133.9898682,-6.287046909,-7.222864151,2.275428295,-81.52169037,-12.33447075,-13.70277309,-22.346708,-27.948173,17.50382,-20.378988,-23.357556,112.387441
317,2288637651,-50.3182869,50.06071091,-133.9260559,-6.620298386,-7.021944523,2.673125267,-66.5941925,-13.05713463,-10.57653046,-22.457046,-28.065205,17.548372,-21.488891,-23.575175,112.211165
318,2288654318,-51.27046204,49.81285858,-133.853302,-6.093503475,-6.267558098,2.976101637,-58.59899902,-11.53796482,-8.59975338,-22.558604,-28.169664,17.597974,-22.465541,-23.767474,112.067836
319,2288670985,-52.08840942,49.62002563,-133.7105865,-6.362206459,-6.108462334,3.007192612,-53.71598053,-11.46612167,-4.479324818,-22.664641,-28.271472,17.648094,-23.360807,-23.958576,111.993181
320,2288687652,-52.73891068,49.50069809,-133.559433,-6.175762653,-6.505763054,2.510786295,-44.02695084,-8.967773438,-0.908130229,-22.76757,-28.379901,17.68994,-24.09459,-24.108039,111.978045
321,2288704319,-53.22332001,49.42939758,-133.4341888,-6.380441189,-6.578473091,2.453095913,-32.84942627,-6.406682968,0.728242278,-22.873911,-28.489542,17.730825,-24.64208,-24.214817,111.990182
322,2288720986,-53.57130432,49.39907455,-133.326416,-6.490468979,-6.663832664,2.607236862,-23.8440876,-4.383213043,2.277774096,-22.982085,-28.600606,17.774279,-25.039481,-24.287871,112.028145
323,2288737653,-53.76600266,49.37719345,-133.2150726,-6.582664967,-6.474808693,2.629355907,-14.79268932,-4.186104774,2.771238565,-23.091796,-28.708519,17.818102,-25.286026,-24.357639,112.074332
324,2288754320,-53.84649658,49.37773132,-133.122467,-6.413634777,-6.512115955,2.507811308,-7.074780464,-2.787559032,3.435785055,-23.19869,-28.817054,17.859899,-25.403939,-24.404098,112.131595
325,2288770987,-53.70677185,49.39762878,-133.076767,-6.508108139,-7.135599136,2.368607283,8.287151337,-0.597185791,3.317671299,-23.307158,-28.935981,17.899376,-25.26582,-24.414051,112.18689
326,2288787654,-53.26269531,49.43178558,-133.1143341,-6.484195232,-7.8148489,2.357347727,30.35995483,2.570338964,2.111076117,-23.415228,-29.066228,17.938665,-24.759821,-24.371212,112.222075
327,2288804321,-52.58224106,49.48570633,-133.2219086,-6.511907578,-7.803346157,2.39050293,47.76514435,5.525402546,1.442794323,-23.52376,-29.196284,17.978507,-23.963735,-24.279122,112.246122
328,2288820988,-51.71886826,49.55215073,-133.418396,-6.598464966,-7.941152096,2.401618004,62.82630157,8.779709816,-0.101895161,-23.633734,-29.328637,18.018534,-22.91663,-24.132794,112.244424
329,2288837655,-50.57297134,49.63237762,-133.6869202,-6.458889961,-8.215428352,2.324725628,83.10565186,11.51673603,-1.301311016,-23.741382,-29.465561,18.057279,-21.531536,-23.940848,112.222735
330,2288854322,-48.83810425,49.77682495,-134.043396,-6.205109119,-8.800000191,1.704725742,122.5154953,16.61295128,-0.764016747,-23.8448,-29.612228,18.085691,-19.489611,-23.663965,112.210001
331,2288870989,-46.4224205,49.98880768,-134.5252228,-5.817034721,-8.460635185,1.631519556,169.1975098,22.9079628,-1.501519561,-23.941751,-29.753239,18.112883,-16.669653,-23.282166,112.184976
332,2288887656,-43.39209366,50.29523849,-134.9799194,-5.935460091,-6.921345711,1.939521909,204.9488068,26.08525276,2.327744246,-24.040675,-29.868595,18.145208,-13.25384,-22.847412,112.223772
333,2288904323,-40.40922165,50.69296265,-135.4624023,-5.947163105,-4.363551617,3.532474041,203.4982147,30.91282463,4.010619164,-24.139794,-29.941321,18.204083,-9.862203,-22.332198,112.290616
334,2288920990,-37.85231781,51.19263458,-135.8071594,-5.833365917,-3.236101151,3.001035452,171.6403351,32.46499634,10.58591747,-24.237017,-29.995256,18.2541,-7.001531,-21.791115,112.467048
335,2288937657,-34.79759216,51.79351807,-135.8871765,-6.130616188,-3.774370193,1.812596798,189.1712036,31.90203476,20.6966877,-24.339194,-30.058162,18.28431,-3.848678,-21.259414,112.811993
336,2288954324,-31.00267029,52.47298431,-135.7691498,-6.399027824,-2.862317562,2.171603918,224.2058868,33.03063965,27.54437637,-24.445844,-30.105867,18.320503,-0.111913,-20.708903,113.271066
337,2288970991,-26.89988708,53.15787506,-135.4559937,-7.035037518,-3.146435499,3.182333946,233.2602539,31.70218086,31.55732536,-24.563095,-30.158308,18.373542,3.775758,-20.180533,113.797021
338,2288987658,-22.67598534,53.78052521,-135.0149536,-7.128365517,-1.324047327,4.199126244,234.2020264,28.6485672,31.66746902,-24.681901,-30.180375,18.443527,7.679125,-19.703057,114.324812
339,2289004325,-18.89354897,54.36125946,-134.5119171,-7.37452507,0.328501076,5.459887028,204.4981842,27.71999359,30.55537033,-24.80481,-30.1749,18.534525,11.087428,-19.241057,114.834068
340,2289020992,-16.01286697,54.89623642,-134.0178528,-7.749830246,0.076562092,6.096274376,150.616272,26.98097992,27.52503777,-24.933974,-30.173624,18.63613,13.597699,-18.791374,115.292819
341,2289037659,-13.9655323,55.37740707,-133.5585022,-7.899999142,-0.897770703,5.971374512,102.1325531,25.37994385,24.12729073,-25.065641,-30.188587,18.735653,15.299908,-18.368375,115.694941
342,2289054326,-12.46640205,55.79853439,-133.1461487,-7.775516033,-0.285509467,5.909983635,71.42362976,23.01370049,20.77607727,-25.195233,-30.193345,18.834153,16.490302,-17.984813,116.041209
343,2289070993,-11.52208233,56.19487381,-132.7657013,-7.620961666,-0.128040969,5.434154034,39.59828186,22.24868011,18.76627159,-25.322249,-30.195479,18.924722,17.150273,-17.614002,116.35398
344,2289087660,-10.86959171,56.55676651,-132.4193115,-7.914256573,-1.533252597,5.325287819,23.67955017,20.7138176,16.80080605,-25.454153,-30.221033,19.013477,17.544932,-17.268772,116.633993
345,2289104327,-10.08225536,56.83361816,-132.0788727,-8.334458351,-1.923198581,5.8881073,31.99237823,15.95207119,15.33596706,-25.593061,-30.253086,19.111612,18.078138,-17.002904,116.889592
346,2289120994,-9.172755241,57.06407547,-131.7433472,-8.23568821,-1.052465558,6.280822277,39.51626205,13.48145199,14.41644764,-25.730322,-30.270627,19.216292,18.736742,-16.778213,117.129866
347,2289137661,-8.45907402,57.26173782,-131.4157867,-8.156542778,-0.575876236,6.265772343,28.12382126,11.80416489,13.59835243,-25.866264,-30.280225,19.320722,19.205472,-16.581477,117.356505
348,2289154328,-7.91279459,57.44734192,-131.1209717,-8.077591896,-1.186782479,5.637657642,19.69249725,11.40803814,12.24255371,-26.000891,-30.300005,19.414683,19.53368,-16.391343,117.560548
349,2289170995,-7.308068752,57.6351738,-130.8685303,-8.117745399,-1.776405811,5.395068169,25.30762863,11.85251808,10.74764729,-26.136187,-30.329612,19.504601,19.955474,-16.193801,117.739675
350,2289187662,-6.541363239,57.80941772,-130.6418152,-8.211900711,-1.365831375,5.719251633,36.30442047,11.27932262,9.667557716,-26.273052,-30.352376,19.599922,20.560548,-16.005812,117.900801
351,2289204329,-5.711210728,57.96232605,-130.3968964,-8.294746399,-0.999996424,5.738082409,39.16093063,10.09450626,9.930506706,-26.411298,-30.369043,19.695557,21.21323,-15.83757,118.066309
352,2289220996,-4.909553051,58.08737183,-130.1283264,-8.236642838,-0.558329642,5.637311935,36.22840118,8.507757187,10.35113811,-26.548575,-30.378348,19.789512,21.817037,-15.695774,118.238828
353,2289237663,-4.152844906,58.20581436,-129.8466034,-8.115267754,-0.453057766,5.528608799,32.83408737,8.223736763,10.59043694,-26.683829,-30.385899,19.881655,22.364272,-15.558712,118.415335
354,2289254330,-3.503787518,58.33172226,-129.6194458,-8.334747314,-0.582883358,5.36016798,29.13263512,8.919775963,8.769211769,-26.822741,-30.395614,19.970991,22.849816,-15.410049,118.561489
355,2289270997,-2.863347769,58.43951035,-129.4103851,-8.197524071,-1.160436273,5.413551331,29.5197773,7.96133852,8.017238617,-26.959366,-30.414955,20.061217,23.341812,-15.27736,118.69511
356,2289287664,-2.232676744,58.56535339,-129.2261353,-8.129768372,-0.259478807,5.725711823,30.18964386,9.170915604,7.192892075,-27.094862,-30.41928,20.156646,23.844973,-15.124511,118.814992
357,2289304331,-1.705790401,58.67993927,-129.0362701,-8.462802887,-0.690472305,5.533517838,23.65649605,8.572756767,7.225872517,-27.235909,-30.430788,20.248871,24.239248,-14.981632,118.935423
358,2289320998,-1.227373719,58.73439026,-128.9137268,-8.697711945,-1.129588962,5.994771004,24.1873436,5.088831902,4.952073097,-27.380871,-30.449614,20.348784,24.64237,-14.896818,119.017958
359,2289337665,-0.879132628,58.77586746,-128.8358154,-8.173930168,-0.812653065,5.409781933,18.66758347,4.384579182,3.515065432,-27.517103,-30.463158,20.438947,24.953496,-14.823742,119.076542
360,2289354332,-0.512048781,58.83413696,-128.8117371,-8.382055283,-0.43832159,5.730986595,22.56037521,5.443234444,1.826854706,-27.656804,-30.470463,20.534463,25.329502,-14.733021,119.10699
361,2289370999,-0.300632864,58.92928696,-128.82164,-8.238115311,-0.190023601,5.631548405,14.959342,7.686186314,0.75583142,-27.794106,-30.47363,20.628322,25.578824,-14.604918,119.119587
362,2289387666,-0.112261273,59.04141998,-128.8190002,-8.157247543,-0.647403717,5.415389538,12.93004417,8.714165688,1.108403325,-27.93006,-30.48442,20.718578,25.794325,-14.459682,119.13806
363,2289404333,0.145139962,59.14127731,-128.7769775,-8.177230835,-0.50298214,5.216971874,15.04247761,7.992266655,2.289553881,-28.066347,-30.492803,20.805528,26.045033,-14.326478,119.176219
364,2289421000,0.503901005,59.204319,-128.7003021,-8.103510857,-0.604921103,5.097420692,19.331007,5.805971146,3.326300144,-28.201406,-30.502885,20.890485,26.367216,-14.229712,119.231657
365,2289437667,0.937940359,59.24185181,-128.6050262,-8.008323669,-0.411421716,5.197999477,22.88678551,4.304581165,3.878026009,-28.334878,-30.509742,20.977118,26.748662,-14.157969,119.296291
366,2289454334,1.291420817,59.26562881,-128.5349884,-7.991156578,-0.289308548,5.294084549,19.34749985,3.498827457,3.092506886,-28.468064,-30.514564,21.065353,27.07112,-14.099655,119.347833
367,2289471001,1.520748258,59.27839279,-128.4707184,-8.09265995,0.105500489,5.494071484,12.19359779,2.855369091,2.909373522,-28.602942,-30.512806,21.156921,27.274347,-14.052066,119.396323
368,2289487668,1.626728654,59.25095749,-128.4332733,-8.305422783,-0.235400602,5.779383659,6.179859161,0.437196076,2.129837751,-28.741366,-30.516729,21.253244,27.377345,-14.044779,119.43182
369,2289504335,1.609045625,59.22150421,-128.4481354,-8.048140526,-0.218835711,5.357701778,1.458297491,0.289666831,0.517824769,-28.875502,-30.520376,21.342539,27.40165,-14.039951,119.44045
370,2289521002,1.454069376,59.19968796,-128.5053864,-8.07177639,-0.124370217,5.345582485,-4.593491554,0.719383955,-0.807037115,-29.010032,-30.522449,21.431632,27.325092,-14.027961,119.426999
371,2289537669,1.302817464,59.17182159,-128.5624847,-8.070886612,-0.539973974,5.155683994,-4.378330708,0.36582616,-0.808765769,-29.144547,-30.531449,21.51756,27.25212,-14.021864,119.41352
372,2289554336,1.175100088,59.13301086,-128.6114044,-8.077533722,-0.490193546,5.192928791,-3.393893957,-0.273165852,-0.543571889,-29.279173,-30.539619,21.604109,27.195555,-14.026417,119.40446
373,2289571003,1.126150489,59.11233139,-128.6571808,-7.953984261,-0.883489966,4.917577744,1.169360518,0.8187356,-0.476069629,-29.411739,-30.554344,21.686069,27.215044,-14.012771,119.396526
374,2289587670,1.111469269,59.10450363,-128.6956482,-7.802114487,-0.528103769,4.844349384,2.846518517,1.598398805,-0.257734179,-29.541774,-30.563146,21.766808,27.262486,-13.986131,119.39223
375,2289604337,1.187710643,59.10519409,-128.6945801,-7.808273315,-0.407214642,5.096823215,6.264751434,2.132628679,0.949526846,-29.671912,-30.569933,21.851755,27.366899,-13.950587,119.408055
376,2289621004,1.270519257,59.09778214,-128.6575165,-7.903011799,-0.318234563,5.447823048,4.804136753,1.677337527,2.064115047,-29.803629,-30.575237,21.942552,27.446968,-13.922631,119.442457
377,2289637671,1.236494184,59.08155441,-128.6235046,-7.871949196,-0.248094082,5.480375767,-2.046870947,1.161331058,1.973471284,-29.934828,-30.579372,22.033892,27.412853,-13.903275,119.475348
378,2289654338,1.100503087,59.05572128,-128.5898285,-7.899907112,-0.362579405,5.381904602,-8.139698029,0.591730297,1.96378994,-30.066493,-30.585415,22.12359,27.277191,-13.893413,119.508078
379,2289671005,0.931987107,59.02927399,-128.5604858,-7.935279369,-0.527448952,5.239581585,-9.865330696,0.556666613,1.823240638,-30.198748,-30.594206,22.210916,27.112769,-13.884135,119.538465
380,2289687672,0.763800383,59.01210403,-128.5327148,-7.94324255,-0.483045548,5.119571686,-9.765126228,1.116131306,1.765336633,-30.331135,-30.602257,22.296242,26.950017,-13.865533,119.567887
381,2289704339,0.627761543,59.00521088,-128.5088806,-8.016888618,-0.627003491,5.108883381,-7.630709648,1.726962209,1.634116173,-30.46475,-30.612707,22.38139,26.822839,-13.83675,119.595122
382,2289721006,0.487964034,59.00290298,-128.4957733,-8.112323761,-0.419375896,5.351373672,-7.304647446,1.998482227,1.304211736,-30.599955,-30.619697,22.47058,26.701095,-13.803442,119.616859
383,2289737673,0.244284898,58.98793411,-128.5009613,-8.154314995,-0.550944269,5.443228722,-12.60055161,1.237631917,0.744804919,-30.73586,-30.628879,22.5613,26.491086,-13.782815,119.629272
384,2289754340,-0.0634204,58.95528412,-128.5274658,-8.120788574,-0.673871577,5.36014843,-15.34094524,0.180973098,0.083247751,-30.871206,-30.64011,22.650636,26.235404,-13.779799,119.630659
385,2289771007,-0.308897972,58.90682983,-128.5516968,-8.057284355,-0.862776995,5.048838615,-11.72079849,-0.761107266,0.142169744,-31.005494,-30.65449,22.734783,26.040057,-13.792484,119.633028
386,2289787674,-0.427473783,58.86973572,-128.5674438,-7.943042755,-0.804350972,4.869044304,-4.54714489,-0.076895736,0.410187483,-31.137878,-30.667896,22.815934,25.964271,-13.793766,119.639864
387,2289804341,-0.487349272,58.84644318,-128.5842896,-7.992816925,-0.54512465,5.072638512,-0.969677687,0.747980475,0.385266244,-31.271092,-30.676981,22.900478,25.94811,-13.7813,119.646285
388,2289821008,-0.553847492,58.82719803,-128.5944824,-8.030085564,-0.519056678,5.210658073,-1.713137388,0.991787672,0.592959583,-31.404927,-30.685632,22.987322,25.919558,-13.76477,119.656168
389,2289837675,-0.653556287,58.79584122,-128.5949249,-7.998220921,-0.400528342,5.219184875,-4.20552206,0.263170511,0.883586943,-31.538231,-30.692307,23.074308,25.849466,-13.760384,119.670894
390,2289854342,-0.796659172,58.75730515,-128.5895233,-7.976206779,-0.599868596,5.108751774,-7.110822201,-0.168397114,1.051644683,-31.671168,-30.702305,23.159454,25.730952,-13.763191,119.688421
391,2289871009,-0.962949753,58.71854401,-128.5965424,-7.99763155,-0.596508384,5.207508564,-7.865289688,-0.177483231,0.660365939,-31.804462,-30.712247,23.246246,25.599864,-13.766149,119.699427
392,2289887676,-1.201358318,58.67881775,-128.6346283,-8.160368919,-0.575340807,5.289989948,-10.599576,-0.212611079,-0.316739559,-31.940468,-30.721836,23.334412,25.423204,-13.769693,119.694148
393,2289904343,-1.516097546,58.60713577,-128.7008667,-8.173370361,-0.531505585,5.179961681,-13.74211407,-2.101299286,-1.251968861,-32.076691,-30.730694,23.420745,25.194169,-13.804715,119.673282
394,2289921010,-1.843683839,58.52141571,-128.7760162,-8.114422798,-0.681520045,4.876841545,-14.05859947,-2.929077148,-1.583500028,-32.211931,-30.742053,23.502026,24.959859,-13.853533,119.64689
395,2289937677,-2.09691,58.44282913,-128.8535767,-8.142762184,-0.994647324,4.974223614,-9.485915184,-2.49222517,-1.667982817,-32.347644,-30.75863,23.58493,24.80176,-13.89507,119.61909
396,2289954344,-2.267960072,58.3778038,-128.963501,-7.96975565,-1.013504744,4.998709679,-2.905447006,-1.638463497,-2.66703105,-32.480473,-30.775522,23.668242,24.753336,-13.922378,119.574639
397,2289971011,-2.328130007,58.33362198,-129.0854187,-7.882430553,-1.254235506,4.782425404,4.353608608,-0.364411116,-3.000637054,-32.611847,-30.796426,23.747949,24.825896,-13.928452,119.524628
398,2289987678,-2.242141724,58.31843567,-129.2131348,-7.791749477,-1.390152216,4.789323807,13.41431522,1.379821062,-3.107456446,-32.741709,-30.819595,23.827771,25.049468,-13.905455,119.472837
399,2290004345,-2.061563015,58.32759476,-129.3591614,-7.826442719,-0.985995591,5.122363567,20.02092552,2.857446194,-3.616486073,-32.87215,-30.836028,23.913144,25.38315,-13.857831,119.412562
400,2290021012,-1.963342428,58.3384819,-129.5346832,-7.952852726,-0.779656291,5.407649994,16.58614731,2.991028547,-4.544574738,-33.004698,-30.849022,24.003271,25.659586,-13.807981,119.336819
401,2290037679,-1.980079174,58.34538269,-129.7397308,-7.881528378,-0.719184041,5.242980957,11.20188713,2.793796301,-5.490180969,-33.136057,-30.861008,24.090654,25.846284,-13.761418,119.245316
402,2290054346,-2.059465408,58.350811,-129.9587097,-7.905758381,-0.970098197,5.32002449,8.150670052,2.738331795,-5.932781696,-33.26782,-30.877176,24.179321,25.982129,-13.715779,119.146436
403,2290071013,-2.188313723,58.34264374,-130.1727295,-7.890968323,-0.739479363,5.450120926,4.930957794,1.941109896,-5.807097912,-33.399336,-30.889501,24.270156,26.064312,-13.683427,119.049651
404,2290087680,-2.363668442,58.33380508,-130.3515015,-7.755830765,-0.635105729,5.318195343,0.342108816,1.885261178,-4.707108498,-33.5286,-30.900086,24.358793,26.070014,-13.652006,118.971199
405,2290104347,-2.504375219,58.32134628,-130.4795685,-7.730369568,-0.627425194,5.248310089,-0.167167678,1.624690175,-3.129647493,-33.657439,-30.910543,24.446265,26.067228,-13.624928,118.919038
406,2290121014,-2.57795167,58.31742096,-130.5530396,-7.777582169,-0.512255549,5.273067474,1.072935224,2.074609518,-1.39530313,-33.787065,-30.919081,24.534149,26.08511,-13.590351,118.895783
407,2290137681,-2.594681978,58.3249588,-130.5837402,-7.765444756,-0.508458495,5.31792593,2.297823906,2.713069916,-0.024677835,-33.916489,-30.927555,24.622781,26.123407,-13.545133,118.895372
408,2290154348,-2.555407524,58.34146881,-130.5664825,-7.848268032,-0.526935279,5.379101753,3.211538553,3.186079979,1.49857378,-34.047293,-30.936337,24.712433,26.176933,-13.492032,118.920348
409,2290171015,-2.448713779,58.36199188,-130.5028076,-7.960274696,-0.440635502,5.326303482,4.888133049,3.372962236,2.959419727,-34.179964,-30.943681,24.801205,26.258402,-13.435816,118.969672
410,2290187682,-2.267267704,58.38130951,-130.4166565,-8.040769577,-0.417329848,5.086587906,8.223331451,3.28133297,3.650066376,-34.313977,-30.950636,24.885981,26.395458,-13.381127,119.030506
411,2290204349,-1.974829912,58.41194153,-130.3159332,-8.094779015,-0.30682379,5.192042351,14.1331501,3.95103097,4.119792938,-34.44889,-30.95575,24.972515,26.631011,-13.315276,119.099169
412,2290221016,-1.681417704,58.45572281,-130.224884,-8.186830521,-0.474455953,5.377151012,14.67915726,4.769646168,3.818799257,-34.585337,-30.963658,25.062134,26.875664,-13.235782,119.162816
413,2290237683,-1.363888502,58.50179291,-130.1517639,-8.197151184,-0.775572598,5.311207771,17.04354668,4.940137863,3.231794834,-34.721956,-30.976584,25.150654,27.159723,-13.153446,119.216679
414,2290254350,-1.026122332,58.53058243,-130.0935059,-8.210109711,-0.406029105,5.456995964,19.01419258,3.932598114,2.725341797,-34.858791,-30.983351,25.241604,27.476626,-13.087903,119.262101
415,2290271017,-0.841574967,58.54517365,-130.0608368,-8.200407982,-0.343944371,5.661612034,11.13036919,3.110657215,1.891889453,-34.995464,-30.989083,25.335964,27.662132,-13.036059,119.293632
416,2290287684,-0.936222672,58.55778122,-130.1020203,-8.069537163,-0.304393113,5.220434666,-1.836770058,3.037461519,-0.434436232,-35.129956,-30.994156,25.422971,27.631519,-12.985435,119.286391
417,2290304351,-1.076290607,58.55505371,-130.1569061,-8.203224182,-0.774044275,5.221838474,-3.86256814,2.124944925,-0.881595552,-35.266676,-31.007057,25.510002,27.567143,-12.950019,119.271698
418,2290321018,-1.160560846,58.54447556,-130.2071075,-8.068602562,-0.57027638,5.133718967,-0.758910537,1.659011245,-0.73683244,-35.401153,-31.016562,25.595564,27.554494,-12.922369,119.259417
419,2290337685,-1.191324592,58.53650284,-130.2615509,-8.077254295,-0.767534673,5.107592106,2.66866374,1.81456995,-0.869096518,-35.535774,-31.029354,25.680691,27.598972,-12.892126,119.244932
420,2290354352,-1.203141332,58.53287125,-130.3305359,-8.084506989,-0.64972806,5.180486679,4.547702312,2.087871075,-1.317011714,-35.670516,-31.040183,25.767032,27.674767,-12.857328,119.222982
421,2290371019,-1.195884705,58.52752304,-130.4011993,-8.160114288,-0.648819208,5.290874481,5.776062012,1.986303568,-1.371054411,-35.806518,-31.050997,25.855213,27.771035,-12.824223,119.200131
422,2290387686,-1.17145443,58.51759338,-130.4619904,-8.087617874,-0.48769328,5.298867702,6.300794601,1.705901742,-1.069919348,-35.941312,-31.059125,25.943527,27.876048,-12.795791,119.182299
423,2290404353,-1.076566219,58.51198578,-130.5337067,-8.043034554,-0.876190305,5.010828018,11.08449745,1.978012323,-1.411478281,-36.075363,-31.073728,26.027041,28.06079,-12.762824,119.158774
424,2290421020,-0.904927909,58.51589966,-130.6319733,-8.063548088,-0.741852641,5.167766094,17.04338074,2.560306072,-2.228935242,-36.209755,-31.086092,26.11317,28.344846,-12.720152,119.121625
425,2290437687,-0.681687474,58.52190018,-130.7323151,-8.053079605,-0.55265075,5.236300468,20.24492645,2.676908493,-2.29516983,-36.343973,-31.095303,26.200442,28.682261,-12.675537,119.083372
426,2290454354,-0.363829702,58.51479721,-130.8228302,-8.125717163,-0.686634421,5.510776997,25.42181396,1.881128907,-2.00627923,-36.479402,-31.106747,26.292288,29.105958,-12.644185,119.049934
427,2290471021,-0.080749236,58.51815796,-130.9444427,-7.921702385,-0.4701747,5.068217754,24.92737198,2.51162529,-2.98386693,-36.61143,-31.114583,26.376758,29.521414,-12.602325,119.000203
428,2290487688,0.171301126,58.54487991,-131.073349,-7.977464199,-0.573707223,4.803977966,23.43528175,3.90148735,-3.217723608,-36.744388,-31.124145,26.456824,29.912002,-12.5373,118.946574
429,2290504355,0.378365904,58.56756973,-131.2160797,-8.145379066,-0.373248279,5.205699444,21.44238663,3.637906075,-3.656468868,-36.880144,-31.130366,26.543586,30.269375,-12.476668,118.885633
430,2290521022,0.634702444,58.60858536,-131.3603516,-7.912766457,-0.731554329,4.976427078,24.47280693,4.725040436,-3.720822096,-37.012023,-31.142559,26.626526,30.677255,-12.397917,118.823619
431,2290537689,0.973980844,58.67045975,-131.4654846,-7.90648222,-0.255838066,4.713323593,27.4479866,5.970067501,-2.522915363,-37.143798,-31.146823,26.705081,31.134721,-12.298416,118.78157
432,2290554356,1.108729243,58.69676971,-131.555481,-8.121354103,0.745217085,5.95455265,14.39373207,3.831201315,-2.02656126,-37.279154,-31.134403,26.804324,31.374617,-12.234563,118.747794
433,2290571023,1.010456085,58.688797,-131.5880432,-7.852776527,0.181497723,5.5883255,-2.527224541,1.820474029,-0.227946624,-37.410034,-31.131378,26.897463,31.332497,-12.204222,118.743995
434,2290587690,0.776783586,58.66592407,-131.5897675,-7.81108284,-0.038223863,5.423208714,-12.22677231,0.950603008,0.732254684,-37.540219,-31.132015,26.98785,31.128717,-12.188379,118.756199
435,2290604357,0.447398365,58.6526947,-131.5661774,-7.807889938,-0.177171856,5.25857687,-19.26416206,1.547482729,1.50546515,-37.67035,-31.134968,27.075493,30.807648,-12.162588,118.78129
436,2290621024,0.065071747,58.63136292,-131.5367432,-7.862512112,-0.068359278,5.27133131,-22.73769569,1.055962324,1.685562134,-37.801392,-31.136107,27.163349,30.428686,-12.144989,118.809383
437,2290637691,-0.292410821,58.59513474,-131.4624176,-8.030639648,0.165977985,5.466130733,-23.54389763,0.150590152,3.077947855,-37.935236,-31.133341,27.254451,30.036288,-12.142479,118.860682
438,2290654358,-0.614985466,58.57350922,-131.4046783,-8.11832428,-1.674319148,4.632562637,-20.59738731,1.018285751,2.548685074,-38.070541,-31.161246,27.33166,29.692998,-12.125508,118.90316
439,2290671025,-0.617565572,58.55177689,-131.3531647,-8.085885048,-1.313858151,4.942103386,-1.07965219,0.994393885,2.382615089,-38.205306,-31.183144,27.414028,29.675004,-12.108935,118.94287
440,2290687692,-0.559787631,58.52024078,-131.319458,-8.042313576,-0.848439395,5.095597744,3.454782009,0.409623951,1.836648583,-38.339345,-31.197285,27.498955,29.732584,-12.102108,118.973481
441,2290704359,-0.504239082,58.47338104,-131.286972,-7.948456764,-0.258537412,4.911129951,3.384385824,-0.511530459,1.798306465,-38.471819,-31.201594,27.580807,29.78899,-12.110634,119.003453
442,2290721026,-0.411448538,58.41875076,-131.2256927,-8.031551361,-0.420836806,5.034068584,4.144556999,-0.990974545,2.700666904,-38.605678,-31.208608,27.664708,29.858066,-12.12715,119.048464
443,2290737693,-0.37342447,58.35051346,-131.1496277,-8.102669716,-0.111034013,5.227244377,0.102796577,-1.811695099,3.167817354,-38.740722,-31.210459,27.751829,29.859779,-12.157345,119.101261
444,2290754360,-0.393413693,58.27669144,-131.0576324,-8.069701195,-0.172753379,5.155509472,-4.193164349,-2.153048515,3.667239189,-38.875217,-31.213338,27.837754,29.789893,-12.193229,119.162382
445,2290771027,-0.539750397,58.21066284,-130.9803162,-8.095212936,0.090974264,5.175549507,-11.02069569,-1.692917109,3.204137325,-39.010137,-31.211822,27.924013,29.606215,-12.221444,119.215784
446,2290787694,-0.75738138,58.15717697,-130.9200287,-8.069973946,-0.11063233,5.251248837,-14.43304157,-0.948304415,2.66049552,-39.144637,-31.213666,28.011534,29.365664,-12.237249,119.260126
447,2290804361,-0.993114412,58.11984253,-130.8661346,-8.059634209,0.029088397,5.299274921,-15.19515133,0.010296315,2.461587667,-39.278964,-31.213181,28.099855,29.112411,-12.237077,119.301152
448,2290821028,-1.187804222,58.09539032,-130.8020782,-8.033103943,0.125992045,5.235077858,-13.25055981,0.763854504,2.784505844,-39.412849,-31.211081,28.187106,28.891568,-12.224346,119.34756
449,2290837695,-1.386566997,58.09209061,-130.7355652,-7.965988636,0.115072213,5.28046608,-13.62474918,2.021054745,2.880873203,-39.545615,-31.209163,28.275114,28.664489,-12.190662,119.395575
450,2290854362,-1.561341047,58.09886551,-130.6681671,-8.036045074,-0.350616902,5.338019371,-12.233881,2.61183095,2.916212559,-39.679549,-31.215007,28.364081,28.460591,-12.147131,119.444179
451,2290871029,-1.707208157,58.10694122,-130.6009521,-8.166089058,-0.20419541,5.529388905,-10.4914341,2.679819584,2.912472486,-39.81565,-31.21841,28.456237,28.285734,-12.102467,119.49272
452,2290887696,-1.870693803,58.10880661,-130.5445862,-8.131993294,-0.457114011,5.312641144,-10.992342,2.315196991,2.552345037,-39.951183,-31.226029,28.544781,28.102528,-12.06388,119.535259
453,2290904363,-1.961263061,58.10851669,-130.4963989,-8.104441643,-0.757398963,5.12506485,-6.204902649,2.191141605,2.292029858,-40.086257,-31.238652,28.630199,27.999113,-12.027361,119.573459
454,2290921030,-1.981801391,58.11433029,-130.4763031,-8.034459114,-0.670593917,5.178112507,-0.572053194,2.578007698,1.418431282,-40.220165,-31.249829,28.716501,27.989579,-11.984394,119.5971
455,2290937697,-2.062976599,58.10355759,-130.494278,-8.065924644,-0.511005819,5.332064152,-2.271244764,1.623364806,0.179769129,-40.354597,-31.258346,28.805369,27.951725,-11.957338,119.600096
456,2290954364,-2.264994144,58.04832458,-130.5654297,-8.144909859,-0.537796855,5.440573692,-6.813894749,-0.975491762,-1.610738158,-40.490345,-31.267309,28.896045,27.83816,-11.973596,119.57325
457,2290971031,-2.591982603,57.95495605,-130.6435699,-8.03026104,-0.324069977,5.337484837,-13.95917034,-3.23876071,-1.948993683,-40.624183,-31.27271,28.985003,27.605507,-12.027575,119.540767
458,2290987698,-2.986033916,57.83720398,-130.7326355,-8.149687767,-0.348982424,5.211614609,-17.43388176,-4.66836834,-2.413346529,-40.760011,-31.278526,29.071863,27.314942,-12.105381,119.500545
459,2291004365,-3.405287027,57.70410156,-130.8114319,-8.144592285,-0.283416986,5.212230682,-19.47871971,-5.589511395,-2.195196867,-40.895754,-31.28325,29.158734,26.990297,-12.19854,119.463958
460,2291021032,-3.890895844,57.57404709,-130.8676605,-7.980178356,0.16372633,5.072813988,-24.6127739,-5.440488815,-1.532865763,-41.028757,-31.280521,29.243281,26.580084,-12.289215,119.43841
461,2291037699,-4.421374321,57.43362808,-130.901123,-7.981973171,-0.314293534,4.724776745,-28.47240067,-6.102845192,-0.925492048,-41.16179,-31.285759,29.322027,26.105544,-12.390929,119.422985
462,2291054366,-4.89149332,57.3194313,-130.9063416,-7.93312788,-0.489998907,4.62783432,-26.29133034,-4.613582611,0.039699782,-41.294009,-31.293926,29.399158,25.667355,-12.467822,119.423647
463,2291071033,-5.2857337,57.23212433,-130.8631134,-7.938960075,-0.46207568,4.679228306,-24.19360924,-3.161183834,1.703119993,-41.426325,-31.301627,29.477145,25.264128,-12.520508,119.452032
464,2291087700,-5.563959122,57.1664772,-130.7556915,-7.98140192,-0.963500202,4.83341074,-20.48934746,-2.094007969,3.884536505,-41.559348,-31.317685,29.557702,24.922639,-12.555408,119.516774
465,2291104367,-5.73810482,57.10494614,-130.5919037,-7.94870615,-0.477341622,5.251699924,-17.02665138,-2.048928738,5.696290016,-41.691826,-31.325641,29.64523,24.638861,-12.589557,119.611712
466,2291121034,-6.072747707,57.03422928,-130.4175262,-8.032678604,-0.49466601,5.325220585,-27.23137856,-2.671603918,6.000206947,-41.825704,-31.333885,29.733984,24.185005,-12.634084,119.711715
467,2291137701,-6.360543251,56.97372055,-130.219162,-7.739938736,-1.116523385,5.212848663,-25.72352028,-2.202089548,6.890218735,-41.954703,-31.352494,29.820865,23.75628,-12.670785,119.826552
468,2291154368,-6.753203869,56.93434906,-129.9856262,-7.721960545,-0.580453396,5.327754498,-33.6759491,-1.097835183,8.107873917,-42.083402,-31.362168,29.909661,23.195014,-12.689082,119.961683
469,2291171035,-7.112714767,56.90301514,-129.7082062,-7.766071796,-1.167871714,5.379380226,-33.92166519,-0.857651412,9.597849846,-42.212837,-31.381633,29.999317,22.629653,-12.703376,120.121647
470,2291187702,-7.424238205,56.87622833,-129.4072571,-7.825447559,-1.274777174,5.602504253,-32.18379974,-0.73113662,10.37591267,-42.343261,-31.402879,30.092692,22.093256,-12.715562,120.294579
471,2291204369,-7.740533829,56.84491348,-129.0931702,-7.867777348,-1.223126054,5.593391895,-33.12651443,-1.114419818,10.76880455,-42.474391,-31.423264,30.185915,21.541147,-12.734136,120.474059
472,2291221036,-8.041801453,56.79296494,-128.7776794,-7.866786003,-1.149364471,5.476201057,-32.27334595,-2.400681734,10.63978958,-42.605504,-31.44242,30.277185,21.003258,-12.774147,120.651389
473,2291237703,-8.271842003,56.74611664,-128.472168,-7.893954754,-1.548802853,5.302584648,-27.48602104,-2.10002327,10.35469341,-42.73707,-31.468233,30.365561,20.545158,-12.809147,120.823967
474,2291254370,-8.371356964,56.71076202,-128.2076111,-7.89489603,-2.134560108,5.277611732,-17.58446884,-1.258539557,9.126317978,-42.868652,-31.503809,30.453521,20.252084,-12.830123,120.976072
475,2291271037,-8.375390053,56.69009781,-127.997818,-7.869821072,-1.714485407,5.444449902,-9.096910477,-0.128812715,7.489348412,-42.999816,-31.532384,30.544262,20.100469,-12.83227,121.100894
476,2291287704,-8.345355034,56.6934433,-127.8359528,-7.873897552,-1.631315112,5.465706348,-4.635828972,1.529449821,6.142041683,-43.131048,-31.559573,30.635357,20.023205,-12.806779,121.203261
477,2291304371,-8.311787605,56.72858047,-127.7256851,-7.890019894,-1.743373394,5.329509735,-1.833952546,3.671158075,4.740373135,-43.262548,-31.588629,30.724182,19.992639,-12.745593,121.282267
478,2291321038,-8.22088623,56.79430008,-127.6622467,-7.88196516,-1.863032222,5.258529186,3.961709499,5.715973854,3.479114532,-43.393914,-31.61968,30.811824,20.058667,-12.650327,121.340252
479,2291337705,-8.095640182,56.88450623,-127.6390228,-7.871110439,-1.74205184,5.187662601,8.042749405,7.368814468,2.37934351,-43.525099,-31.648714,30.898285,20.192713,-12.527513,121.379908
480,2291354372,-7.867293835,56.98498535,-127.6336975,-8.03526783,-1.597799659,5.007437229,15.13261223,8.06637001,1.872187734,-43.65902,-31.675344,30.981742,20.444923,-12.393073,121.411111
481,2291371039,-7.651351452,57.0427475,-127.6594849,-8.262881279,-2.044392824,5.511394501,15.95454311,5.664491177,0.500581503,-43.796735,-31.709417,31.073599,20.710832,-12.298665,121.419454
482,2291387706,-7.251730442,57.09110641,-127.6839371,-8.007622719,-1.319701791,5.298063755,26.91400146,5.109663486,0.460383087,-43.930195,-31.731412,31.1619,21.159399,-12.213504,121.427127
483,2291404373,-6.945064545,57.12926865,-127.6925354,-7.950491428,-0.677086771,5.330945969,20.53852844,4.43914175,0.877998233,-44.062703,-31.742697,31.250749,21.501708,-12.139518,121.44176
484,2291421040,-6.731130123,57.16077423,-127.6877899,-7.918671131,-0.852878213,5.447148323,14.3001976,3.994688272,1.241025925,-44.194681,-31.756912,31.341535,21.740045,-12.07294,121.462444
485,2291437707,-6.584149837,57.18283844,-127.6853027,-8.008831024,-0.869293332,5.524356365,10.39696598,3.445843935,1.08809185,-44.328162,-31.7714,31.433608,21.913328,-12.015509,121.480579
486,2291454374,-6.543676853,57.18889618,-127.7048645,-8.118273735,-0.686897933,5.375333786,5.118807316,2.578821421,0.257644564,-44.463467,-31.782848,31.523197,21.998641,-11.972529,121.484873
487,2291471041,-6.538323879,57.18404007,-127.7157288,-8.133307457,-0.848652184,5.175975323,2.567282438,1.896063328,0.459523827,-44.599022,-31.796992,31.609463,22.041429,-11.940928,121.492532
488,2291487708,-6.54638958,57.17713928,-127.7197876,-8.094397545,-0.803463578,5.090760231,1.412226677,1.744961143,0.665526807,-44.733929,-31.810383,31.694309,22.064966,-11.911845,121.503624
489,2291504375,-6.585409164,57.16469574,-127.7114944,-8.038310051,-0.738146722,5.095087051,-1.074638128,1.357344747,1.024751067,-44.867901,-31.822685,31.779227,22.047055,-11.889223,121.520703
490,2291521042,-6.648649216,57.14924622,-127.6942139,-8.027206421,-0.644104958,5.1546731,-2.981913567,1.140277386,1.288894892,-45.001688,-31.83342,31.865138,21.997356,-11.870218,121.542185
491,2291537709,-6.735885143,57.13752747,-127.6852951,-8.025319099,-0.924889863,5.111347198,-4.011044979,1.384199977,1.042782664,-45.135443,-31.848835,31.950327,21.930505,-11.847148,121.559565
492,2291554376,-6.923518181,57.12310028,-127.7002335,-8.02954483,-0.512257099,5.491702557,-8.836773872,1.309257388,0.251824111,-45.269269,-31.857373,32.041855,21.783225,-11.825327,121.563762
493,2291571043,-7.090501785,57.10382462,-127.729187,-7.971720219,-1.392535925,5.094461918,-6.894485474,1.078871131,-0.247143388,-45.402131,-31.880582,32.126763,21.668317,-11.807346,121.559643
494,2291587710,-7.278310299,57.09516525,-127.7691422,-7.868883133,-0.731164336,5.09197998,-7.57839632,1.756506681,-0.527231157,-45.533279,-31.892768,32.211629,21.54201,-11.778071,121.550856
495,2291604377,-7.493748188,57.09684753,-127.7894516,-7.883051395,-0.642971098,5.093250275,-10.23914814,2.286023855,0.188970566,-45.664663,-31.903484,32.296517,21.371358,-11.739971,121.554006
496,2291621044,-7.708864212,57.10797882,-127.795311,-7.938751698,-0.744972527,5.107805252,-10.9801569,2.779356956,0.745067358,-45.796976,-31.9159,32.381647,21.188355,-11.693648,121.566424
497,2291637711,-7.944516659,57.12040329,-127.7930298,-7.928500175,-0.647513628,5.287210941,-12.61102295,2.813601732,1.008315086,-45.929118,-31.926692,32.469767,20.978171,-11.646755,121.583229
498,2291654378,-8.244193077,57.12751007,-127.7919693,-7.942620277,-0.70108217,5.231914043,-16.41503906,2.495274544,0.935703158,-46.061495,-31.938377,32.556966,20.704587,-11.605167,121.598824
499,2291671045,-8.572071075,57.12781906,-127.7934723,-7.974412441,-0.969941378,5.076507092,-17.98373032,2.100321054,0.794161141,-46.194402,-31.954543,32.641574,20.404858,-11.570162,121.61206
500,2291687712,-8.905858994,57.11324692,-127.8059692,-8.08665657,-1.070193768,5.252401352,-17.76675987,1.266229153,0.292471677,-46.32918,-31.97238,32.729114,20.108745,-11.549058,121.616935
501,2291704379,-9.380454063,57.05883026,-127.8555527,-8.156664848,-0.833247066,5.078846931,-24.3472538,-0.903163195,-1.287123919,-46.465124,-31.986267,32.813761,19.702957,-11.564111,121.595483
502,2291721046,-9.950119019,56.95610046,-127.9029007,-8.200535774,-0.797691286,4.991890907,-30.16903496,-3.761883497,-1.733901978,-46.6018,-31.999562,32.896959,19.20014,-11.626809,121.566585
503,2291737713,-10.61796188,56.8078537,-127.9264526,-8.131536484,-0.557173312,4.802110672,-37.28474426,-6.581286907,-1.511585832,-46.737326,-32.008848,32.976994,18.578728,-11.736497,121.541392
504,2291754380,-11.2623806,56.68182373,-127.9284744,-8.20404911,-1.240549207,4.662391663,-36.97245026,-5.401028156,-0.668507576,-46.87406,-32.029524,33.054701,17.96252,-11.826514,121.53025
505,2291771047,-11.86795425,56.57753372,-127.9436798,-8.263367653,-1.239812136,4.532689571,-33.98936462,-4.040400028,-0.908223629,-47.011783,-32.050188,33.130246,17.396031,-11.893854,121.515113
506,2291787714,-12.43922234,56.49990082,-127.9213715,-8.585042953,-0.799364746,4.736534119,-33.82606888,-2.747402191,0.587455273,-47.154867,-32.063511,33.209188,16.832263,-11.939644,121.524904
507,2291804381,-13.05605125,56.42876053,-127.8396378,-8.738004684,-0.810133517,4.707970619,-39.54938126,-2.830750227,2.5491817,-47.3005,-32.077013,33.287654,16.173107,-11.986823,121.56739
508,2291821048,-13.71298313,56.34471512,-127.6975632,-8.868905067,-1.24823451,4.610422611,-44.99131775,-4.103843212,4.274546623,-47.448315,-32.097817,33.364494,15.423252,-12.05522,121.638632
509,2291837715,-14.43305397,56.2324028,-127.4983368,-8.971036911,-0.890814304,4.460062027,-51.64456177,-6.292160034,5.65796423,-47.597832,-32.112664,33.438828,14.562509,-12.160089,121.732931
510,2291854382,-15.37905407,56.12294388,-127.2730255,-9.074537277,-1.158518314,4.348278046,-66.51085663,-6.47218132,6.445729733,-47.749074,-32.131973,33.511299,13.453995,-12.267959,121.84036
511,2291871049,-16.52858353,56.03035355,-127.0586472,-9.133317947,-1.537950516,4.201537132,-78.19705963,-5.558019638,6.248930931,-47.901296,-32.157606,33.581325,12.150711,-12.360593,121.944509
512,2291887716,-17.72869301,55.96762085,-126.8775024,-8.815721512,-1.933384657,4.239818096,-79.59625244,-3.686883688,5.586228848,-48.048225,-32.189829,33.651989,10.824107,-12.422041,122.037613
513,2291904383,-18.88858414,55.90854645,-126.7310715,-8.670562744,-1.886105061,4.506246567,-75.46550751,-3.255388498,4.453312397,-48.192734,-32.221264,33.727093,9.566349,-12.476297,122.111835
514,2291921050,-19.88850784,55.86242676,-126.6208878,-8.451658249,-2.203334808,4.185251236,-64.08139038,-2.224034548,3.482859612,-48.333595,-32.257986,33.796847,8.498326,-12.513364,122.169883
515,2291937717,-20.63778114,55.81906891,-126.5388031,-8.367105484,-2.388707638,4.288250923,-47.65443802,-1.814418197,2.603033304,-48.473047,-32.297798,33.868318,7.704085,-12.543604,122.213267
516,2291954384,-21.26220894,55.77392578,-126.4877548,-8.320729256,-2.466990471,4.3214674,-38.63490677,-1.59163928,1.557990432,-48.611726,-32.338915,33.940342,7.06017,-12.570131,122.239234
517,2291971051,-21.8214283,55.75666809,-126.453125,-8.103186607,-2.613237619,4.170968533,-33.91257095,0.137310237,1.630421281,-48.746779,-32.382469,34.009858,6.49496,-12.567842,122.266408
518,2291987718,-22.35324478,55.80254745,-126.4241409,-7.808145046,-2.519506931,4.392239094,-31.99640656,3.692289352,2.874421597,-48.876915,-32.424461,34.083062,5.961687,-12.506304,122.314315
519,2292004385,-22.96800613,55.91566467,-126.3840027,-7.434810638,-2.418529272,4.787950039,-37.52860641,7.236804008,4.797424793,-49.000829,-32.46477,34.162861,5.33621,-12.385691,122.394272
520,2292021052,-23.71885681,56.08334351,-126.3072205,-7.319491386,-2.576621056,4.581368446,-47.52213287,9.707520485,7.290070057,-49.122821,-32.507714,34.239217,4.544174,-12.223899,122.515773
521,2292037719,-24.48603249,56.31976318,-126.1983719,-7.287401676,-2.922998905,4.222549438,-50.10118484,12.95362854,10.0461359,-49.244278,-32.556431,34.309593,3.709154,-12.008005,122.683209
522,2292054386,-25.12998581,56.62127686,-126.0688477,-7.489397049,-3.622712374,3.80406785,-43.75389099,16.10298729,12.43297768,-49.369101,-32.61681,34.372994,2.979922,-11.739622,122.890425
523,2292071053,-25.58050919,57.00137329,-125.9737701,-7.755076408,-3.552628994,3.738723278,-30.43657303,20.74215889,13.55097103,-49.498352,-32.67602,34.435306,2.472646,-11.393919,123.116275
524,2292087720,-25.93717575,57.45103073,-125.9762268,-8.061030388,-3.677981138,3.577395439,-19.90504646,25.79233742,12.63406277,-49.632703,-32.73732,34.494929,2.140895,-10.964047,123.326843
525,2292104387,-26.18523598,57.9732666,-126.1443176,-8.036649704,-3.796466351,3.621225119,-4.985263348,31.9599781,9.926184654,-49.766647,-32.800594,34.555283,2.057807,-10.431381,123.492279
526,2292121054,-26.30797195,58.53903198,-126.5056915,-8.102341652,-3.955160618,3.583518505,12.44924831,36.93017578,5.801897049,-49.901686,-32.866513,34.615008,2.265294,-9.815878,123.588977
527,2292137721,-26.28196907,59.13501358,-127.1184692,-8.205768585,-4.098487377,3.854529858,34.39966583,41.92724228,-0.173021987,-50.038449,-32.934821,34.67925,2.838622,-9.117091,123.586093
528,2292154388,-26.15307808,59.69926834,-127.9610443,-8.470420837,-3.611027479,4.281332493,52.64209366,43.19264221,-7.046957016,-50.179623,-32.995005,34.750606,3.71599,-8.397214,123.468644
529,2292171055,-25.97456741,60.22821426,-128.9985657,-8.629556656,-3.552303553,4.002301216,65.99349976,43.6799469,-12.96081924,-50.323449,-33.05421,34.817311,4.815882,-7.669215,123.25263
530,2292187722,-25.76704597,60.72870255,-130.1896973,-8.960946083,-3.180144072,3.896988392,76.02927399,43.8850441,-17.48062325,-50.472798,-33.107212,34.882261,6.083037,-6.937798,122.961286
531,2292204389,-25.59979248,61.20533371,-131.482666,-9.366200447,-2.819519997,3.930241585,79.24663544,43.60653687,-20.41675758,-50.628901,-33.154204,34.947765,7.403814,-6.211022,122.621007
532,2292221056,-25.59305191,61.64990234,-132.8773804,-9.435222626,-2.36857295,4.463384628,75.26573944,42.87244034,-23.44563484,-50.786155,-33.19368,35.022155,8.658243,-5.496481,122.230246
533,2292237723,-25.76199341,62.0214653,-134.235611,-9.325624466,-1.789169312,4.898419857,63.06040573,38.30396271,-23.87562752,-50.941582,-33.223499,35.103795,9.70925,-4.858082,121.832319
534,2292254390,-26.02038193,62.33086014,-135.4545288,-9.028392792,-1.878518343,5.015806198,50.51790237,33.17220688,-21.48427582,-51.092055,-33.254808,35.187392,10.551215,-4.305212,121.474248
535,2292271057,-26.23130608,62.55721283,-136.390152,-8.695226669,-1.577372313,4.934292316,38.45437241,25.22527313,-16.22898865,-51.236975,-33.281098,35.26963,11.192121,-3.884791,121.203765
536,2292287724,-26.44533348,62.71344376,-137.0447235,-8.448786736,-1.131037116,4.882409096,23.37341881,18.0306797,-10.92491722,-51.377788,-33.299949,35.351003,11.581678,-3.58428,121.021683
537,2292304391,-26.82914162,62.83067703,-137.4585419,-8.553896904,-0.574204326,4.884006023,0.382807702,13.02223682,-5.92558527,-51.520353,-33.309519,35.432403,11.588058,-3.367243,120.922923
538,2292321058,-27.48443604,62.95961761,-137.6659546,-8.191402435,-0.263961464,4.897043705,-26.91350365,11.11902332,-0.466485381,-51.656876,-33.313918,35.51402,11.1395,-3.181926,120.915148
539,2292337725,-28.22426987,63.12007523,-137.6096649,-7.8364048,-0.662284076,4.491488934,-46.08011246,9.452116013,6.869553566,-51.787483,-33.324956,35.588878,10.371498,-3.024391,121.029641
540,2292354392,-29.0032444,63.32616806,-137.3390656,-7.556776524,-0.625208974,4.654195309,-59.92197418,9.008043289,13.34138489,-51.913429,-33.335376,35.666448,9.372798,-2.874257,121.251997
541,2292371059,-29.7244339,63.56644821,-136.8078613,-7.52718544,-0.631364465,4.889287949,-70.4642868,7.240675926,20.46066666,-52.038882,-33.345899,35.747936,8.198393,-2.753579,121.593008
542,2292387726,-30.25026894,63.79332733,-135.9472198,-7.57904911,-0.623131633,4.483834267,-76.51885223,2.017130375,27.58496284,-52.165199,-33.356285,35.822667,6.923079,-2.71996,122.052757
543,2292404393,-30.39066124,64.03154755,-134.7348022,-7.504638195,-1.266307712,4.039968491,-72.44845581,-2.143403292,35.7592392,-52.290276,-33.37739,35.89,5.715605,-2.755683,122.648744
544,2292421060,-30.11387444,64.24343109,-133.2197571,-7.815562248,-1.686796546,4.676587582,-63.87038422,-7.329743385,41.57112885,-52.420535,-33.405503,35.967943,4.651099,-2.877845,123.341596
545,2292437727,-29.55571365,64.39025879,-131.4624329,-7.881570339,-1.773002625,5.179513931,-60.195961,-13.41560745,44.92079163,-52.551895,-33.435053,36.054268,3.647833,-3.101438,124.090276
546,2292454394,-28.87360001,64.45069122,-129.5215454,-7.800160408,-1.991834641,5.014652252,-62.76424789,-19.68058205,46.54271317,-52.681898,-33.46825,36.137846,2.601762,-3.429448,124.865988
547,2292471061,-28.1158123,64.42868042,-127.502861,-7.424106121,-2.622750282,4.865467548,-62.42012405,-24.37375641,46.17485428,-52.805633,-33.511963,36.218937,1.561427,-3.835677,125.635569
548,2292487728,-27.22140694,64.31433868,-125.4995804,-7.238394737,-3.032585144,4.736009121,-53.29125214,-28.47363663,43.73063278,-52.926273,-33.562506,36.29787,0.673239,-4.310238,126.364413
549,2292504395,-26.23447418,64.12129974,-123.5835724,-6.954506397,-2.840764284,4.988640308,-42.84105301,-31.06266594,40.32400894,-53.042181,-33.609852,36.381014,-0.040779,-4.827949,127.03648
550,2292521062,-25.21324539,63.85097885,-121.7468643,-6.965404034,-3.14074564,5.024931908,-36.25793839,-33.78190231,37.3756218,-53.158271,-33.662198,36.464763,-0.645078,-5.390981,127.659407
551,2292537729,-24.05267906,63.50296783,-119.9505157,-7.22587204,-3.567610979,5.089866638,-25.4163475,-37.05721283,35.6127739,-53.278702,-33.721658,36.549594,-1.068684,-6.008601,128.252953
552,2292554396,-22.79162788,63.09727478,-118.1708221,-8.050886154,-3.713018417,4.958283424,-18.12311935,-39.52358627,35.22496796,-53.412883,-33.783542,36.632232,-1.370736,-6.667327,128.840036
553,2292571063,-21.50258064,62.67691803,-116.4345932,-8.827781677,-3.684590101,4.692846298,-13.71965981,-39.34875488,35.34096146,-53.560013,-33.844952,36.710446,-1.599397,-7.32314,129.429052
554,2292587730,-20.38293076,62.2857666,-114.8599854,-9.097111702,-3.102224588,4.849061489,-14.9059782,-35.60055923,33.26198959,-53.711632,-33.896656,36.791264,-1.84783,-7.916483,129.983418
555,2292604397,-19.58951569,61.90670395,-113.4547729,-8.570221901,-2.579581261,4.791353703,-25.1714859,-32.93823624,30.18573761,-53.854469,-33.939649,36.87112,-2.267355,-8.465454,130.486514
556,2292621064,-19.03769112,61.4724617,-112.1614304,-7.984270096,-1.945356846,3.87932229,-33.45379639,-34.83075333,26.99155998,-53.98754,-33.972072,36.935775,-2.824918,-9.045967,130.936373
557,2292637731,-18.56492233,61.0428772,-110.8907013,-7.805241585,-1.900216937,3.035204887,-36.72278214,-34.30558395,27.27259445,-54.117627,-34.003742,36.986362,-3.436964,-9.617727,131.390916
558,2292654398,-17.96269798,60.66701126,-109.6272278,-8.140836716,-2.134892702,3.073160172,-28.31671524,-31.10341454,28.86300278,-54.253308,-34.039324,37.037581,-3.908909,-10.136117,131.871966
559,2292671065,-17.24616051,60.34972,-108.3921585,-8.651602745,-2.181774616,3.743910551,-19.75399971,-27.32637024,29.88803673,-54.397501,-34.075687,37.09998,-4.238142,-10.591557,132.3701
560,2292687732,-16.54267311,60.06656265,-107.2532349,-9.007557869,-2.01086998,4.581311226,-15.33488464,-24.29245377,28.42121315,-54.547627,-34.109201,37.176335,-4.493723,-10.996431,132.843787
561,2292704399,-15.92502022,59.78221512,-106.2675247,-9.247600555,-2.011953354,4.647485256,-12.36071777,-22.8504982,24.55429459,-54.701754,-34.142734,37.253793,-4.699735,-11.377273,133.253025
562,2292721066,-15.45515442,59.47251511,-105.4515686,-9.160428047,-1.41548264,4.073675632,-12.28232002,-22.78149033,19.66874695,-54.854428,-34.166325,37.321688,-4.90444,-11.756965,133.580837
563,2292737733,-14.95622253,59.13087463,-104.7789612,-8.890189171,-1.748453021,3.500855923,-3.019501925,-23.40657425,15.36200714,-55.002598,-34.195466,37.380036,-4.954765,-12.147075,133.83687
564,2292754400,-14.41992474,58.77879715,-104.2090302,-8.73670578,-1.435059786,3.513146639,4.615195751,-23.15629387,12.55826378,-55.14821,-34.219384,37.438588,-4.877845,-12.533013,134.046174
565,2292771067,-13.84945965,58.43532944,-103.7285614,-8.507916451,-1.131281018,3.878955841,11.33627415,-21.93056679,10.38210773,-55.290009,-34.238239,37.503237,-4.688907,-12.898522,134.219209
566,2292787734,-13.33084583,58.1174736,-103.338974,-8.313755989,-1.294563651,4.363441467,12.93070126,-19.7227993,8.313669205,-55.428572,-34.259815,37.575961,-4.473395,-13.227235,134.35777
567,2292804401,-12.86731911,57.83710861,-103.0591202,-8.243411064,-1.326193333,5.015035152,15.26287937,-16.71046829,5.700283527,-55.565962,-34.281918,37.659545,-4.219014,-13.505743,134.452775
568,2292821068,-12.37284946,57.58699799,-102.8546829,-8.13538456,-2.156391621,4.782362938,20.98350716,-14.38246059,3.948782921,-55.701552,-34.317858,37.739251,-3.869289,-13.745451,134.518588
569,2292837735,-11.71970749,57.35389328,-102.7021027,-8.12475872,-2.297515154,4.906506538,33.16533661,-13.0050087,2.727873564,-55.836965,-34.35615,37.821026,-3.316533,-13.962201,134.564053
570,2292854402,-11.031003,57.12597656,-102.5921478,-8.219299316,-1.751374125,5.043328285,37.48270416,-12.39973927,1.636577129,-55.973953,-34.38534,37.905081,-2.691821,-14.168863,134.591329
571,2292871069,-10.46323776,56.90016556,-102.5536804,-8.329441071,-1.567067146,4.649927616,33.84910202,-11.82762146,-0.463982552,-56.112777,-34.411458,37.98258,-2.127669,-14.36599,134.583596
572,2292887736,-9.917606354,56.68802643,-102.5907593,-8.494727135,-1.901175499,4.882338047,36.31272125,-10.59646988,-2.624015331,-56.254356,-34.443144,38.063952,-1.522457,-14.542598,134.539862
573,2292904403,-9.462701797,56.53951263,-102.7532272,-8.28126049,-1.211299658,4.605187893,37.1507225,-6.161576271,-5.958082199,-56.392377,-34.463332,38.140705,-0.903278,-14.645291,134.440561
574,2292921070,-9.11367321,56.41825485,-102.8856506,-8.498952866,-0.880222559,5.066954136,29.2721386,-4.75823307,-4.676093102,-56.534026,-34.478002,38.225154,-0.415409,-14.724595,134.362626
575,2292937737,-8.732644081,56.26116943,-102.919426,-8.422949791,-0.497518629,5.406158447,26.24223518,-7.426465511,-1.746835232,-56.674408,-34.486294,38.315257,0.021962,-14.848369,134.333512
576,2292954404,-8.512975693,56.0774498,-102.9240112,-8.217887878,-1.084221005,4.904213428,15.08837509,-9.16782093,-0.988766611,-56.811373,-34.504364,38.396994,0.273435,-15.001166,134.317033
577,2292971071,-8.350318909,55.91279984,-102.9506454,-7.982701302,-0.920868874,4.68719244,12.75559521,-7.938066483,-1.518648624,-56.944418,-34.519712,38.475114,0.486028,-15.133467,134.291722
578,2292987738,-8.280176163,55.77282333,-103.0139084,-7.872597218,-0.764122128,4.958257675,9.010878563,-6.305427074,-2.511915684,-57.075628,-34.532447,38.557752,0.636209,-15.238557,134.249857
579,2293004405,-8.248521805,55.68226242,-103.0862732,-7.848229408,-0.78581816,4.977715492,7.138549805,-3.334351778,-2.391676188,-57.206432,-34.545544,38.640714,0.755185,-15.29413,134.209996
580,2293021072,-8.172815323,55.63205719,-103.1321564,-7.886580467,-0.800353348,4.96878767,8.455836296,-1.074120045,-1.161792397,-57.337875,-34.558883,38.723527,0.896116,-15.312032,134.190633
581,2293037739,-8.120344162,55.59424973,-103.1368103,-8.05610466,-0.717069566,5.110255718,5.009530544,-0.539147317,0.326081693,-57.472143,-34.570834,38.808698,0.979608,-15.321018,134.196068
582,2293054406,-8.041508675,55.56792068,-103.0655746,-8.191224098,-0.798231781,4.821069717,2.826341867,-0.228875086,2.969222307,-57.608663,-34.584138,38.889049,1.026714,-15.324833,134.245555
583,2293071073,-7.843012333,55.53853607,-102.902092,-8.502435684,-0.611825526,5.043829441,5.425584316,-0.847870171,6.053761482,-57.75037,-34.594335,38.973113,1.11714,-15.338964,134.346451
584,2293087740,-7.64448452,55.51094818,-102.7133942,-8.304140091,-0.386942476,5.24714756,4.165989399,-0.851840138,6.929344177,-57.888772,-34.600784,39.060565,1.186573,-15.353161,134.46194
585,2293104407,-7.479679585,55.5281868,-102.5468369,-8.043167114,-0.538315952,4.854718208,3.221552849,1.921964407,6.540985107,-58.022825,-34.609756,39.141477,1.240266,-15.321128,134.570956
586,2293121074,-7.257611275,55.56568527,-102.3799515,-8.052270889,-0.611302912,4.992484093,6.622101307,3.135008097,6.703140259,-58.15703,-34.619944,39.224685,1.350634,-15.268878,134.682675
587,2293137741,-6.965821743,55.59584045,-102.1995239,-8.149893761,-0.694618821,5.358618736,10.11991024,2.659054518,7.091244698,-58.292862,-34.631521,39.313995,1.519299,-15.22456,134.800862
588,2293154408,-6.663685799,55.60237503,-102.0469208,-8.246470451,-0.891052306,5.44160223,12.10620117,1.39474678,5.977232456,-58.430303,-34.646372,39.404688,1.721069,-15.201314,134.900483
589,2293171075,-6.33262682,55.57709122,-101.9449615,-8.111769676,-1.261828184,5.291179657,16.34704781,-0.279089034,4.055282116,-58.565499,-34.667402,39.492874,1.99352,-15.205965,134.968071
590,2293187742,-5.951039314,55.53533173,-101.8926926,-7.945898056,-0.846158743,5.507797718,21.84102821,-1.058715463,2.290284872,-58.697931,-34.681505,39.584671,2.357537,-15.22361,135.006242
591,2293204409,-5.639072895,55.48139572,-101.8580856,-7.813180923,-0.612611592,5.785232544,18.53998375,-1.712889433,1.632907271,-58.828151,-34.691715,39.681092,2.666537,-15.252158,135.033457
592,2293221076,-5.384192944,55.42834854,-101.8160019,-7.814987183,-0.655047894,5.635481358,14.74436378,-1.670820117,1.904375911,-58.958401,-34.702632,39.775017,2.912276,-15.280005,135.065197
593,2293237743,-5.154129982,55.3787117,-101.7778168,-7.854161263,-0.667996705,5.388534546,13.44978142,-1.444710851,1.801425457,-59.089304,-34.713765,39.864826,3.136439,-15.304084,135.095221
594,2293254410,-4.918531418,55.33201599,-101.7265091,-7.908817291,-0.759837031,5.245669365,13.13228512,-1.303187728,2.273596048,-59.221118,-34.726429,39.952254,3.35531,-15.325804,135.133114
595,2293271077,-4.679104805,55.2883873,-101.6642761,-8.07137394,-0.598147929,5.243267059,12.8259306,-1.143300414,2.672513962,-59.355641,-34.736398,40.039642,3.569076,-15.344859,135.177656
596,2293287744,-4.500275612,55.25027084,-101.5997849,-8.093267441,-0.543592215,5.508106232,9.069766045,-0.818127453,2.788532019,-59.490529,-34.745458,40.131444,3.720239,-15.358494,135.224132
597,2293304411,-4.431286812,55.20050812,-101.538208,-8.102892876,-0.469737917,5.688242912,2.613417864,-1.503113508,2.645138979,-59.625577,-34.753287,40.226248,3.763796,-15.383546,135.268218
598,2293321078,-4.424703121,55.1249733,-101.4864883,-8.125387192,-0.66921705,5.774842262,-0.642597079,-3.017112017,2.18720293,-59.761,-34.764441,40.322495,3.753086,-15.433831,135.304671
599,2293337745,-4.40307045,55.03503036,-101.4620819,-8.00414753,-0.975797415,5.370992661,1.614771843,-3.804446459,1.182058215,-59.894402,-34.780704,40.412012,3.779999,-15.497238,135.324372
600,2293354412,-4.389022827,54.96524048,-101.4700394,-7.860550404,-0.555096805,5.060655117,2.753896713,-2.511158705,0.167282969,-60.025411,-34.789956,40.496356,3.825897,-15.539091,135.32716
601,2293371079,-4.353167534,54.91127396,-101.4999008,-7.869958401,-0.612847447,5.277470112,5.136781216,-1.51256454,-0.515846252,-60.156577,-34.80017,40.584314,3.91151,-15.5643,135.318563
602,2293387746,-4.347917557,54.87259293,-101.5231094,-7.802043915,-0.286246657,5.398892879,2.941906691,-0.619648039,-0.200713947,-60.286611,-34.804941,40.674296,3.960542,-15.574627,135.315218
603,2293404413,-4.421195984,54.83834839,-101.5183792,-7.798668385,-0.347767115,5.369036198,-3.140053034,-0.429038376,0.770039499,-60.416589,-34.810737,40.76378,3.908208,-15.581778,135.328052
604,2293421080,-4.522963047,54.81529999,-101.4820023,-7.729206562,-0.507247925,5.381859779,-6.40845108,0.152209878,1.907179236,-60.545409,-34.819191,40.853478,3.8014,-15.579241,135.359838
605,2293437747,-4.62131691,54.80821991,-101.4485474,-7.700364113,-0.939994335,5.300031662,-6.048478127,1.114043713,1.868901372,-60.673748,-34.834858,40.941812,3.700592,-15.560674,135.390986
606,2293454414,-4.689497948,54.80490494,-101.4478989,-7.78395319,-0.659157336,5.622311115,-2.580607891,1.435406208,0.7258448,-60.803481,-34.845844,41.035517,3.657582,-15.536751,135.403083
607,2293471081,-4.794140339,54.77777481,-101.4501114,-7.999814987,-0.781867743,5.792118549,-4.407267094,0.048235118,0.36429584,-60.936811,-34.858875,41.132052,3.584128,-15.535947,135.409155
608,2293487748,-4.901865005,54.70848846,-101.4340897,-8.022891998,-0.450135231,5.754328728,-5.740972519,-2.551217556,0.939787805,-61.070526,-34.866377,41.227957,3.488445,-15.578467,135.424818
609,2293504415,-5.004283905,54.61231995,-101.3720474,-7.932252407,-0.389463186,5.531126499,-7.800214291,-4.3096385,2.460484505,-61.20273,-34.872868,41.320142,3.358441,-15.650294,135.465826
610,2293521082,-5.122750282,54.52485657,-101.2926712,-7.747398853,-0.384320259,5.279585361,-9.641245842,-3.854424715,3.115427732,-61.331853,-34.879273,41.408135,3.197754,-15.714534,135.51775
611,2293537749,-5.234106064,54.46710205,-101.2443466,-7.665753841,-0.755797565,5.153226376,-7.725337505,-1.994852185,2.204140186,-61.459616,-34.89187,41.494022,3.068998,-15.747782,135.554486
612,2293554416,-5.299207211,54.43825531,-101.2250519,-7.691588402,-0.828353405,5.144157887,-3.088436842,-0.125009179,1.06001997,-61.587809,-34.905676,41.579758,3.017524,-15.749865,135.572153
613,2293571083,-5.34781599,54.42169952,-101.2179947,-7.824669838,-0.641916335,5.36713028,-1.010036826,0.705918074,0.379791528,-61.71822,-34.916375,41.66921,3.00069,-15.7381,135.578483
614,2293587750,-5.432225704,54.39946747,-101.2586823,-7.93346405,-0.470000058,5.458422184,-2.467104912,0.318461925,-0.244434804,-61.850444,-34.924208,41.760184,2.959572,-15.732792,135.574409
615,2293604417,-5.633390903,54.36727142,-101.298233,-7.936924458,-0.522718906,5.463716507,-8.652376175,-0.169754624,-0.847057045,-61.982726,-34.93292,41.851246,2.815366,-15.735621,135.560291
616,2293621084,-5.896665573,54.33569717,-101.3960648,-7.90851593,-0.641874313,5.285162926,-12.6657629,-0.327221632,-0.834609509,-62.114535,-34.943618,41.939332,2.60427,-15.741075,135.546381
617,2293637751,-6.128537178,54.3140831,-101.4640274,-7.856600761,-1.008523464,5.171701908,-10.37624073,0.405577302,-0.966668546,-62.245478,-34.960427,42.025527,2.431333,-15.734315,135.53027
618,2293654418,-6.24318552,54.31265259,-101.5061722,-7.775667191,-1.099699974,5.091255665,-2.75120759,1.763895512,-1.153141499,-62.375072,-34.978755,42.110381,2.38548,-15.704917,135.511051
619,2293671085,-6.246212006,54.33259583,-101.5356369,-7.763080597,-1.169554234,5.213758945,5.022894382,3.218902111,-1.681313753,-62.504457,-34.998248,42.197277,2.469195,-15.651269,135.483029
620,2293687752,-6.195000648,54.36244202,-101.6422272,-7.826849461,-0.710093856,5.429854393,8.325371742,3.596587181,-1.863330722,-62.634904,-35.010083,42.287775,2.607951,-15.591326,135.451973
621,2293704419,-6.176259041,54.38254166,-101.6945953,-7.804776669,-0.522285998,5.567574978,5.463823318,3.044537067,-1.174675226,-62.764984,-35.018788,42.380568,2.699015,-15.540584,135.432395
622,2293721086,-6.2446208,54.39842987,-101.7770157,-7.751298904,-0.521997154,5.522795677,-0.831823647,2.569434166,-0.590872228,-62.894172,-35.027488,42.472615,2.685151,-15.49776,135.422547
623,2293737753,-6.372710705,54.4001236,-101.8262634,-7.647595882,-0.630383849,5.410603523,-4.665148735,1.781779647,-0.434237748,-63.021632,-35.037994,42.562792,2.607399,-15.468064,135.41531
624,2293754420,-6.476023674,54.39510727,-101.8462296,-7.542313099,-0.698454976,5.290975094,-2.872329712,1.509382129,-0.598626435,-63.147337,-35.049635,42.650975,2.559527,-15.442908,135.405333
625,2293771087,-6.511764526,54.39393997,-101.8474808,-7.554577827,-0.650331616,5.432619572,0.568819702,1.701746345,-0.130285412,-63.273247,-35.060474,42.741519,2.569007,-15.414546,135.403162
626,2293787754,-6.544696808,54.38788223,-101.9052277,-7.747344494,-0.62277174,5.926071644,0.756996155,1.260413885,-0.335852951,-63.402369,-35.070854,42.840287,2.581624,-15.393539,135.397564
627,2293804421,-6.615314007,54.35514069,-101.8682175,-7.996439457,-0.571856022,5.907628059,-2.198920727,-0.162173212,0.189572394,-63.535643,-35.080385,42.938747,2.544975,-15.396242,135.400724
628,2293821088,-6.702672958,54.30221939,-101.9677658,-7.930203915,-0.996895134,5.492104053,-1.601696491,-1.507505774,-1.389956355,-63.667813,-35.097,43.030282,2.51828,-15.421367,135.377558
629,2293837755,-6.70290041,54.24307632,-102.0295868,-7.797715664,-0.520105004,5.210539341,5.623563766,-1.490294337,-2.637884378,-63.797775,-35.105668,43.117124,2.612006,-15.446205,135.333593
630,2293854422,-6.607671261,54.19535065,-102.1622391,-7.705788136,-0.182712257,5.087185383,10.64007092,-1.113519073,-2.308736324,-63.926205,-35.108713,43.20191,2.789341,-15.464764,135.295114
631,2293871089,-6.507828712,54.1686821,-102.2957001,-7.74444294,-0.984535754,5.104892731,10.56529522,0.079745173,-1.946610808,-64.055279,-35.125122,43.286992,2.965429,-15.463435,135.26267
632,2293887756,-6.235955238,54.11960983,-102.3079758,-7.935498238,-1.215522289,5.796521187,22.56900406,-0.712271214,-2.882080793,-64.187537,-35.145381,43.383601,3.341579,-15.475306,135.214635
633,2293904423,-5.993085384,54.02462387,-102.4782867,-7.953951836,-0.424922287,6.121151447,22.43165398,-3.683593273,-4.670016289,-64.320103,-35.152463,43.48562,3.71544,-15.536699,135.136801
634,2293921090,-5.718601227,53.91654587,-102.8341141,-7.756415367,-0.301741242,5.881597996,22.89746094,-5.181062698,-4.297768593,-64.449377,-35.157492,43.583647,4.097064,-15.62305,135.065172
635,2293937757,-5.469127178,53.7737236,-102.7715759,-7.570086479,0.004073866,5.984589577,20.41561699,-6.219670296,-2.697943449,-64.575545,-35.157424,43.68339,4.437324,-15.726711,135.020206
636,2293954424,-5.354410172,53.68147278,-102.8324203,-7.509545803,-0.480336964,5.494303226,10.56129265,-3.769473791,-1.542589545,-64.700704,-35.16543,43.774962,4.613346,-15.789536,134.994496
