PacketCounter,SampleTimeFine,Euler_X,Euler_Y,Euler_Z,Acc_X,Acc_Y,Acc_Z,Gyr_X,Gyr_Y,Gyr_Z,Velo_X,Velo_Y,Velo_Z,ANG_X,ANG_Y,ANG_Z
0,2283400293,-122.2111664,-80.09454346,35.66281891,0.0,0.0,0.0,0.0,0.0,0.0,0.0,0.0,0.0,0.0,0.0,0.0
1,2283416960,-119.0765762,-80.01209259,32.73160172,9.735214233,-1.629215956,-0.751469135,8.973308563,7.792690754,11.17613125,0.162254,-0.027154,-0.012524,0.149555,0.129878,0.186269
2,2283433627,-116.4190292,-79.84187317,30.28637314,9.724508286,-1.516900778,-0.778629899,8.026654243,7.265060425,10.61679173,0.324329,-0.052436,-0.025501,0.283333,0.250962,0.363216
3,2283450294,-114.7378616,-79.71326447,28.801754,9.718069077,-1.514120221,-0.802334011,7.299322605,6.357990742,10.3187027,0.486297,-0.077671,-0.038873,0.404988,0.356929,0.535194
4,2283466961,-113.6295471,-79.61236572,27.85733604,9.668540955,-1.598710656,-0.815148473,5.990756035,6.221833706,9.85179615,0.647439,-0.104316,-0.052459,0.504834,0.460626,0.699391
5,2283483628,-112.7726364,-79.51302338,27.12995529,9.771286011,-1.580407858,-0.694998145,5.184204102,6.398771763,8.912658691,0.810294,-0.130656,-0.064042,0.591237,0.567272,0.847935
6,2283500295,-112.1015091,-79.43412781,26.52989578,9.864135742,-1.463041902,-0.492317468,1.651244998,5.165641308,8.104572296,0.974696,-0.15504,-0.072247,0.618758,0.653366,0.983011
7,2283516962,-111.5723495,-79.38355255,26.01119804,9.740592003,-1.580607891,-0.495907664,-1.895173907,2.87872076,7.951164246,1.137039,-0.181383,-0.080512,0.587172,0.701345,1.11553
8,2283533629,-111.1310043,-79.32871246,25.55064774,9.67921257,-1.556385756,-0.623133957,-3.525819778,1.489052296,7.700850487,1.298359,-0.207323,-0.090898,0.528408,0.726163,1.243878
9,2283550296,-110.8858719,-79.25684357,25.24892998,9.690854073,-1.461310625,-0.540666699,-5.28769207,0.044374015,7.934061527,1.459873,-0.231678,-0.099909,0.44028,0.726903,1.376112
10,2283566963,-110.8800125,-79.17470551,25.14174461,9.636942863,-1.516929388,-0.389455676,-7.758795261,-2.236847639,8.159236908,1.620489,-0.25696,-0.1064,0.310967,0.689622,1.512099
11,2283583630,-111.0024109,-79.08319855,25.13821793,9.624158859,-1.66614902,-0.488273472,-9.376961708,-4.103291035,8.215906143,1.780892,-0.284729,-0.114538,0.154684,0.621234,1.649031
12,2283600297,-111.2265396,-78.97473145,25.21956253,9.587175369,-1.759689212,-0.660830438,-10.35826206,-5.367022514,8.218197823,1.940678,-0.314057,-0.125552,-0.017954,0.531784,1.786001
13,2283616964,-111.5191498,-78.84502411,25.37316322,9.646018982,-1.708393812,-0.772356987,-10.02586746,-6.092803955,8.39186573,2.101445,-0.34253,-0.138425,-0.185052,0.430237,1.925865
14,2283633631,-111.8870544,-78.6947937,25.60483742,9.653624535,-1.74410212,-0.687060535,-9.778231621,-6.828362942,8.907167435,2.262339,-0.371598,-0.149876,-0.348023,0.316431,2.074318
15,2283650298,-112.3252182,-78.52386475,25.90286446,9.626801491,-1.679073453,-0.768353224,-9.899879456,-7.926624298,9.45663166,2.422786,-0.399583,-0.162682,-0.513021,0.184321,2.231929
16,2283666965,-112.82164,-78.33609009,26.24784851,9.621175766,-1.711478353,-0.85337615,-10.2678833,-8.736395836,10.05166721,2.583139,-0.428108,-0.176905,-0.684152,0.038714,2.399457
17,2283683632,-113.3939362,-78.12743378,26.66417885,9.66382885,-1.697803974,-0.793562472,-10.63211823,-9.864825249,10.71988773,2.744203,-0.456405,-0.190131,-0.861354,-0.1257,2.578122
18,2283700299,-114.0451813,-77.89992523,27.1517086,9.640759468,-1.773631692,-0.704411447,-11.07185268,-11.26362801,11.27909279,2.904882,-0.485966,-0.201871,-1.045885,-0.313427,2.766107
19,2283716966,-114.7802353,-77.6479187,27.70730209,9.581965446,-1.755598783,-0.660728633,-12.03966522,-13.01807213,12.00035,3.064581,-0.515226,-0.212883,-1.246546,-0.530395,2.966113
20,2283733633,-115.608017,-77.36118317,28.35490227,9.611253738,-1.783742428,-0.754395783,-12.293787,-15.43996716,13.12193108,3.224769,-0.544955,-0.225456,-1.451442,-0.787728,3.184812
21,2283750300,-116.486145,-77.03689575,29.06280327,9.560254097,-1.834412932,-0.85250634,-11.64842606,-17.62405968,14.45496178,3.384107,-0.575529,-0.239664,-1.645582,-1.081462,3.425728
22,2283766967,-117.4151917,-76.67475891,29.82831764,9.614253998,-1.746895313,-0.868018746,-11.30747318,-19.80373955,15.69120216,3.544345,-0.604644,-0.254131,-1.83404,-1.411524,3.687248
23,2283783634,-118.4002686,-76.27053833,30.6404705,9.632949829,-1.742412329,-0.996290505,-11.82422256,-22.14739037,17.21393967,3.704894,-0.633684,-0.270736,-2.03111,-1.780647,3.974147
24,2283800301,-119.3921051,-75.83870697,31.46983719,9.667392731,-1.913692594,-1.154414654,-11.31182575,-23.71632004,18.11553764,3.866017,-0.665579,-0.289976,-2.21964,-2.175919,4.276073
25,2283816968,-120.3964157,-75.37133789,32.30762863,9.774160385,-1.971317768,-1.212436795,-11.52742863,-25.44559097,19.27616501,4.02892,-0.698434,-0.310183,-2.411764,-2.600012,4.597342
26,2283833635,-121.3918991,-74.87046814,33.11934662,9.631407738,-1.860894442,-1.167615771,-12.48789501,-26.77517128,20.53566551,4.189443,-0.729449,-0.329643,-2.619896,-3.046265,4.939603
27,2283850302,-122.4257431,-74.32053375,33.97380066,9.53331852,-1.934832931,-1.199879527,-12.47802925,-29.63300896,22.06125832,4.348332,-0.761696,-0.349641,-2.827863,-3.540148,5.307291
28,2283866969,-123.5080566,-73.71338654,34.87865829,9.58540535,-1.974657893,-1.076337337,-12.43338013,-33.08843613,23.67510223,4.508089,-0.794607,-0.36758,-3.035086,-4.091622,5.701876
29,2283883636,-124.6670609,-73.04515839,35.8326416,9.658655167,-1.990871787,-1.039226294,-14.34244251,-36.94044495,25.30182457,4.669067,-0.827788,-0.3849,-3.274127,-4.707296,6.123573
30,2283900303,-125.8875885,-72.31128693,36.81080627,9.771054268,-2.068986893,-1.333681226,-16.81852722,-40.84536362,27.16878891,4.831918,-0.862271,-0.407128,-3.554436,-5.388052,6.576386
31,2283916970,-127.1415558,-71.50849152,37.77610397,9.889252663,-2.104646683,-1.328436732,-19.81241798,-44.37453461,29.37682533,4.996739,-0.897348,-0.429269,-3.884643,-6.127628,7.066
32,2283933637,-128.3937531,-70.64131165,38.70975494,9.89427948,-2.281745195,-1.369881988,-21.75952721,-47.66082001,31.42626381,5.161644,-0.935377,-0.4521,-4.247302,-6.921975,7.589771
33,2283950304,-129.6263885,-69.71205902,39.60009003,9.959198952,-2.462815046,-1.869674087,-23.27555275,-50.81610489,33.33391571,5.327631,-0.976424,-0.483261,-4.635228,-7.76891,8.145336
34,2283966971,-130.8592682,-68.74319458,40.44993973,10.04529381,-2.308431149,-2.193675518,-25.80741882,-53.04608536,34.05606461,5.495053,-1.014898,-0.519822,-5.065352,-8.653011,8.712937
35,2283983638,-132.1329498,-67.7352066,41.33428955,10.49974251,-2.284008741,-2.47487855,-27.17134285,-56.30340958,33.84644699,5.670049,-1.052965,-0.56107,-5.518208,-9.591401,9.277044
36,2284000305,-133.4268951,-66.69448853,42.3217926,11.31208038,-1.914542794,-2.818692446,-22.97551346,-60.73456955,31.97760391,5.858584,-1.084874,-0.608048,-5.901133,-10.603644,9.810004
37,2284016972,-134.6227112,-65.60710144,43.25249863,11.85108089,-1.500106931,-2.907286882,-20.51287651,-63.08110046,33.31341171,6.056102,-1.109876,-0.656503,-6.243014,-11.654996,10.365228
38,2284033639,-135.7557831,-64.39825439,44.23035049,11.7306633,-1.099879861,-3.473433495,-14.48395252,-70.54955292,36.14081955,6.251613,-1.128207,-0.714394,-6.484413,-12.830822,10.967575
39,2284050306,-136.8509216,-63.04855347,45.28834534,12.86185074,-1.237903833,-2.939669609,-8.209623337,-79.59176636,38.82295609,6.465977,-1.148839,-0.763388,-6.62124,-14.157351,11.614624
40,2284066973,-137.8031464,-61.62031555,46.2468605,13.5813036,-1.090842009,-2.151130676,-5.446784973,-83.07248688,42.24699402,6.692332,-1.16702,-0.79924,-6.71202,-15.541892,12.318741
41,2284083640,-138.649704,-60.13729095,47.05929565,13.77371216,-0.567207873,-1.849115849,-7.355544567,-84.80401611,46.04291534,6.921894,-1.176473,-0.830059,-6.834612,-16.955292,13.086123
42,2284100307,-139.4439545,-58.64610291,47.74047089,13.05545235,-0.090937257,-1.535189152,-11.50145245,-84.63218689,48.13830566,7.139485,-1.177989,-0.855645,-7.026303,-18.365828,13.888428
43,2284116974,-140.1654205,-57.0110054,48.30027008,13.28733063,0.46011129,-0.206981272,-13.7388134,-90.67967987,55.60173798,7.360941,-1.17032,-0.859095,-7.255283,-19.877156,14.815124
44,2284133641,-140.2906494,-55.19122314,48.32187653,13.48505878,0.545285523,0.773905277,-5.267329216,-89.66980743,76.0579071,7.585692,-1.161232,-0.846197,-7.343072,-21.371653,16.082756
45,2284150308,-139.8909149,-53.00481415,48.06722641,13.05670261,1.26976037,0.091875285,12.72182941,-101.3985672,98.61808014,7.803304,-1.140069,-0.844666,-7.131042,-23.061629,17.726391
46,2284166975,-139.6016846,-50.59676361,47.99786377,12.3330307,-0.726974308,-1.450492144,15.28757381,-116.0956345,103.8088531,8.008855,-1.152185,-0.868841,-6.876249,-24.996556,19.456539
47,2284183642,-139.6364288,-48.47681046,48.04987335,12.53362656,-6.368118763,-2.903506756,1.523220778,-106.2848663,89.7802124,8.217749,-1.25832,-0.917233,-6.850862,-26.76797,20.952876
48,2284200309,-139.9319305,-46.75206375,48.00348663,11.48119926,-8.280455589,-4.231297016,-19.01942062,-86.29455566,76.66440582,8.409102,-1.396328,-0.987755,-7.167852,-28.206213,22.230616
49,2284216976,-139.7855682,-45.27254486,47.6620636,9.446075439,-6.038572788,-3.204920769,-5.7697649,-67.27597046,75.74341583,8.566537,-1.496971,-1.04117,-7.264015,-29.327479,23.493006
50,2284233643,-139.3505859,-44.19894409,47.00432587,7.913021564,-2.714430571,-0.875572801,-1.929243684,-39.48515701,70.28105164,8.698421,-1.542212,-1.055763,-7.296169,-29.985565,24.664357
51,2284250310,-138.8623047,-43.50999832,46.39781189,5.83677578,-0.001905802,-2.089751959,3.543143749,-22.91562843,54.01053238,8.795701,-1.542244,-1.090592,-7.237117,-30.367492,25.564533
52,2284266977,-139.2908173,-43.19228745,45.77193451,6.575631618,0.974982202,-1.455843568,-51.90599823,-5.242692947,40.31125259,8.905295,-1.525994,-1.114856,-8.102217,-30.45487,26.236387
53,2284283644,-139.9509277,-43.66906738,45.19441986,5.514356613,-0.142321244,1.818302631,-63.69062805,29.24379349,8.004441261,8.997201,-1.528366,-1.084551,-9.163727,-29.967473,26.369794
54,2284300311,-140.0119171,-44.61426163,44.73046112,3.016647577,-0.157107487,0.987107337,-23.53242493,47.03847504,-13.84877777,9.047478,-1.530984,-1.068099,-9.555934,-29.183498,26.138981
55,2284316978,-139.8943024,-45.82452011,44.60689926,3.984263659,-1.260727644,-1.460507512,1.20707202,49.75228882,-35.5800972,9.113882,-1.551996,-1.092441,-9.535816,-28.354293,25.545979
56,2284333645,-139.3840942,-47.49549866,44.44090652,6.171194553,-2.366678953,-2.354615927,22.7975235,71.90943146,-52.74231339,9.216735,-1.591441,-1.131685,-9.155857,-27.155802,24.66694
57,2284350312,-138.6820679,-49.62281799,44.30804825,6.573562622,-0.091100626,-2.206021547,35.56536102,91.15267181,-72.81812286,9.326294,-1.592959,-1.168452,-8.563101,-25.636591,23.453305
58,2284366979,-138.233963,-52.14329529,44.21435547,7.706739426,2.099525213,-1.553768516,22.11161041,107.0542526,-90.56658936,9.45474,-1.557967,-1.194348,-8.194574,-23.852353,21.943862
59,2284383646,-138.0605927,-55.06821823,44.10072708,8.090668678,1.910175204,-1.249068022,4.750384808,124.9710007,-106.5471115,9.589584,-1.526131,-1.215166,-8.115401,-21.769503,20.168077
60,2284400313,-138.0285645,-58.30321884,43.95266342,8.769855499,0.317065656,-1.757620692,-5.496235371,139.1534271,-118.2158203,9.735748,-1.520847,-1.24446,-8.207005,-19.450279,18.197813
61,2284416980,-138.1731873,-61.84526062,43.72428513,9.682433128,0.709528863,-2.914433241,-20.4812851,154.3300934,-128.7628021,9.897122,-1.509022,-1.293034,-8.54836,-16.878111,16.051766
62,2284433647,-138.4160309,-65.65140533,43.42376328,10.45008945,1.303636551,-2.944613457,-30.570961,167.5314789,-137.7312012,10.07129,-1.487295,-1.342111,-9.057876,-14.08592,13.756246
63,2284450314,-138.6648712,-69.65259552,43.11191559,11.34259033,0.038798906,-3.345137835,-31.99259949,176.5180359,-145.1578217,10.260333,-1.486648,-1.397863,-9.591086,-11.143953,11.336949
64,2284466981,-138.9021912,-73.86660004,42.9065094,11.64497089,-1.429978848,-4.020975113,-25.70102692,184.8782043,-155.21315,10.454416,-1.510481,-1.464879,-10.019436,-8.06265,8.750063
65,2284483648,-139.2749786,-78.25583649,43.20259476,12.40511131,-1.708132863,-4.464995861,-4.911876678,188.7734222,-167.4082489,10.661168,-1.53895,-1.539296,-10.101301,-4.916426,5.959926
66,2284500315,-139.8636932,-82.81820679,44.11112595,13.43775654,-1.542992115,-4.15104866,18.62309456,195.6661682,-176.2835388,10.885131,-1.564667,-1.60848,-9.790916,-1.655323,3.021867
67,2284516982,-142.6728516,-87.4528656,47.59282684,13.47484398,-1.218263507,-3.740448713,39.79957581,199.4735413,-179.897644,11.109712,-1.584971,-1.670821,-9.12759,1.669236,0.023573
68,2284533649,48.46607971,-87.87680817,-142.7637634,12.92014217,-0.57254082,-2.806959867,46.34968948,200.4141235,-180.7312469,11.325048,-1.594513,-1.717604,-8.355095,5.009471,-2.988614
69,2284550316,45.04779434,-83.38037872,-138.6752319,13.20147991,-0.598024011,-1.643225193,39.47402191,193.2800598,-176.2597351,11.545073,-1.60448,-1.744991,-7.697195,8.230805,-5.926276
70,2284566983,45.12431335,-79.07645416,-138.205658,14.3325386,-1.702124119,-1.838138342,32.11951065,180.8207703,-172.8908844,11.783949,-1.632849,-1.775627,-7.16187,11.244485,-8.807791
71,2284583650,45.62712479,-74.96944427,-138.4577484,15.16003799,-3.325904131,-3.617346525,15.00068569,166.670639,-171.3933716,12.036616,-1.688281,-1.835916,-6.911859,14.022329,-11.664347
72,2284600317,45.54445648,-71.13389587,-138.4748535,15.39542961,-4.460506439,-4.716152191,-6.430091381,157.5945587,-159.0559845,12.293206,-1.762623,-1.914519,-7.019027,16.648905,-14.31528
73,2284616984,44.66675186,-67.70391083,-138.0536346,14.44928265,-3.641111135,-4.611466885,-29.53931427,149.1951904,-134.9977417,12.534027,-1.823308,-1.991377,-7.511349,19.135492,-16.565242
74,2284633651,43.16612625,-64.94947052,-137.4571991,11.94347382,-4.219432831,-5.387934685,-57.87520599,127.5242615,-100.6760788,12.733085,-1.893632,-2.081176,-8.475936,21.260896,-18.243177
75,2284650318,41.52809906,-63.07822418,-136.9987946,7.935508728,-7.905890465,-7.333333969,-74.2299881,90.48301697,-63.99871063,12.865343,-2.025397,-2.203398,-9.713102,22.768946,-19.309822
76,2284666985,40.50613022,-62.33084488,-136.7438354,5.56551981,-12.23821735,-9.807262421,-48.35374451,38.76845551,-22.46287727,12.958102,-2.229367,-2.366852,-10.518998,23.415087,-19.684203
77,2284683652,40.00378036,-62.70391083,-136.3762665,6.968928814,-11.25603104,-9.506351471,-11.03947258,-9.094004631,22.59165382,13.074251,-2.416968,-2.525291,-10.702989,23.26352,-19.307675
78,2284700319,40.2832489,-63.99969101,-135.8272858,8.528045654,-9.207681656,-7.797008514,45.90704346,-47.44166946,60.53974533,13.216385,-2.570429,-2.655241,-9.937872,22.472826,-18.298679
79,2284716986,40.62819672,-65.62888336,-134.5919189,10.68331337,-8.147504807,-5.812250137,87.62202454,-50.58129883,85.43727112,13.39444,-2.706221,-2.752112,-8.477505,21.629804,-16.874724
80,2284733653,40.05739975,-67.00692749,-133.4442596,11.19783878,5.562361717,0.871867895,28.8306179,-41.08851242,71.58378601,13.581071,-2.613515,-2.737581,-7.996995,20.944995,-15.681661
81,2284750320,41.23868942,-66.42139435,-132.95755,13.35414219,22.44725227,10.00820065,97.62000275,38.27103043,-16.93187523,13.80364,-2.239394,-2.570778,-6.369995,21.582846,-15.963859
82,2284766987,42.75136185,-66.2258606,-132.3713379,6.770553589,10.6434269,5.785690308,122.5357361,21.57810211,1.451045156,13.916483,-2.062004,-2.47435,-4.327733,21.942481,-15.939675
83,2284783654,43.95635223,-68.60678101,-133.3965607,13.97831726,2.822234869,-13.45857811,14.95377731,-117.108017,80.4272995,14.149455,-2.014967,-2.69866,-4.078503,19.990681,-14.59922
84,2284800321,41.25988388,-69.84645844,-131.0584717,22.41004753,0.293376327,-5.811681747,-31.37198067,-16.60843086,86.43087006,14.522956,-2.010077,-2.795521,-4.601369,19.713874,-13.158705
85,2284816988,37.47862244,-71.00556183,-126.2501221,13.09802914,-10.49081421,6.691401482,44.31552505,12.96421528,117.7786484,14.741256,-2.184924,-2.683998,-3.862777,19.929944,-11.195728
86,2284833655,33.91014481,-71.99830627,-122.5517883,8.131418228,-11.74647522,5.834832191,-3.799156189,-2.287131786,89.76358795,14.87678,-2.380699,-2.586751,-3.926096,19.891825,-9.699668
87,2284850322,33.40874481,-72.93869781,-121.962059,7.284694195,5.672851086,1.376275778,3.910699606,-36.48117447,36.93877029,14.998192,-2.286151,-2.563813,-3.860918,19.283805,-9.084022
88,2284866989,32.004879,-74.08001709,-121.0900879,9.058325768,2.711363792,2.140466452,-33.88189316,-45.07641602,46.77093887,15.149164,-2.240962,-2.528139,-4.425616,18.532531,-8.304506
89,2284883656,29.59218025,-75.0692749,-119.558197,10.42502308,3.490859985,-1.55501461,-55.97176743,-33.99777222,48.90033722,15.322914,-2.182781,-2.554056,-5.358479,17.965901,-7.4895
90,2284900323,27.37276268,-76.00128937,-117.031044,10.41342068,-1.513995767,-0.548586309,13.83101749,-26.3654747,57.7171402,15.496471,-2.208014,-2.563199,-5.127962,17.526476,-6.527548
91,2284916990,25.10958672,-76.79827881,-114.5432129,9.954719543,-2.273790598,1.432230949,9.548666,-22.51638412,50.18819046,15.662383,-2.245911,-2.539328,-4.968818,17.151203,-5.691078
92,2284933657,23.10710526,-77.54478455,-112.4595718,9.398395538,0.678340375,2.844730616,2.088917971,-24.73888969,40.97136688,15.819023,-2.234605,-2.491916,-4.934003,16.738888,-5.008222
93,2284950324,20.69697189,-78.42382813,-110.2715759,9.549738884,0.976400852,1.444697976,-15.83119011,-34.10052109,42.42815781,15.978185,-2.218332,-2.467838,-5.197856,16.170546,-4.301086
94,2284966991,18.07008171,-79.33521271,-107.8082809,10.08881187,0.199430212,0.5232054,-12.20310211,-37.52350998,42.52614594,16.146332,-2.215008,-2.459118,-5.401241,15.545154,-3.592317
95,2284983658,15.23335266,-80.23156738,-105.106636,10.1833868,0.26987958,0.802702308,-10.26260662,-38.66270065,40.47522736,16.316055,-2.21051,-2.44574,-5.572284,14.900776,-2.91773
96,2285000325,11.9672451,-81.12192535,-102.0011139,9.84076786,0.317228407,1.242929339,-11.69473457,-40.48381042,39.6414299,16.480068,-2.205223,-2.425025,-5.767196,14.226046,-2.25704
97,2285016992,8.210177422,-81.96002197,-98.50410461,9.702703476,0.002070192,1.069773316,-17.52736855,-40.49867249,37.42789459,16.64178,-2.205188,-2.407195,-6.059319,13.551068,-1.633242
98,2285033659,3.872453451,-82.74034119,-94.48819733,9.663541794,-0.414923489,0.208120555,-21.16129684,-40.42723465,35.60110855,16.802839,-2.212103,-2.403726,-6.412007,12.877281,-1.03989
99,2285050326,-1.229816556,-83.44180298,-89.71421051,9.743255615,-0.139888659,-0.044459917,-21.51579285,-39.27091217,34.6659584,16.965227,-2.214434,-2.404467,-6.770604,12.222766,-0.462124
100,2285066993,-7.486151218,-84.05712891,-83.7578125,9.615008354,-0.183479294,-0.206178278,-19.92666245,-38.29959488,35.61610413,17.125477,-2.217492,-2.407903,-7.102715,11.584439,0.131478
101,2285083660,-15.08948326,-84.58543396,-76.41159058,9.558506966,-0.548032463,-0.089352533,-17.41880608,-38.56434631,36.45998764,17.284785,-2.226626,-2.409392,-7.393028,10.9417,0.739144
102,2285100327,-23.87375641,-84.98921204,-67.82360077,9.601807594,-0.752547324,0.052993897,-13.76920223,-37.68006897,36.12786484,17.444815,-2.239168,-2.408509,-7.622515,10.313699,1.341275
103,2285116994,-33.4700737,-85.25266266,-58.36927414,9.576288223,-1.057721376,-0.335111082,-10.44108963,-36.4739418,34.93039703,17.60442,-2.256797,-2.414094,-7.796533,9.7058,1.923448
104,2285133661,-43.23866272,-85.38374329,-48.70310593,9.808930397,-1.100400448,-0.318374187,-7.95520401,-35.15777206,32.49207306,17.767902,-2.275137,-2.4194,-7.92912,9.119837,2.464983
105,2285150328,-52.53828049,-85.38620758,-39.48259735,10.00477982,-0.933251619,-0.399980098,-6.438105106,-32.84491348,30.04350662,17.934648,-2.290691,-2.426066,-8.036422,8.572422,2.965708
106,2285166995,-61.12197113,-85.28366089,-30.96227264,9.996660233,-1.061597109,-0.66504401,-5.41006422,-31.23792267,28.24383736,18.101259,-2.308384,-2.43715,-8.12659,8.05179,3.436439
107,2285183662,-68.90479279,-85.10743713,-23.21897507,9.902949333,-1.169292927,-0.96241492,-3.889470816,-30.66698265,26.37379074,18.266308,-2.327872,-2.45319,-8.191415,7.540674,3.876002
108,2285200329,-75.75558472,-84.88511658,-16.42704391,9.815207481,-1.154700518,-0.745744109,-4.994495869,-29.7044754,23.88841057,18.429895,-2.347117,-2.465619,-8.274657,7.045599,4.274142
109,2285216996,-81.96274567,-84.62607574,-10.29780674,9.854986191,-1.131743431,-0.591154099,-6.128266335,-29.88978958,22.1499176,18.594145,-2.365979,-2.475472,-8.376795,6.547436,4.643307
110,2285233663,-87.5528717,-84.32294464,-4.817758083,9.788473129,-1.254973531,-0.302521765,-8.052807808,-29.79862404,21.42921638,18.757286,-2.386895,-2.480514,-8.511008,6.050792,5.000461
111,2285250330,-92.69966125,-83.98506927,0.208558142,9.634627342,-1.316495538,-0.730727255,-8.713522911,-30.71262169,20.6319313,18.917863,-2.408837,-2.492693,-8.656233,5.538915,5.344327
112,2285266997,-97.46112061,-83.62575531,4.86195755,9.465035439,-1.522746682,-1.256483078,-8.028009415,-31.87873077,19.24108315,19.075614,-2.434216,-2.513634,-8.790033,5.007603,5.665012
113,2285283664,-101.8026657,-83.25436401,9.084806442,9.367612839,-1.547641873,-0.687741995,-8.702521324,-32.22968674,17.56769943,19.231741,-2.46001,-2.525096,-8.935075,4.470442,5.957807
114,2285300331,-105.899704,-82.86364746,13.0526247,9.237322807,-1.557289243,-0.767794847,-9.410692215,-33.51594925,16.31317711,19.385696,-2.485965,-2.537893,-9.09192,3.911843,6.229693
115,2285316998,-109.6702576,-82.45365906,16.71254349,9.310357094,-1.620496392,-1.13401854,-8.360548019,-34.21150208,15.30359268,19.540869,-2.512973,-2.556793,-9.231262,3.341651,6.484753
116,2285333665,-113.1330795,-82.02243042,20.06688499,9.505208969,-1.423942685,-1.287226558,-8.269275665,-34.72489929,14.61397839,19.699289,-2.536705,-2.578247,-9.369083,2.762903,6.728319
117,2285350332,-116.4307556,-81.53192902,23.2077961,9.66823101,-0.828831434,-0.714048624,-11.26422501,-36.79127502,15.87816811,19.860426,-2.550519,-2.590148,-9.55682,2.149715,6.992955
118,2285366999,-119.698288,-80.92623901,26.35049629,9.815581322,-0.873793125,-0.797310352,-9.61339283,-42.454319,18.99703217,20.024019,-2.565082,-2.603437,-9.717043,1.442143,7.309572
119,2285383666,-122.8238373,-80.22216034,29.37689018,9.923723221,-1.426414967,-1.01715517,-8.320634842,-47.33067322,21.14084244,20.189414,-2.588856,-2.62039,-9.85572,0.653298,7.661919
120,2285400333,-125.8722839,-79.43115234,32.26110077,9.896845818,-1.26148653,-0.659485161,-12.49229431,-52.00862122,22.40480042,20.354361,-2.609881,-2.631381,-10.063925,-0.213512,8.035332
121,2285417000,-128.7919312,-78.52536011,34.93661499,10.02320194,-1.166158915,-0.512787402,-17.5299015,-57.36194611,25.07239723,20.521414,-2.629317,-2.639927,-10.35609,-1.169544,8.453205
122,2285433667,-131.4797974,-77.48532104,37.3406601,9.905843735,-1.258041024,-1.01685369,-20.09579659,-63.15378189,28.85955811,20.686511,-2.650284,-2.656875,-10.69102,-2.222107,8.934198
123,2285450334,-133.9845123,-76.32281494,39.551651,10.08950615,-1.125476837,-1.535728097,-20.98956871,-69.42743683,31.31790352,20.854669,-2.669042,-2.68247,-11.040846,-3.379231,9.456163
124,2285467001,-136.3227844,-75.04712677,41.62234497,10.84388924,-1.120636702,-2.079242706,-19.8282814,-75.94752502,32.68003082,21.0354,-2.687719,-2.717124,-11.371317,-4.645023,10.00083
125,2285483668,-138.399765,-73.69257355,43.52381134,12.13227081,-0.795791149,-2.132719517,-14.66569901,-80.62957764,32.93198395,21.237605,-2.700982,-2.752669,-11.615745,-5.988849,10.549696
126,2285500335,-140.0998383,-72.24505615,45.15589142,12.71464634,-0.333017409,-2.482838631,-8.286019325,-84.54306793,35.46963501,21.449516,-2.706532,-2.79405,-11.753845,-7.3979,11.140857
127,2285517002,-141.4420624,-70.65834808,46.5561409,12.90873718,0.354247063,-3.019627094,-0.794879258,-90.68067169,40.0297966,21.664662,-2.700628,-2.844377,-11.767093,-8.909245,11.80802
128,2285533669,-142.4931335,-68.91397095,47.86816788,13.73910332,0.230010107,-2.928260803,10.90414619,-99.23170471,43.60228348,21.893647,-2.696794,-2.893181,-11.585357,-10.563107,12.534725
129,2285550336,-143.23703,-67.10968781,48.98893738,14.70498943,0.828064024,-2.161967516,17.819664,-101.5538712,45.8526535,22.13873,-2.682993,-2.929214,-11.288363,-12.255672,13.298936
130,2285567003,-143.9741364,-65.18781281,50.04591751,14.93240929,1.581127524,-1.177067518,13.88309097,-108.1068115,48.37755585,22.387603,-2.656641,-2.948832,-11.056978,-14.057452,14.105229
131,2285583670,-144.5308228,-63.2201767,50.90576553,15.41815853,0.691562176,0.826757669,13.16091537,-109.0407639,51.39141464,22.644572,-2.645115,-2.935053,-10.837629,-15.874798,14.961753
132,2285600337,-144.0331116,-61.37010574,51.0681076,13.26498795,-0.655268133,1.29757762,38.59070969,-92.93414307,61.80215454,22.865655,-2.656036,-2.913427,-10.194451,-17.4237,15.991789
133,2285617004,-142.9423981,-59.10126495,50.91062164,10.80454254,-0.959318161,-1.252653122,57.33014297,-106.839386,85.45982361,23.045731,-2.672025,-2.934305,-9.238949,-19.204356,17.416119
134,2285633671,-142.0777893,-56.45901871,50.45843887,10.27811241,-6.713251591,-2.433505058,29.00974274,-117.2194366,108.6653519,23.217033,-2.783913,-2.974863,-8.755453,-21.158013,19.227208
135,2285650338,-141.1376038,-54.44773102,50.01912689,9.698669434,-10.795784,-3.689440966,34.76689529,-85.53689575,87.31839752,23.378677,-2.963843,-3.036354,-8.176005,-22.583628,20.682515
136,2285667005,-141.3216858,-53.17900085,49.83318329,9.044712067,-0.515163839,-3.33933568,-20.00799751,-55.4569397,53.3885231,23.529422,-2.972429,-3.09201,-8.509472,-23.50791,21.572324
137,2285683672,-141.996582,-52.40687943,49.3989296,6.95937252,3.089446306,0.968310297,-61.19252014,-26.79454231,41.70277023,23.645412,-2.920938,-3.075871,-9.529347,-23.954486,22.26737
138,2285700339,-142.6801605,-52.05962372,49.04699326,5.717552185,-1.155820608,0.959729791,-57.64173508,-8.859376907,23.62006187,23.740705,-2.940202,-3.059876,-10.490043,-24.102142,22.661038
139,2285717006,-143.5650024,-52.26764679,49.05589294,4.139111519,-2.130075932,-0.738264382,-52.61375046,9.495806694,-7.100502014,23.80969,-2.975703,-3.07218,-11.366939,-23.943879,22.542696
140,2285733673,-144.1904907,-52.90473557,49.25804901,3.461067677,-0.796326935,-1.202437639,-27.84654236,26.2414093,-27.85219955,23.867374,-2.988975,-3.092221,-11.831048,-23.506522,22.078493
141,2285750340,-144.4103394,-53.97306824,49.65031052,3.115343332,-1.493204236,-1.420054913,5.766818047,43.59179306,-48.15982056,23.919296,-3.013862,-3.115889,-11.734934,-22.779992,21.275829
142,2285767007,-144.2751465,-55.43512344,50.28507614,4.152218342,-1.60152626,-1.968391418,39.24819946,58.18093109,-68.39868164,23.9885,-3.040554,-3.148696,-11.080797,-21.81031,20.135851
143,2285783674,-143.817627,-57.35079193,51.10771942,5.150178432,-0.940969586,-2.563204765,68.61487579,76.7490921,-88.98548126,24.074336,-3.056237,-3.191416,-9.937216,-20.531158,18.65276
144,2285800341,-143.1389771,-59.73469162,52.14904404,5.850524902,-0.809782207,-2.64811635,94.07555389,95.30141449,-110.7069016,24.171845,-3.069733,-3.235551,-8.36929,-18.942801,16.807645
145,2285817008,-142.422348,-62.57006454,53.44998932,6.448578835,-1.002027273,-2.64391613,111.4363937,112.4639359,-132.2597809,24.279321,-3.086433,-3.279616,-6.512017,-17.068402,14.603315
146,2285833675,-141.8604126,-65.83190155,55.08853912,7.476021767,-1.038173914,-2.364301443,122.3081284,128.0379944,-153.2502136,24.403921,-3.103736,-3.319021,-4.473548,-14.934435,12.049145
147,2285850342,-141.5431366,-69.33475494,57.35821533,8.634559631,-2.683909893,-2.845846176,145.0184021,132.5335999,-170.3493042,24.54783,-3.148468,-3.366452,-2.056575,-12.725542,9.20999
148,2285867009,-141.638031,-72.96297455,60.59090805,9.740997314,-5.151832104,-4.499352932,177.9755402,131.4104156,-183.6835327,24.71018,-3.234332,-3.441441,0.909684,-10.535368,6.148598
149,2285883676,-142.1390533,-76.62621307,65.0574646,11.40749741,-6.913513184,-6.099630356,228.6776428,129.3087463,-190.2934265,24.900305,-3.349557,-3.543102,4.720978,-8.380222,2.977041
150,2285900343,-143.6391602,-80.25379181,71.28941345,12.45317745,-6.131919861,-7.297139645,276.4851685,128.0735016,-190.3973236,25.107858,-3.451756,-3.664721,9.329064,-6.245664,-0.196248
151,2285917010,-148.0515442,-83.62489319,80.3660965,12.04617786,-7.044436932,-5.786551952,274.7090149,124.0381775,-175.9369507,25.308628,-3.569163,-3.761164,13.907548,-4.178361,-3.128531
152,2285933677,-162.4045715,-86.12283325,99.09390259,11.80665874,-9.903208733,-4.134397507,258.3407593,92.43296051,-152.4074707,25.505406,-3.734216,-3.830071,18.213227,-2.637812,-5.668656
153,2285950344,166.2189941,-87.49908447,134.4315948,12.13698483,-10.00806808,-4.032169819,234.7547455,74.86323547,-118.4735107,25.707689,-3.901017,-3.897274,22.125806,-1.390091,-7.643215
154,2285967011,124.6739426,-87.71621704,179.1001129,10.30641079,-7.617481709,-4.741723061,185.3361206,71.88699341,-82.93850708,25.879463,-4.027975,-3.976303,25.214741,-0.191974,-9.025523
155,2285983678,98.42893982,-87.35462189,-152.5656281,8.56449604,-5.919025421,-3.923306942,123.8977356,59.70838928,-46.1872406,26.022205,-4.126625,-4.041691,27.279703,0.803166,-9.79531
156,2286000345,87.78728485,-87.24054718,-140.5739594,7.783678532,-7.01113224,-3.863571882,80.262146,33.60569382,-8.753036499,26.151933,-4.243477,-4.106084,28.617405,1.363261,-9.941194
157,2286017012,89.95571899,-87.9497757,-141.5026703,6.468455315,-14.95685101,-8.170171738,74.48880768,-2.977508545,42.300354,26.259741,-4.492758,-4.242254,29.858885,1.313636,-9.236188
158,2286033679,149.7670135,-88.51602173,157.8953857,8.229530334,-5.992515564,-15.29056263,-45.97681427,-77.86317444,78.29634094,26.3969,-4.592633,-4.497097,29.092605,0.015916,-7.931249
159,2286050346,169.3812256,-88.44405365,137.1277618,16.36821938,7.644831657,3.691783905,-68.74742889,-14.8895359,28.88013649,26.669704,-4.465219,-4.435567,27.946815,-0.232243,-7.449913
160,2286067013,178.9595032,-88.94928741,127.8169937,7.322824955,3.665967703,9.445013046,16.24401093,29.23163223,15.43642426,26.791751,-4.40412,-4.27815,28.217549,0.254951,-7.192639
161,2286083680,-158.2614746,-87.55528259,106.7760239,8.285948753,-6.583039761,-12.18295383,104.8103638,-73.73827362,52.28282166,26.92985,-4.513837,-4.481199,29.964388,-0.97402,-6.321259
162,2286100347,-151.6258087,-87.17285156,99.60081482,20.4929409,2.19117403,-4.891177654,-31.86985397,-11.90810776,27.38027191,27.271399,-4.477317,-4.562719,29.433224,-1.172488,-5.864921
163,2286117014,-142.5420685,-87.0819397,90.9917984,7.409252167,0.04803624,0.338768274,29.17963028,9.996011734,24.50824547,27.394887,-4.476516,-4.557073,29.919551,-1.005888,-5.45645
164,2286133681,-137.463623,-86.80206299,85.85058594,9.899947166,-0.41423592,-3.335965872,-3.271817207,-1.799455881,23.25551796,27.559886,-4.48342,-4.612672,29.865021,-1.035879,-5.068858
165,2286150348,-131.7759094,-86.55360413,80.37313843,9.604685783,-2.115770817,-1.511381626,13.24151897,3.580639124,23.8870697,27.719964,-4.518683,-4.637862,30.085713,-0.976202,-4.67074
166,2286167015,-126.8809814,-86.36299133,75.71708679,9.454831123,-1.539146781,-0.431879699,14.93253326,6.601419449,19.67638779,27.877545,-4.544335,-4.64506,30.334589,-0.866178,-4.3428
167,2286183682,-123.0644379,-86.20120239,72.10346222,9.954865456,-1.169099689,-1.364536285,12.70481491,6.432383537,15.91947079,28.043459,-4.56382,-4.667802,30.546336,-0.758972,-4.077475
168,2286200349,-119.6319656,-86.12940216,68.79782867,10.54289055,-0.882455111,-1.080715895,8.134037018,9.561408997,10.50048733,28.219174,-4.578528,-4.685814,30.681903,-0.599615,-3.902467
169,2286217016,-116.5892563,-86.04517365,65.90684509,10.34971714,-0.715815961,-1.707669377,9.59859848,8.533467293,9.968175888,28.391669,-4.590458,-4.714275,30.84188,-0.457391,-3.736331
170,2286233683,-113.810997,-85.93417358,63.30166245,9.99018383,-1.14849174,-0.956663013,10.84833336,7.530448437,10.64597988,28.558172,-4.6096,-4.730219,31.022686,-0.331884,-3.558898
171,2286250350,-111.8595505,-85.85277557,61.54618073,9.655595779,-1.529680729,-0.666511297,12.12223053,5.529030323,7.404033661,28.719099,-4.635095,-4.741328,31.224723,-0.239733,-3.435497
172,2286267017,-110.6115112,-85.81095886,60.4809494,9.545259476,-1.145874619,-1.025503039,11.23025227,3.883604288,4.003817081,28.878187,-4.654193,-4.75842,31.411894,-0.175006,-3.368767
173,2286283684,-109.499855,-85.76663971,59.55597687,9.624297142,-1.077145338,-1.247558475,11.44624329,3.38249135,3.878314734,29.038592,-4.672145,-4.779213,31.602665,-0.118631,-3.304128
174,2286300351,-108.2786789,-85.72932434,58.51148605,9.434351921,-1.072828174,-1.129009485,10.86698818,4.140589714,3.621958017,29.195831,-4.690025,-4.79803,31.783781,-0.049621,-3.243762
175,2286317018,-107.1312332,-85.69879913,57.54295731,9.546989441,-1.176183462,-1.04234767,11.00050545,4.054569244,3.069491386,29.354947,-4.709628,-4.815402,31.967123,0.017955,-3.192604
176,2286333685,-105.947876,-85.68225861,56.52272797,9.645213127,-0.959026039,-1.186068177,10.05416584,4.604959965,2.272922754,29.515701,-4.725612,-4.83517,32.134692,0.094704,-3.154722
177,2286350352,-104.5920258,-85.67192841,55.28687286,9.716230392,-0.821483016,-1.298818469,7.516701698,5.712274075,2.095350027,29.677638,-4.739303,-4.856817,32.25997,0.189909,-3.119799
178,2286367019,-103.2187805,-85.6574707,54.01007843,9.77452755,-0.885516047,-1.123298168,6.107285023,5.912602425,2.258527994,29.840547,-4.754062,-4.875539,32.361758,0.288452,-3.082157
179,2286383686,-102.1683884,-85.63600922,53.07569122,9.727172852,-1.129930496,-1.085982084,7.227777958,4.370706081,2.241009474,30.002667,-4.772894,-4.893639,32.482221,0.361297,-3.044807
180,2286400353,-101.4307404,-85.63542938,52.45293808,9.696386337,-1.247535586,-0.782516718,7.11021471,3.289516211,0.665161848,30.164273,-4.793686,-4.906681,32.600725,0.416122,-3.033721
181,2286417020,-101.1350327,-85.65007782,52.26250076,9.69331646,-1.026801586,-0.775218368,6.458703518,1.538439631,-0.639632404,30.325828,-4.810799,-4.919601,32.70837,0.441763,-3.044382
182,2286433687,-101.1738281,-85.67845154,52.37878418,9.745295525,-0.919634104,-1.243729353,4.734559059,0.330877632,-1.712983847,30.48825,-4.826126,-4.94033,32.787279,0.447278,-3.072932
183,2286450354,-101.0276413,-85.73290253,52.30135345,9.84230423,-1.076434255,-1.449640393,4.25193882,1.505847454,-3.077666759,30.652288,-4.844067,-4.964491,32.858145,0.472375,-3.124226
184,2286467021,-100.3556595,-85.82627106,51.7085495,9.865049362,-1.134122849,-1.220271945,4.956788063,4.165048122,-4.946639061,30.816705,-4.862969,-4.984829,32.940758,0.541792,-3.20667
185,2286483688,-99.41287231,-85.95040131,50.84159088,9.800931931,-1.068431735,-1.090057015,4.799385548,5.525109291,-6.630572796,30.980054,-4.880776,-5.002997,33.020748,0.633877,-3.31718
186,2286500355,-98.45137787,-86.0825882,49.97643661,9.691566467,-1.004815936,-1.309327006,6.015567303,5.377746582,-7.199828148,31.14158,-4.897523,-5.024819,33.121007,0.723506,-3.437177
187,2286517022,-97.18508148,-86.24131012,48.7715416,9.858031273,-0.806396723,-0.896703005,3.964642286,6.695994377,-8.7120924,31.305881,-4.910963,-5.039764,33.187084,0.835106,-3.582379
188,2286533689,-95.6979599,-86.40696716,47.37839508,10.01928806,-0.89993012,-1.237733483,5.919405937,7.054203033,-9.187608719,31.472869,-4.925962,-5.060393,33.285741,0.952676,-3.735506
189,2286550356,-93.63181305,-86.61227417,45.35087585,9.871775627,-0.911058187,-1.501990676,2.661955357,9.019953728,-11.59410286,31.637399,-4.941146,-5.085426,33.330107,1.103009,-3.928741
190,2286567023,-90.99741364,-86.86387634,42.72909164,9.883325577,-1.012276649,-1.153260469,1.123041272,10.21756935,-14.62625599,31.802121,-4.958017,-5.104647,33.348824,1.273302,-4.172512
191,2286583690,-87.89561462,-87.16248322,39.57055283,9.903563499,-0.842449009,-0.693665624,-3.033412933,10.38816929,-17.92895126,31.96718,-4.972058,-5.116208,33.298267,1.446438,-4.471328
192,2286600357,-85.29152679,-87.46232605,36.86718369,9.8142519,-0.470466584,-0.440708816,-5.666312218,7.222305298,-18.30761909,32.130751,-4.979899,-5.123553,33.203828,1.56681,-4.776455
193,2286617024,-84.73791504,-87.73375702,36.18621063,9.683282852,-0.367135823,0.064795986,-7.486055374,0.993517637,-16.29971313,32.292139,-4.986018,-5.122473,33.07906,1.583369,-5.048117
194,2286633691,-87.87030792,-87.96048737,39.1816864,9.566903114,-0.034913439,0.74205786,-8.230297089,-6.917146206,-13.03433609,32.451587,-4.9866,-5.110105,32.941888,1.468083,-5.265356
195,2286650358,-96.38664246,-88.09474182,47.54475021,9.781059265,0.105491407,0.822644353,-9.376676559,-16.27668381,-8.544877052,32.614605,-4.984842,-5.096394,32.78561,1.196805,-5.407771
196,2286667025,-109.4257889,-88.06224823,60.44545364,9.642149925,0.032784384,0.03923405,-8.63410759,-25.03703308,-3.76440382,32.775307,-4.984296,-5.09574,32.641708,0.779521,-5.470511
197,2286683692,-123.0219803,-87.83779907,73.93849945,9.560315132,-0.141006947,-0.946091354,-6.593353271,-31.20789909,-0.596963704,32.934646,-4.986646,-5.111508,32.531819,0.259389,-5.48046
198,2286700359,-133.9280396,-87.4861145,84.72564697,9.699876785,-0.33353743,-1.281365752,-7.571625233,-33.04309845,0.191750273,33.096311,-4.992205,-5.132864,32.405625,-0.291329,-5.477264
199,2286717026,-141.8290863,-87.10092163,92.53573608,9.952560425,-0.506526113,-1.329565525,-5.878462791,-31.25390053,-0.757850528,33.262187,-5.000647,-5.155023,32.307651,-0.812227,-5.489895
200,2286733693,-147.8918304,-86.76699829,98.63391113,10.1238718,-0.475348532,-1.045550823,1.702403903,-26.9232254,-4.300005913,33.430918,-5.008569,-5.172449,32.336024,-1.260947,-5.561562
201,2286750360,-152.3609161,-86.47491455,103.2395935,9.821058273,-0.269076943,-1.535691977,7.818894863,-22.59182358,-5.214864731,33.594602,-5.013054,-5.198044,32.466339,-1.637477,-5.648476
202,2286767027,-155.5532837,-86.11315155,106.3797531,9.551660538,-0.52608186,-2.310780048,-3.437660694,-24.08247566,-1.238242388,33.753796,-5.021822,-5.236557,32.409045,-2.038852,-5.669113
203,2286783694,-157.881485,-85.69361877,108.6114426,9.901272774,-0.630920351,-2.028059959,-6.036216736,-26.1055584,1.343389392,33.918817,-5.032337,-5.270358,32.308441,-2.473945,-5.646723
204,2286800361,-159.5995026,-85.24172974,110.2897873,10.02845478,-0.511438251,-1.800359726,-2.60990262,-27.30469513,2.588515759,34.085958,-5.040861,-5.300364,32.264943,-2.929023,-5.603581
205,2286817028,-160.8697357,-84.78117371,111.5645447,9.983132362,-0.270467639,-2.193289995,0.077286519,-27.38799095,3.261349916,34.252344,-5.045369,-5.336919,32.266231,-3.38549,-5.549225
206,2286833695,-161.9026489,-84.36306,112.598053,9.689242363,-0.383335322,-2.341238976,-0.150506943,-24.73400116,2.630186558,34.413831,-5.051758,-5.37594,32.263723,-3.797723,-5.505389
207,2286850362,-162.7506104,-84.01811218,113.4457169,9.614124298,-0.543492973,-2.370129824,-0.185084045,-20.32969284,1.563542128,34.574066,-5.060816,-5.415442,32.260638,-4.136551,-5.47933
208,2286867029,-163.3401031,-83.76674652,114.0351486,9.698694229,-0.607735157,-2.387434483,-0.113957375,-14.52401638,0.982170761,34.735711,-5.070945,-5.455233,32.258739,-4.378618,-5.46296
209,2286883696,-163.739151,-83.58244324,114.4324951,9.527731895,-0.652046561,-2.359503984,-0.153003916,-10.30305099,0.791957736,34.894507,-5.081812,-5.494558,32.256189,-4.550336,-5.449761
210,2286900363,-164.3760986,-83.46148682,115.064743,9.471060753,-0.72456938,-2.417304039,-0.427046955,-7.069035053,-1.949261069,35.052358,-5.093888,-5.534846,32.249072,-4.668153,-5.482249
211,2286917030,-165.3724213,-83.38630676,116.0536041,9.284174919,-0.664951146,-2.67585659,-0.747858882,-4.988234043,-5.219874859,35.207094,-5.104971,-5.579444,32.236608,-4.75129,-5.569247
212,2286933697,-166.6276093,-83.37620544,117.3224716,9.216394424,-0.486785799,-2.854153872,0.403912365,-1.5161376,-8.213820457,35.360701,-5.113084,-5.627013,32.24334,-4.776559,-5.706144
213,2286950364,-168.030426,-83.45090485,118.7274857,9.399817467,-0.298770189,-2.714509249,-0.336057931,3.510708094,-10.26349258,35.517365,-5.118064,-5.672255,32.237739,-4.718047,-5.877202
214,2286967031,-169.3960876,-83.58766174,120.1227188,9.797515869,-0.216871202,-2.353984833,1.328224063,7.511106968,-10.71398354,35.680657,-5.121679,-5.711488,32.259876,-4.592862,-6.055768
215,2286983698,-170.6281586,-83.74448395,121.4270325,9.884456635,-0.570545375,-2.392547607,3.945741892,9.128320694,-9.970359802,35.845398,-5.131188,-5.751364,32.325638,-4.440723,-6.221941
216,2287000365,-171.9649658,-83.91379547,122.8317871,9.810163498,-0.267189324,-2.020801306,3.674734116,10.07650471,-10.33878517,36.008901,-5.135641,-5.785044,32.386884,-4.272781,-6.394254
217,2287017032,-173.4705811,-84.05476379,124.3799057,9.650821686,0.344105273,-1.691856623,2.12449789,8.595217705,-10.57370377,36.169748,-5.129906,-5.813242,32.422292,-4.129527,-6.570482
218,2287033699,-174.9598846,-84.15950012,125.8890457,9.876890182,0.295344085,-1.717014313,0.78850013,6.791134357,-9.702600479,36.334363,-5.124984,-5.841859,32.435434,-4.016341,-6.732192
219,2287050366,-176.3550873,-84.25904846,127.2873917,10.08398724,0.147914007,-1.758495808,-0.145550624,6.792771816,-8.690705299,36.502429,-5.122519,-5.871167,32.433008,-3.903128,-6.877037
220,2287067033,-177.5978088,-84.35145569,128.5220642,10.10007668,0.195875973,-1.657249093,-0.766671598,6.668524742,-7.415347099,36.670764,-5.119254,-5.898788,32.42023,-3.791986,-7.000626
221,2287083700,-178.7425995,-84.41632843,129.6190796,9.91261673,0.286656171,-1.54733932,-3.105623484,5.233878613,-6.326587677,36.835974,-5.114476,-5.924577,32.36847,-3.704755,-7.106069
222,2287100367,-179.815506,-84.45108032,130.5954285,9.804515839,0.200629339,-1.544014335,-5.988192558,3.574304104,-5.451695919,36.999383,-5.111132,-5.950311,32.268667,-3.645183,-7.196931
223,2287117034,179.212616,-84.45928192,131.4708252,9.707333565,-0.028933784,-1.71424222,-5.946405411,2.094709396,-4.799660206,37.161172,-5.111614,-5.978882,32.16956,-3.610271,-7.276925
224,2287133701,178.2706757,-84.46579742,132.3447723,9.737112999,-0.114661001,-1.868481994,-4.247488499,2.120219707,-4.769924164,37.323457,-5.113525,-6.010023,32.098769,-3.574934,-7.356424
225,2287150368,177.4279175,-84.47873688,133.1444397,9.701505661,-0.068069607,-1.871491909,-2.726849794,2.599894047,-4.308472157,37.485149,-5.114659,-6.041215,32.053322,-3.531602,-7.428232
226,2287167035,176.6536102,-84.49654388,133.8878021,9.622333527,0.046589747,-1.872301102,-1.985868335,2.98106885,-3.938401937,37.645521,-5.113883,-6.07242,32.020224,-3.481918,-7.493872
227,2287183702,175.9177094,-84.51052856,134.6194305,9.508739471,0.123595819,-1.887687922,-0.375245333,2.833879232,-3.851068497,37.804,-5.111823,-6.103881,32.01397,-3.434687,-7.558056
228,2287200369,175.2552643,-84.51538086,135.2843628,9.546999931,0.192773715,-2.014015913,0.041377313,2.355894566,-3.479875803,37.963117,-5.10861,-6.137448,32.01466,-3.395422,-7.616054
229,2287217036,174.7156067,-84.52639771,135.8509369,9.635278702,0.087272152,-1.992532492,1.5346874,2.761778831,-2.861303568,38.123705,-5.107155,-6.170657,32.040238,-3.349392,-7.663742
230,2287233703,174.2849274,-84.54792023,136.3225708,9.724424362,0.059433699,-1.913572311,2.40649271,3.400265455,-2.2380445,38.285779,-5.106164,-6.20255,32.080346,-3.292721,-7.701043
231,2287250370,173.9000244,-84.57476044,136.7408295,9.798100471,0.144924223,-1.713051319,1.973971009,3.742502689,-1.87631619,38.449081,-5.103749,-6.231101,32.113246,-3.230346,-7.732315
232,2287267037,173.5305023,-84.59086609,137.1205597,9.776065826,0.259399652,-1.750507712,0.58092165,3.137427568,-1.697526336,38.612015,-5.099426,-6.260276,32.122928,-3.178056,-7.760607
233,2287283704,173.1748657,-84.59978485,137.4677429,9.803060532,0.228569239,-1.943630576,-0.522390187,2.726868629,-1.538958192,38.775399,-5.095617,-6.29267,32.114221,-3.132608,-7.786256
234,2287300371,172.9453278,-84.61962891,137.6975098,9.845492363,0.22441493,-1.953625202,0.028955156,3.351395845,-0.78042531,38.939491,-5.091877,-6.32523,32.114704,-3.076751,-7.799263
235,2287317038,172.877121,-84.6558075,137.7792816,9.751554489,0.364192218,-1.876388788,0.878643692,4.258572578,0.186422035,39.102017,-5.085807,-6.356503,32.129348,-3.005775,-7.796156
236,2287333705,172.9547577,-84.69507599,137.7177277,9.647006989,0.40915072,-1.792842507,1.054449439,4.40113306,1.026749253,39.2628,-5.078988,-6.386384,32.146922,-2.932423,-7.779044
237,2287350372,173.1310272,-84.73322296,137.557724,9.684135437,0.121984497,-1.756524205,1.106801748,4.288462639,1.569584846,39.424202,-5.076955,-6.415659,32.165369,-2.860949,-7.752884
238,2287367039,173.3065033,-84.77059937,137.3924866,9.660941124,0.05054282,-1.717383504,0.736614943,4.296255589,1.590299129,39.585218,-5.076113,-6.444282,32.177646,-2.789345,-7.726379
239,2287383706,173.4379272,-84.79941559,137.256546,9.708436966,0.227055654,-1.425894022,-0.147055328,3.832895994,1.363281012,39.747025,-5.072329,-6.468047,32.175195,-2.725463,-7.703658
240,2287400373,173.639267,-84.81156158,137.0536652,9.830615997,0.271682918,-1.508140326,0.041799929,2.828782082,1.619478226,39.910869,-5.067801,-6.493183,32.175892,-2.678317,-7.676667
241,2287417040,173.9274597,-84.82180786,136.7750092,9.897934914,0.127230927,-1.857644796,0.732433617,2.696466923,2.025183439,40.075835,-5.06568,-6.524144,32.188099,-2.633376,-7.642914
242,2287433707,174.2755432,-84.8367691,136.4434052,9.882464409,0.225883305,-1.880880356,1.165019512,2.996699333,2.341154814,40.240543,-5.061915,-6.555492,32.207516,-2.583431,-7.603895
243,2287450374,174.7045898,-84.84960938,136.029953,9.796338081,0.347923577,-1.754055262,1.129737616,2.886538267,2.773957729,40.403815,-5.056116,-6.584726,32.226345,-2.535322,-7.557662
244,2287467041,175.2316132,-84.85643005,135.5175323,9.775930405,0.312795848,-1.731478095,1.100808382,2.529331207,3.284355164,40.566747,-5.050903,-6.613584,32.244692,-2.493166,-7.502923
245,2287483708,175.7702484,-84.85871887,134.9856873,9.713926315,0.205412641,-1.722239494,0.628804564,2.324237108,3.384884596,40.728646,-5.047479,-6.642288,32.255172,-2.454429,-7.446508
246,2287500375,176.3090668,-84.85886383,134.4642639,9.696231842,0.056114156,-1.797602773,1.273360968,2.254583359,3.333287954,40.89025,-5.046544,-6.672248,32.276395,-2.416853,-7.390953
247,2287517042,176.7131042,-84.86576843,134.06604,9.746721268,0.121481754,-1.555030823,0.557831824,2.750727177,2.702242374,41.052695,-5.044519,-6.698165,32.285692,-2.371008,-7.345916
248,2287533709,177.1372528,-84.86210632,133.6604462,9.747961044,0.145047009,-1.521547437,1.311728835,2.179179668,2.718557596,41.215161,-5.042102,-6.723524,32.307554,-2.334688,-7.300607
249,2287550376,177.5475616,-84.8483963,133.2663879,9.800245285,0.105532281,-1.780733109,1.183204293,1.60087049,2.644626379,41.378498,-5.040343,-6.753203,32.327274,-2.308007,-7.25653
250,2287567043,177.9264679,-84.83866882,132.8903503,9.757964134,0.311676651,-1.702601433,0.378299594,1.896505356,2.579262733,41.541131,-5.035148,-6.78158,32.333579,-2.276399,-7.213542
251,2287583710,178.4099579,-84.82350922,132.4229889,9.761648178,0.258462399,-1.782158852,1.196087599,1.604533315,3.095025778,41.703825,-5.03084,-6.811283,32.353514,-2.249657,-7.161958
252,2287600377,178.9719238,-84.81669617,131.8824921,9.750406265,0.159362644,-1.853044033,1.54520154,2.147266388,3.535141706,41.866332,-5.028184,-6.842167,32.379267,-2.213869,-7.103039
253,2287617044,179.549057,-84.81008148,131.332016,9.736898422,0.171158999,-1.666458249,1.857048869,2.233593941,3.614387989,42.028614,-5.025331,-6.869941,32.410218,-2.176642,-7.042799
254,2287633711,-179.874939,-84.79895782,130.7763977,9.736637115,0.150667429,-1.626959443,1.489263296,2.015949965,3.665574789,42.190891,-5.02282,-6.897057,32.435039,-2.143043,-6.981706
255,2287650378,-179.3371124,-84.77918243,130.2491455,9.718082428,0.145790473,-1.639097095,0.894126594,1.554793596,3.544746876,42.352859,-5.02039,-6.924375,32.449941,-2.11713,-6.922627
256,2287667045,-178.8470459,-84.75641632,129.7705536,9.76369381,0.172006637,-1.591237068,0.931303442,1.438588619,3.319354773,42.515587,-5.017523,-6.950896,32.465463,-2.093154,-6.867304
257,2287683712,-178.3491058,-84.73165894,129.2860107,9.84292984,0.12390893,-1.788416147,1.070803046,1.342041492,3.394271851,42.679636,-5.015458,-6.980703,32.48331,-2.070787,-6.810733
258,2287700379,-177.8970337,-84.71128082,128.8499603,9.792675018,0.143859163,-1.818564892,1.205013633,1.666247129,3.157392979,42.842847,-5.01306,-7.011012,32.503394,-2.043016,-6.75811
259,2287717046,-177.4843903,-84.69525909,128.4532166,9.729236603,0.114353821,-1.724360347,1.194460988,1.966197371,2.962557316,43.005001,-5.011154,-7.039751,32.523302,-2.010246,-6.708734
260,2287733713,-177.0720062,-84.67803955,128.0678253,9.772299767,0.109498449,-1.718647718,1.866845846,1.937024832,2.930182695,43.167873,-5.009329,-7.068395,32.554416,-1.977962,-6.659898
261,2287750380,-176.7130127,-84.66623688,127.7281876,9.755885124,0.165640175,-1.609091043,1.399093747,2.282334805,2.686490536,43.330471,-5.006568,-7.095213,32.577734,-1.939923,-6.615123
262,2287767047,-176.3537445,-84.65097046,127.3944397,9.790881157,0.086194642,-1.720317364,1.767852902,2.116377831,2.691382885,43.493652,-5.005131,-7.123885,32.607198,-1.90465,-6.570267
263,2287783714,-176.0870056,-84.6396637,127.1441879,9.733805656,0.131218463,-1.675965905,1.204334736,2.360863209,2.233299255,43.655882,-5.002944,-7.151818,32.62727,-1.865302,-6.533045
264,2287800381,-175.8634796,-84.62400055,126.9414749,9.756120682,0.096872561,-1.640352845,1.454455376,2.108629465,2.007536173,43.818484,-5.001329,-7.179157,32.651511,-1.830158,-6.499586
265,2287817048,-175.6843719,-84.61303711,126.7796631,9.810033798,0.102697678,-1.715864778,1.245148659,2.388320446,1.778981209,43.981985,-4.999617,-7.207755,32.672263,-1.790353,-6.469936
266,2287833715,-175.5176239,-84.60472107,126.6349564,9.815961838,0.124588683,-1.693035603,1.517052889,2.575292826,1.689810634,44.145584,-4.997541,-7.235972,32.697547,-1.747431,-6.441772
267,2287850382,-175.3855438,-84.59463501,126.5175095,9.771813393,0.212525606,-1.572746038,1.075182915,2.478874207,1.562848687,44.308448,-4.993999,-7.262184,32.715467,-1.706116,-6.415725
268,2287867049,-175.2034607,-84.57704163,126.3535309,9.758462906,0.149537399,-1.616803408,1.284144044,2.078586102,1.888142824,44.471089,-4.991507,-7.289131,32.736869,-1.671473,-6.384256
269,2287883716,-175.036499,-84.5591507,126.2051926,9.786543846,0.142482325,-1.672418356,1.327083588,2.058825493,1.825929165,44.634198,-4.989132,-7.317005,32.758987,-1.637159,-6.353824
270,2287900383,-174.9021301,-84.53887177,126.084198,9.713716507,0.13553375,-1.560810804,1.003057241,1.929046273,1.705383062,44.796093,-4.986873,-7.343019,32.775705,-1.605008,-6.325401
271,2287917050,-174.7545776,-84.5078125,125.9494858,9.735387802,0.107003585,-1.642423749,0.977598369,1.310947657,1.866858482,44.958349,-4.98509,-7.370393,32.791998,-1.583159,-6.294287
272,2287933717,-174.5978699,-84.47434235,125.8106079,9.75117588,0.100037441,-1.653174043,1.278970242,1.187481642,1.928380132,45.120869,-4.983423,-7.397946,32.813314,-1.563368,-6.262147
273,2287950384,-174.4600067,-84.43714905,125.6812744,9.713209152,0.193634078,-1.490000725,0.721881151,0.975703001,1.921272516,45.282756,-4.980196,-7.422779,32.825345,-1.547106,-6.230126
274,2287967051,-174.2913513,-84.38632965,125.5271149,9.732637405,0.151740253,-1.591300368,1.086554885,0.19433637,2.177297115,45.444967,-4.977667,-7.449301,32.843454,-1.543867,-6.193838
275,2287983718,-174.0776062,-84.33420563,125.3253098,9.792882919,0.154220179,-1.639902592,0.950935543,0.158222452,2.500286102,45.608182,-4.975097,-7.476633,32.859303,-1.54123,-6.152167
276,2288000385,-173.8489075,-84.28118134,125.1103516,9.736774445,0.146329239,-1.599194765,1.071584105,0.121942066,2.626658916,45.770462,-4.972658,-7.503286,32.877163,-1.539198,-6.108389
277,2288017052,-173.6072998,-84.2230072,124.8812256,9.746261597,0.137043715,-1.620107174,1.000342488,-0.145460933,2.786328793,45.9329,-4.970374,-7.530288,32.893835,-1.541622,-6.06195
278,2288033719,-173.3663177,-84.16296387,124.6560898,9.719666481,0.09518113,-1.687744379,1.20181191,-0.245132744,2.821712732,46.094894,-4.968788,-7.558417,32.913865,-1.545708,-6.014921
279,2288050386,-173.1691284,-84.10276031,124.4718094,9.714318275,0.121456318,-1.664337039,1.023778081,-0.265238702,2.616401434,46.256799,-4.966764,-7.586156,32.930928,-1.550129,-5.971314
280,2288067053,-172.9951782,-84.04286957,124.3157578,9.776960373,0.083181076,-1.6207093,1.319668651,-0.251433462,2.479296446,46.419748,-4.965378,-7.613168,32.952922,-1.55432,-5.929992
281,2288083720,-172.8460236,-83.98415375,124.1797638,9.794693947,0.147904053,-1.62287581,1.028298616,-0.181920603,2.380661726,46.582993,-4.962913,-7.640216,32.97006,-1.557352,-5.890314
282,2288100387,-172.7152863,-83.92210388,124.0593643,9.77649498,0.157059684,-1.672486544,0.849944592,-0.375040323,2.343036652,46.745935,-4.960295,-7.668091,32.984226,-1.563603,-5.851263
283,2288117054,-172.5874634,-83.86624146,123.9484787,9.795764923,0.084981062,-1.724446893,1.25799334,-0.017576715,2.269643784,46.909198,-4.958879,-7.696832,33.005193,-1.563896,-5.813436
284,2288133721,-172.4660034,-83.81692505,123.847847,9.746412277,0.09238366,-1.706988335,1.482501626,0.388198882,2.180793524,47.071638,-4.957339,-7.725282,33.029901,-1.557426,-5.777089
285,2288150388,-172.3584137,-83.7689209,123.7561188,9.723244667,0.149503201,-1.720480561,1.188070774,0.464460701,2.138903856,47.233692,-4.954847,-7.753957,33.049702,-1.549685,-5.741441
286,2288167055,-172.2677917,-83.72340393,123.6822128,9.756891251,0.070203111,-1.743780613,1.232495904,0.611695349,2.031458616,47.396307,-4.953677,-7.78302,33.070244,-1.53949,-5.707583
287,2288183722,-172.1821442,-83.68717194,123.6157532,9.76381588,0.11870148,-1.630905271,1.380473375,1.164852858,1.929020643,47.559037,-4.951699,-7.810202,33.093252,-1.520076,-5.675433
288,2288200389,-172.0876617,-83.6463089,123.5388107,9.789159775,0.166205317,-1.69222033,1.289625049,0.903795302,2.057019949,47.72219,-4.948929,-7.838406,33.114746,-1.505013,-5.641149
289,2288217056,-171.998703,-83.60889435,123.4659271,9.787530899,0.130255342,-1.657054424,1.205448866,1.101461291,2.028141499,47.885316,-4.946758,-7.866024,33.134837,-1.486655,-5.607347
290,2288233723,-171.881897,-83.56794739,123.3706894,9.78694725,0.130155206,-1.729112148,1.543971896,0.921941936,2.229124546,48.048432,-4.944589,-7.894843,33.16057,-1.471289,-5.570195
291,2288250390,-171.7620697,-83.53046417,123.2710953,9.737931252,0.11998941,-1.656106234,1.461908817,1.143261313,2.253520727,48.210731,-4.942589,-7.922445,33.184935,-1.452235,-5.532636
292,2288267057,-171.6266174,-83.48825836,123.1554184,9.728179932,0.146532163,-1.649458528,1.444927812,0.880206108,2.427584648,48.372867,-4.940147,-7.949936,33.209017,-1.437565,-5.492176
293,2288283724,-171.4778137,-83.44695282,123.0307922,9.780412674,0.085515283,-1.667186975,1.71789515,0.942970037,2.506881475,48.535874,-4.938722,-7.977722,33.237649,-1.421849,-5.450395
294,2288300391,-171.3410645,-83.40435791,122.9184494,9.778540611,0.121443488,-1.608340025,1.733096242,0.85432446,2.460086823,48.69885,-4.936698,-8.004528,33.266534,-1.40761,-5.409394
295,2288317058,-171.2065887,-83.355896,122.806572,9.773447037,0.110141516,-1.662061334,1.622231483,0.507477224,2.535990477,48.861741,-4.934862,-8.032229,33.293571,-1.399152,-5.367127
296,2288333725,-171.0657196,-83.30464172,122.6851578,9.762235641,0.149766296,-1.627334833,1.441239357,0.3533144,2.654641151,49.024445,-4.932366,-8.059351,33.317592,-1.393263,-5.322883
297,2288350392,-170.9149323,-83.24906921,122.5560532,9.766589165,0.116867684,-1.689923048,1.579061389,0.10744527,2.77970767,49.187221,-4.930418,-8.087516,33.34391,-1.391472,-5.276555
298,2288367059,-170.7667236,-83.19541931,122.4283676,9.749403954,0.105972201,-1.637554049,1.51614368,0.22172913,2.78077054,49.349711,-4.928652,-8.114809,33.369179,-1.387777,-5.230209
299,2288383726,-170.6149292,-83.13716125,122.2978287,9.742286682,0.096788913,-1.68732667,1.565780997,-0.056648884,2.875691414,49.512082,-4.927039,-8.142931,33.395275,-1.388721,-5.182281
300,2288400393,-170.4833374,-83.0828476,122.1864166,9.763963699,0.069149666,-1.664197445,1.488354087,0.167993709,2.730185986,49.674815,-4.925887,-8.170668,33.420081,-1.385921,-5.136778
301,2288417060,-170.3784637,-83.03010559,122.1019974,9.743754387,0.107578829,-1.680282235,1.50290215,0.218079358,2.546005011,49.837211,-4.924094,-8.198673,33.445129,-1.382286,-5.094345
302,2288433727,-170.2815094,-82.97881317,122.0225754,9.744141579,0.104802564,-1.669831395,1.328889251,0.288667947,2.520097256,49.999613,-4.922347,-8.226504,33.467277,-1.377475,-5.052343
303,2288450394,-170.1871643,-82.92776489,121.9472198,9.773015022,0.086331904,-1.776391506,1.411221266,0.30764693,2.509865284,50.162497,-4.920908,-8.256111,33.490797,-1.372348,-5.010512
304,2288467061,-170.0870056,-82.88285828,121.8647842,9.756176949,0.081976198,-1.685305715,1.343373418,0.677263856,2.521083593,50.3251,-4.919542,-8.284199,33.513187,-1.36106,-4.968494
305,2288483728,-170.0032043,-82.8384552,121.8009338,9.732361794,0.068889089,-1.698741436,1.469976902,0.676725924,2.399909973,50.487306,-4.918394,-8.312511,33.537687,-1.349781,-4.928496
306,2288500395,-169.9414978,-82.79742432,121.7568512,9.713438988,0.098820545,-1.642792583,1.324342966,0.841838181,2.236603498,50.649197,-4.916747,-8.339891,33.559759,-1.33575,-4.891219
307,2288517062,-169.8739166,-82.75630188,121.7115936,9.762173653,0.07319726,-1.663855553,1.608349442,0.834128797,2.263547659,50.8119,-4.915527,-8.367622,33.586565,-1.321848,-4.853493
308,2288533729,-169.8130188,-82.71913147,121.6730881,9.796735764,0.07618136,-1.730440736,1.608054876,1.048763156,2.186965704,50.975179,-4.914257,-8.396463,33.613366,-1.304369,-4.817044
309,2288550396,-169.7555237,-82.68362427,121.6433105,9.733399391,0.084488213,-1.709511995,1.922092557,1.136960626,2.119361639,51.137402,-4.912849,-8.424955,33.645401,-1.28542,-4.781721
310,2288567063,-169.7129822,-82.64955902,121.627533,9.717636108,0.05402061,-1.664884329,1.866461515,1.186329007,2.012479544,51.299363,-4.911949,-8.452703,33.676509,-1.265648,-4.74818
311,2288583730,-169.7031403,-82.61475372,121.6386108,9.742108345,0.083886713,-1.633488059,1.500571132,1.100052595,1.829092622,51.461731,-4.910551,-8.479928,33.701519,-1.247314,-4.717695
312,2288600397,-169.7244415,-82.58029175,121.6775818,9.757101059,0.10817989,-1.643887997,1.29226315,1.071174383,1.622859001,51.624349,-4.908748,-8.507326,33.723057,-1.229461,-4.690647
313,2288617064,-169.7513275,-82.55070496,121.7201309,9.78281498,0.095734671,-1.720460296,1.170730948,1.337034225,1.554767847,51.787396,-4.907152,-8.536,33.742569,-1.207177,-4.664734
314,2288633731,-169.8142395,-82.52829742,121.7964249,9.767765045,0.103893816,-1.744767427,1.019193411,1.706074834,1.229409575,51.950192,-4.90542,-8.565079,33.759556,-1.178742,-4.644244
315,2288650398,-169.8979187,-82.51242828,121.8942337,9.777724266,0.095526844,-1.720464349,1.051772594,2.057954788,1.002442598,52.113154,-4.903828,-8.593753,33.777086,-1.144443,-4.627537
316,2288667065,-169.9666595,-82.4981308,121.9821701,9.805395126,0.13333486,-1.681390762,1.362403512,2.152478695,1.071699381,52.276577,-4.901606,-8.621776,33.799793,-1.108568,-4.609675
317,2288683732,-170.0274811,-82.48801422,122.0578842,9.802158356,0.126611724,-1.702832699,1.106519938,2.406953573,1.133016229,52.439946,-4.899496,-8.650157,33.818235,-1.068452,-4.590791
318,2288700399,-170.0923157,-82.48007202,122.1394958,9.758124352,0.110046595,-1.686365604,1.220086575,2.518752813,1.075182796,52.602581,-4.897662,-8.678263,33.83857,-1.026473,-4.572871
319,2288717066,-170.166275,-82.47350311,122.2244644,9.754953384,0.115341701,-1.636792898,0.876184881,2.576765776,1.045433521,52.765164,-4.89574,-8.705543,33.853173,-0.983527,-4.555447
320,2288733733,-170.2222443,-82.4664917,122.2959061,9.767658234,0.129265487,-1.634175777,1.143965721,2.561013937,1.164583921,52.927958,-4.893586,-8.732779,33.872239,-0.940843,-4.536037
321,2288750400,-170.2933044,-82.45688629,122.3729935,9.75415802,0.125062764,-1.593999624,0.577822506,2.386898756,1.155824304,53.090527,-4.891502,-8.759346,33.881869,-0.901061,-4.516773
322,2288767067,-170.3220825,-82.44139862,122.4125671,9.77210331,0.141285762,-1.627627492,0.880807996,2.074884892,1.516182184,53.253395,-4.889147,-8.786473,33.896549,-0.86648,-4.491503
323,2288783734,-170.3450928,-82.42863464,122.4417572,9.752450943,0.143859714,-1.604763031,0.612847924,2.230814934,1.580342054,53.415936,-4.886749,-8.813219,33.906763,-0.8293,-4.465164
324,2288800401,-170.3546448,-82.40679169,122.4594574,9.721245766,0.131566852,-1.609622955,0.738170803,1.694881916,1.771066904,53.577957,-4.884556,-8.840046,33.919066,-0.801052,-4.435646
325,2288817068,-170.3415527,-82.38201904,122.45401,9.772118568,0.121836387,-1.583542943,0.719281435,1.536044836,1.992168546,53.740826,-4.882525,-8.866438,33.931054,-0.775451,-4.402443
326,2288833735,-170.3079987,-82.35586548,122.432045,9.799492836,0.137602568,-1.559634447,0.966059804,1.463099837,2.145947218,53.904151,-4.880232,-8.892432,33.947155,-0.751066,-4.366677
327,2288850402,-170.2627869,-82.32276917,122.3990097,9.779705048,0.151320398,-1.592332006,1.008307815,1.046547651,2.313902617,54.067146,-4.87771,-8.918971,33.96396,-0.733624,-4.328112
328,2288867069,-170.2120361,-82.28678131,122.3578415,9.749620438,0.152724028,-1.600925922,0.860573947,0.869743288,2.421770334,54.22964,-4.875165,-8.945653,33.978303,-0.719128,-4.287749
329,2288883736,-170.1418152,-82.24958801,122.2999344,9.742007256,0.119526848,-1.61083591,1.030808687,0.812908709,2.580197811,54.392007,-4.873173,-8.9725,33.995483,-0.70558,-4.244746
330,2288900403,-170.0555725,-82.21122742,122.2283783,9.746614456,0.089794584,-1.601941824,1.19150269,0.736377895,2.715228081,54.554451,-4.871676,-8.999199,34.015341,-0.693307,-4.199492
331,2288917070,-169.9565887,-82.16927338,122.142128,9.736317635,0.110801101,-1.607218623,1.077590346,0.540325522,2.882696629,54.716723,-4.869829,-9.025986,34.033301,-0.684302,-4.151447
332,2288933737,-169.8378906,-82.12510681,122.0351944,9.757383347,0.134584948,-1.600878954,1.026326418,0.433891922,3.090197802,54.879346,-4.867586,-9.052667,34.050406,-0.67707,-4.099944
333,2288950404,-169.7129059,-82.07878113,121.922348,9.742396355,0.12556459,-1.626878738,1.062261105,0.294392407,3.179074287,55.041719,-4.865493,-9.079782,34.06811,-0.672163,-4.046959
334,2288967071,-169.5986938,-82.0320816,121.817421,9.783346176,0.130468696,-1.600795984,0.88722384,0.248481616,3.137760639,55.204775,-4.863319,-9.106462,34.082897,-0.668022,-3.994663
335,2288983738,-169.4880371,-81.98712921,121.7181244,9.810509682,0.11851193,-1.585300446,1.013673782,0.324077487,3.092490196,55.368283,-4.861344,-9.132884,34.099792,-0.662621,-3.943121
336,2289000405,-169.366806,-81.94451141,121.6071777,9.806815147,0.093912907,-1.604641318,0.952741265,0.474385619,3.179893732,55.53173,-4.859779,-9.159628,34.115671,-0.654715,-3.890123
337,2289017072,-169.2441559,-81.90333557,121.5012665,9.788558006,0.060944188,-1.706278682,1.342822552,0.538955212,3.13677454,55.694873,-4.858763,-9.188066,34.138051,-0.645732,-3.837843
338,2289033739,-169.1160431,-81.86715698,121.3943176,9.803237915,0.102456622,-1.702530384,1.615572333,0.813331306,3.104899645,55.85826,-4.857055,-9.216442,34.164977,-0.632176,-3.786095
339,2289050406,-168.9827271,-81.83338165,121.2862396,9.781173706,0.090641551,-1.645032167,1.857010365,0.955238461,3.102735281,56.02128,-4.855544,-9.243859,34.195927,-0.616255,-3.734383
340,2289067073,-168.8447723,-81.79759216,121.177063,9.741661072,0.067599937,-1.718486309,2.066752911,0.836241901,3.148069859,56.183641,-4.854417,-9.2725,34.230373,-0.602318,-3.681915
341,2289083740,-168.70784,-81.76961517,121.0727158,9.739460945,0.04496875,-1.676599145,2.301903486,1.271773219,3.030418396,56.345965,-4.853668,-9.300443,34.268738,-0.581122,-3.631408
342,2289100407,-168.5951385,-81.74165344,120.9908981,9.722790718,0.057440564,-1.577334762,2.181126595,1.229832292,2.850770473,56.508012,-4.852711,-9.326732,34.30509,-0.560625,-3.583895
343,2289117074,-168.4985352,-81.70947266,120.9195938,9.737282753,0.056250598,-1.563267946,1.846547484,0.938436389,2.821866274,56.6703,-4.851773,-9.352786,34.335866,-0.544984,-3.536864
344,2289133741,-168.3965607,-81.67298889,120.8476028,9.792096138,0.078501284,-1.627412796,2.124163628,0.680695951,2.888228893,56.833502,-4.850465,-9.37991,34.371269,-0.533639,-3.488727
345,2289150408,-168.2964935,-81.63548279,120.7781525,9.8001194,0.08726909,-1.653769493,2.164362669,0.598620057,2.891814947,56.996837,-4.849011,-9.407473,34.407342,-0.523662,-3.44053
346,2289167075,-168.1873322,-81.59790802,120.6969986,9.772642136,0.082279198,-1.624436975,2.017345905,0.600041509,3.004997492,57.159714,-4.84764,-9.434547,34.440964,-0.513661,-3.390447
347,2289183742,-168.0835724,-81.5562439,120.6188049,9.737751961,0.068477318,-1.596253753,1.867037773,0.350061566,3.042571068,57.32201,-4.846499,-9.461151,34.472081,-0.507827,-3.339737
348,2289200409,-167.9895935,-81.51564789,120.5488815,9.770195007,0.040946525,-1.632139564,1.779890656,0.370295584,2.970919371,57.484847,-4.845817,-9.488353,34.501746,-0.501655,-3.290222
349,2289217076,-167.9142609,-81.47568512,120.4949341,9.777209282,0.069257356,-1.614509463,1.604994416,0.375238895,2.835172176,57.6478,-4.844663,-9.515261,34.528496,-0.495401,-3.242969
350,2289233743,-167.8417206,-81.43544769,120.4400177,9.787906647,0.062620111,-1.592764258,1.384776115,0.339086503,2.857288599,57.810932,-4.843619,-9.541807,34.551576,-0.48975,-3.195348
351,2289250410,-167.7684021,-81.39372253,120.384613,9.792097092,0.060160935,-1.669493198,1.401526928,0.242782727,2.889803886,57.974134,-4.842616,-9.569632,34.574935,-0.485704,-3.147185
352,2289267077,-167.7074738,-81.35580444,120.3387833,9.759730339,0.035293996,-1.645356655,1.228986979,0.429371327,2.76734972,58.136796,-4.842028,-9.597055,34.595418,-0.478548,-3.101063
353,2289283744,-167.6595154,-81.31769562,120.309082,9.75761795,0.028026905,-1.669571042,1.407443404,0.377031744,2.635341883,58.299423,-4.841561,-9.624881,34.618875,-0.472264,-3.057141
354,2289300411,-167.6267242,-81.28170013,120.2921829,9.770607948,0.053859726,-1.58651042,1.258454323,0.464345396,2.500273466,58.462266,-4.840663,-9.651323,34.639849,-0.464525,-3.01547
355,2289317078,-167.6066742,-81.24279022,120.2870483,9.766731262,0.048808668,-1.607404351,1.192911506,0.24589473,2.439993858,58.625045,-4.83985,-9.678113,34.659731,-0.460427,-2.974803
356,2289333745,-167.6067352,-81.20189667,120.3002167,9.743019104,0.012313529,-1.596899986,1.071622491,0.081473991,2.306986809,58.787429,-4.839645,-9.704728,34.677591,-0.459069,-2.936353
357,2289350412,-167.6141357,-81.15749359,120.3180695,9.730082512,0.0296811,-1.612685204,0.910813212,-0.151210979,2.311264515,58.949597,-4.83915,-9.731606,34.692771,-0.461589,-2.897832
358,2289367079,-167.641571,-81.11219025,120.3541336,9.749617577,0.010676048,-1.587479472,0.785797656,-0.255838871,2.160354614,59.112091,-4.838972,-9.758064,34.705868,-0.465853,-2.861826
359,2289383746,-167.6875916,-81.06387329,120.4107971,9.77179718,0.045639329,-1.588947177,0.898147821,-0.498288721,2.011928797,59.274954,-4.838211,-9.784546,34.720837,-0.474158,-2.828294
360,2289400413,-167.7403564,-81.01316071,120.4723663,9.748513222,0.017863479,-1.681400299,0.777883291,-0.661723375,1.99537015,59.437429,-4.837913,-9.812569,34.733802,-0.485187,-2.795038
361,2289417080,-167.7790833,-80.96278381,120.5232086,9.785378456,0.043164112,-1.67302835,0.987395227,-0.631065011,2.086474657,59.600519,-4.837194,-9.840453,34.750259,-0.495705,-2.760263
362,2289433747,-167.8256683,-80.91301727,120.5836868,9.760626793,0.052075222,-1.716532946,1.085888863,-0.634906828,1.989120841,59.763196,-4.836326,-9.869062,34.768357,-0.506287,-2.727111
363,2289450414,-167.8708191,-80.86532593,120.642395,9.746793747,0.044176716,-1.616660714,1.072352648,-0.525694251,1.977876782,59.925643,-4.83559,-9.896006,34.78623,-0.515049,-2.694146
364,2289467081,-167.9093018,-80.81617737,120.6986237,9.758800507,0.032630712,-1.68984139,1.322895885,-0.620819867,2.017807007,60.08829,-4.835046,-9.92417,34.808278,-0.525396,-2.660516
365,2289483748,-167.959671,-80.76879883,120.7635498,9.768134117,0.031721409,-1.671783686,1.126075149,-0.548835397,1.911514282,60.251092,-4.834517,-9.952033,34.827046,-0.534543,-2.628657
366,2289500415,-168.0108795,-80.72032166,120.830925,9.748727798,0.032016303,-1.673149705,1.220073938,-0.636033833,1.899962902,60.413571,-4.833983,-9.979919,34.847381,-0.545144,-2.596991
367,2289517082,-168.0714722,-80.67094421,120.9071732,9.735858917,0.056089669,-1.681839108,1.183358073,-0.720402062,1.8228302,60.575835,-4.833048,-10.00795,34.867104,-0.557151,-2.56661
368,2289533749,-168.1090851,-80.62076569,120.9645615,9.73400116,0.025955245,-1.697182298,1.443954468,-0.740149438,2.009585381,60.738068,-4.832615,-10.036236,34.89117,-0.569487,-2.533117
369,2289550416,-168.1504364,-80.57237244,121.0215988,9.724637985,0.047913186,-1.66964221,1.201107621,-0.652105749,1.987955451,60.900145,-4.831816,-10.064063,34.911188,-0.580355,-2.499984
370,2289567083,-168.1783295,-80.52302551,121.0647507,9.769617081,0.045345705,-1.69820118,1.188454986,-0.69924593,2.132398129,61.062972,-4.83106,-10.092366,34.930996,-0.592009,-2.464444
371,2289583750,-168.2038574,-80.47564697,121.1055527,9.766657829,0.074825451,-1.724512458,1.190875292,-0.591211617,2.129913807,61.22575,-4.829813,-10.121108,34.950844,-0.601863,-2.428945
372,2289600417,-168.2116852,-80.42865753,121.1314926,9.743944168,0.055682123,-1.739233136,1.374684811,-0.554610968,2.271936178,61.388149,-4.828885,-10.150095,34.973755,-0.611107,-2.391079
373,2289617084,-168.2019501,-80.38629913,121.1435394,9.766968727,0.069382519,-1.74353075,1.606838465,-0.261793822,2.351911783,61.550932,-4.827729,-10.179154,35.000536,-0.61547,-2.35188
374,2289633751,-168.1869965,-80.35029602,121.1488037,9.791191101,0.031166725,-1.741810203,1.518333673,0.107009865,2.346020937,61.714119,-4.82721,-10.208184,35.025842,-0.613687,-2.31278
375,2289650418,-168.1855621,-80.31789398,121.1658936,9.741708755,0.023106664,-1.746876478,1.406674981,0.288475811,2.185928583,61.876481,-4.826825,-10.237299,35.049287,-0.608879,-2.276348
376,2289667085,-168.2047119,-80.2922821,121.2062683,9.771745682,-0.001606528,-1.747958064,1.550170302,0.624347985,1.873774052,62.039343,-4.826852,-10.266432,35.075123,-0.598473,-2.245118
377,2289683752,-168.2348785,-80.27144623,121.2564621,9.766593933,0.063028984,-1.728305936,1.472205162,0.867028296,1.717049956,62.20212,-4.825802,-10.295237,35.09966,-0.584023,-2.216501
378,2289700419,-168.2651978,-80.25300598,121.3049011,9.751803398,0.065725714,-1.764271498,1.358036637,1.006066918,1.706561327,62.36465,-4.824707,-10.324642,35.122294,-0.567255,-2.188058
379,2289717086,-168.2814484,-80.23853302,121.3404846,9.736256599,0.035251599,-1.720651031,1.443122029,1.247274399,1.788688302,62.526921,-4.824119,-10.35332,35.146346,-0.546467,-2.158247
380,2289733753,-168.2905273,-80.2244873,121.3706207,9.762566566,0.033733279,-1.719290614,1.552513838,1.271862745,1.839248061,62.68963,-4.823557,-10.381975,35.172221,-0.525269,-2.127593
381,2289750420,-168.3065948,-80.21199036,121.4052505,9.723340034,0.04185272,-1.66606319,1.396327496,1.345691085,1.775331378,62.851686,-4.822859,-10.409743,35.195493,-0.502841,-2.098004
382,2289767087,-168.3041687,-80.19582367,121.4231567,9.745963097,0.040561829,-1.712739587,1.520369768,1.142454386,1.988928437,63.014119,-4.822183,-10.438289,35.220832,-0.4838,-2.064855
383,2289783754,-168.3016205,-80.18125916,121.4368286,9.794023514,0.065860577,-1.662513256,1.280122757,1.233469248,2.013171196,63.177353,-4.821085,-10.465998,35.242167,-0.463242,-2.031302
384,2289800421,-168.2833557,-80.16390991,121.4384308,9.789311409,0.044392746,-1.729209661,1.505732298,1.08405757,2.170996666,63.340508,-4.820345,-10.494818,35.267263,-0.445174,-1.995119
385,2289817088,-168.272644,-80.15174866,121.4476471,9.783851624,0.021958167,-1.737407207,1.502287388,1.362890244,2.03357172,63.503572,-4.819979,-10.523775,35.292301,-0.422459,-1.961226
386,2289833755,-168.2437286,-80.14002991,121.4435654,9.743354797,0.039485715,-1.715215921,1.812047243,1.399298787,2.162685394,63.665961,-4.819321,-10.552362,35.322502,-0.399137,-1.925181
387,2289850422,-168.2233887,-80.12892151,121.4479218,9.730457306,0.016580708,-1.734409451,1.797448397,1.406496048,2.072131634,63.828135,-4.819045,-10.581269,35.352459,-0.375695,-1.890645
388,2289867089,-168.1961975,-80.11908722,121.4432068,9.751661301,0.043965627,-1.656931281,1.673252225,1.488072395,2.148713589,63.990663,-4.818312,-10.608885,35.380347,-0.350894,-1.854833
389,2289883756,-168.1589966,-80.10916901,121.4314499,9.770866394,0.050547998,-1.7225703,1.855358362,1.48886621,2.222810984,64.153511,-4.81747,-10.637595,35.41127,-0.32608,-1.817786
390,2289900423,-168.1334229,-80.09928894,121.4273224,9.773240089,0.044594616,-1.677419901,1.610308886,1.46143508,2.147957802,64.316398,-4.816727,-10.665552,35.438108,-0.301723,-1.781987
391,2289917090,-168.1083679,-80.08625031,121.4263687,9.75940609,0.039631329,-1.668687105,1.764932871,1.259325266,2.156269312,64.479055,-4.816066,-10.693363,35.467524,-0.280734,-1.746049
392,2289933757,-168.0969849,-80.07322693,121.4348907,9.762435913,0.053763334,-1.667387843,1.509599805,1.221738458,2.062514067,64.641762,-4.81517,-10.721153,35.492684,-0.260372,-1.711674
393,2289950424,-168.0824127,-80.05818176,121.4376068,9.776072502,0.059308931,-1.670020342,1.357831717,1.102268219,2.148483038,64.804697,-4.814182,-10.748987,35.515315,-0.242001,-1.675866
394,2289967091,-168.0517731,-80.0437088,121.4220505,9.752299309,0.043255277,-1.7495749,1.239193559,1.168515325,2.327438593,64.967235,-4.813461,-10.778147,35.535968,-0.222526,-1.637075
395,2289983758,-168.0236359,-80.03475189,121.4155579,9.808129311,0.021765636,-1.703453541,1.62812233,1.459501147,2.170138359,65.130704,-4.813098,-10.806538,35.563103,-0.198201,-1.600906
396,2290000425,-167.9915161,-80.02573395,121.4052353,9.755155563,0.037396438,-1.659886122,1.642184019,1.452970266,2.209928036,65.29329,-4.812475,-10.834203,35.590473,-0.173985,-1.564074
397,2290017092,-167.9834595,-80.01322174,121.4163971,9.769183159,0.01119221,-1.634042263,1.46824789,1.190004349,2.037233829,65.45611,-4.812288,-10.861437,35.614944,-0.154152,-1.53012
398,2290033759,-167.9793243,-79.99547577,121.431694,9.745249748,0.048317097,-1.649317026,1.475867867,0.860445797,2.060643911,65.618531,-4.811483,-10.888926,35.639542,-0.139811,-1.495776
399,2290050426,-167.9725342,-79.97736359,121.4445496,9.75820446,0.048409261,-1.68681848,1.495486856,0.832784057,2.090687513,65.781168,-4.810676,-10.91704,35.664467,-0.125931,-1.460931
400,2290067093,-167.9584503,-79.9590683,121.451149,9.743367195,0.058829486,-1.637343645,1.562848568,0.821386576,2.159573317,65.943557,-4.809696,-10.944329,35.690514,-0.112241,-1.424938
401,2290083760,-167.9311981,-79.93709564,121.4446335,9.754092216,0.043298222,-1.662169337,1.579355836,0.622452676,2.341103077,66.106125,-4.808974,-10.972032,35.716837,-0.101867,-1.38592
402,2290100427,-167.9097595,-79.91606903,121.4407349,9.767853737,0.027299792,-1.659339547,1.387606502,0.661691308,2.304605007,66.268923,-4.808519,-10.999688,35.739964,-0.090839,-1.34751
403,2290117094,-167.8803864,-79.89517212,121.4297104,9.765790939,0.040622998,-1.693341017,1.441610694,0.674472034,2.376986504,66.431686,-4.807842,-11.02791,35.763991,-0.079598,-1.307894
404,2290133761,-167.8580322,-79.87493896,121.4252625,9.779715538,0.035763055,-1.715946436,1.40649581,0.691376388,2.303042889,66.594681,-4.807246,-11.056509,35.787433,-0.068075,-1.26951
405,2290150428,-167.8360596,-79.86068726,121.4222794,9.76415062,0.008346262,-1.684471369,1.475803733,1.024674416,2.21476841,66.757417,-4.807107,-11.084584,35.81203,-0.050997,-1.232597
406,2290167095,-167.8175812,-79.84685516,121.4239044,9.777374268,0.021364622,-1.677532673,1.539476752,1.02696681,2.162441492,66.920373,-4.806751,-11.112543,35.837688,-0.033881,-1.196556
407,2290183762,-167.7982788,-79.83248901,121.4249878,9.78345108,0.060855187,-1.664040089,1.555190444,0.990225494,2.174979448,67.083431,-4.805737,-11.140277,35.863608,-0.017377,-1.160306
408,2290200429,-167.7707367,-79.81296539,121.4170761,9.801875114,0.08764381,-1.646928072,1.522738934,0.696050704,2.335109711,67.246796,-4.804276,-11.167726,35.888987,-0.005776,-1.121388
409,2290217096,-167.7268219,-79.79438782,121.3920364,9.771104813,0.032488875,-1.7256037,1.491030574,0.779612184,2.504781246,67.409648,-4.803735,-11.196486,35.913838,0.007218,-1.079642
410,2290233763,-167.6807251,-79.77707672,121.3662872,9.74993515,0.023447238,-1.684124827,1.584440112,0.848062158,2.498327017,67.572147,-4.803344,-11.224555,35.940245,0.021352,-1.038003
411,2290250430,-167.6335449,-79.76030731,121.3400726,9.77214241,0.008205793,-1.672685623,1.623000026,0.86569649,2.498326778,67.735016,-4.803207,-11.252433,35.967295,0.03578,-0.996364
412,2290267097,-167.5995331,-79.74502563,121.323082,9.754689217,0.010136889,-1.665452242,1.375632524,0.925809443,2.383825064,67.897594,-4.803038,-11.280191,35.990222,0.05121,-0.956634
413,2290283764,-167.5802307,-79.72306824,121.3194046,9.749071121,0.056578372,-1.664677024,1.28299129,0.493838429,2.332189798,68.060079,-4.802095,-11.307936,36.011605,0.059441,-0.917764
414,2290300431,-167.5610504,-79.70539093,121.3149948,9.762163162,-0.009605836,-1.690075994,1.230882406,0.739284933,2.286189556,68.222782,-4.802255,-11.336104,36.03212,0.071762,-0.879661
415,2290317098,-167.5399323,-79.68675995,121.3083649,9.769003868,0.045250699,-1.677734852,1.216539145,0.679632962,2.322598219,68.385599,-4.801501,-11.364066,36.052396,0.083089,-0.840951
416,2290333765,-167.5236053,-79.67044067,121.3063889,9.751529694,-0.019802934,-1.744647503,1.207651615,0.789191306,2.245183706,68.548124,-4.801831,-11.393143,36.072524,0.096242,-0.803531
417,2290350432,-167.5178528,-79.65783691,121.3166351,9.743913651,-0.015984314,-1.668584466,1.293607712,0.973295331,2.067918062,68.710523,-4.802097,-11.420953,36.094084,0.112464,-0.769066
418,2290367099,-167.5167236,-79.64170837,121.3347702,9.747450829,0.005030553,-1.6622504,1.481938004,0.74097544,2.030523539,68.872981,-4.802013,-11.448657,36.118783,0.124814,-0.735224
419,2290383766,-167.5298767,-79.62420654,121.361618,9.720498085,0.039889909,-1.644916058,1.14034152,0.629752278,1.956490159,69.034989,-4.801348,-11.476072,36.137789,0.13531,-0.702616
420,2290400433,-167.5411377,-79.60463715,121.3859558,9.748233795,0.014984938,-1.653869629,1.10703218,0.503981054,2.009124041,69.19746,-4.801098,-11.503636,36.15624,0.14371,-0.669131
421,2290417100,-167.5403748,-79.5839386,121.3989944,9.771245956,0.029989604,-1.681693912,1.167324543,0.452064186,2.143270731,69.360314,-4.800598,-11.531664,36.175695,0.151244,-0.63341
422,2290433767,-167.5419922,-79.56110382,121.4133377,9.77707386,0.045384813,-1.685530066,1.097440243,0.317277312,2.157767534,69.523265,-4.799842,-11.559756,36.193986,0.156532,-0.597447
423,2290450434,-167.5288391,-79.53920746,121.418541,9.765445709,0.025033608,-1.707496524,1.447040677,0.385791302,2.243237019,69.686022,-4.799425,-11.588214,36.218103,0.162962,-0.56006
424,2290467101,-167.5277405,-79.51940155,121.4340439,9.770805359,0.024921261,-1.682367921,1.333077073,0.471926749,2.108360529,69.848869,-4.79901,-11.616253,36.240321,0.170827,-0.524921
425,2290483768,-167.5318756,-79.49918365,121.4531937,9.755921364,0.010758076,-1.684291363,1.23836112,0.431253791,2.073181391,70.011468,-4.798831,-11.644325,36.26096,0.178015,-0.490368
426,2290500435,-167.5431366,-79.48047638,121.4794617,9.745449066,-0.003281575,-1.717173219,1.229255915,0.494939834,1.97855556,70.173892,-4.798886,-11.672945,36.281448,0.186264,-0.457392
427,2290517102,-167.5590668,-79.46411896,121.5120163,9.749002457,0.004976725,-1.747716546,1.318682671,0.611003697,1.880509853,70.336375,-4.798803,-11.702074,36.303426,0.196447,-0.42605
428,2290533769,-167.5822296,-79.44998932,121.5525055,9.745157242,0.051608533,-1.684455156,1.354297161,0.718910098,1.7643435,70.498794,-4.797943,-11.730148,36.325998,0.208429,-0.396644
429,2290550436,-167.5968933,-79.43523407,121.5844727,9.748961449,0.027280571,-1.706522942,1.369216561,0.690608084,1.864976168,70.661277,-4.797488,-11.75859,36.348818,0.219939,-0.365561
430,2290567103,-167.6071014,-79.42166138,121.6098251,9.7477808,0.023487851,-1.678365946,1.24431622,0.765205085,1.92006886,70.82374,-4.797097,-11.786563,36.369557,0.232692,-0.33356
431,2290583770,-167.6099243,-79.40751648,121.6290588,9.768074989,-0.006478509,-1.653952003,1.323907614,0.743536711,1.993756533,70.986541,-4.797205,-11.814129,36.391622,0.245084,-0.300331
432,2290600437,-167.6275177,-79.39212799,121.6602173,9.778231621,0.032749083,-1.655930519,1.14705193,0.626768351,1.880535722,71.149512,-4.796659,-11.841728,36.41074,0.25553,-0.268989
433,2290617104,-167.6396637,-79.37528992,121.685997,9.767347336,0.029088987,-1.707988501,1.156848907,0.54890579,1.956106067,71.312301,-4.796174,-11.870194,36.430021,0.264678,-0.236387
434,2290633771,-167.640564,-79.35782623,121.7025146,9.758885384,0.018938815,-1.753537178,1.285014868,0.525431752,2.065779686,71.474949,-4.795858,-11.89942,36.451438,0.273435,-0.201957
435,2290650438,-167.6308746,-79.34440613,121.711174,9.752280235,0.014514037,-1.703457475,1.454673171,0.778293014,2.09810257,71.637487,-4.795616,-11.927811,36.475683,0.286407,-0.166989
436,2290667105,-167.6161041,-79.33159637,121.7157745,9.739897728,0.007082149,-1.676665068,1.525697351,0.812703848,2.134178162,71.799819,-4.795498,-11.955755,36.501111,0.299952,-0.131419
437,2290683772,-167.6104889,-79.31726837,121.7258453,9.73596859,-0.007760949,-1.722221375,1.297347188,0.704272389,2.094811678,71.962085,-4.795627,-11.984459,36.522733,0.31169,-0.096505
438,2290700439,-167.6016693,-79.30432129,121.7350922,9.772595406,-0.003942923,-1.73966074,1.443480611,0.779138267,2.085744381,72.124962,-4.795693,-12.013453,36.546791,0.324676,-0.061743
439,2290717106,-167.5945892,-79.29601288,121.7469788,9.759222984,0.01728458,-1.699671507,1.491312385,1.041284323,1.99679172,72.287616,-4.795405,-12.041781,36.571646,0.342031,-0.028463
440,2290733773,-167.5994568,-79.287117,121.7678757,9.759977341,0.014841914,-1.681768179,1.313291192,0.976266503,1.906225324,72.450282,-4.795158,-12.06981,36.593534,0.358302,0.003307
441,2290750440,-167.6029053,-79.2795639,121.786293,9.790304184,0.031809904,-1.701071262,1.251231551,1.056049943,1.915484071,72.613454,-4.794628,-12.098161,36.614388,0.375903,0.035232
442,2290767107,-167.6068878,-79.27334595,121.8066711,9.767213821,0.045994453,-1.726619363,1.334524155,1.119006038,1.877513409,72.776241,-4.793861,-12.126938,36.63663,0.394553,0.066524
443,2290783774,-167.604126,-79.27057648,121.8221588,9.757019043,0.014045237,-1.728919506,1.453405499,1.329657674,1.88754046,72.938858,-4.793627,-12.155753,36.660853,0.416714,0.097983
444,2290800441,-167.6082611,-79.26947784,121.8450317,9.756203651,-0.002925806,-1.693271518,1.475765347,1.402769089,1.78597343,73.101461,-4.793676,-12.183974,36.685449,0.440093,0.127749
445,2290817108,-167.6099243,-79.26824951,121.8633194,9.742321014,0.006946541,-1.666915536,1.358356714,1.39646852,1.836379409,73.263833,-4.79356,-12.211756,36.708088,0.463367,0.158355
446,2290833775,-167.6266022,-79.26683044,121.893631,9.765267372,0.006531058,-1.683524489,1.170551658,1.352914095,1.706177354,73.426587,-4.793451,-12.239815,36.727597,0.485916,0.186791
447,2290850442,-167.6568298,-79.26435852,121.9397354,9.755786896,0.014822876,-1.681458831,1.282440543,1.249349117,1.548518181,73.589183,-4.793204,-12.267839,36.748971,0.506738,0.2126
448,2290867109,-167.6819611,-79.26212311,121.9822617,9.767823219,0.016460681,-1.658777475,1.383457184,1.257698774,1.583594799,73.75198,-4.79293,-12.295485,36.772029,0.5277,0.238993
449,2290883776,-167.7131042,-79.25680542,122.0269623,9.768834114,0.031410512,-1.662383318,1.150740266,1.0692662,1.599192977,73.914794,-4.792406,-12.323191,36.791208,0.545521,0.265646
450,2290900443,-167.7433472,-79.25048828,122.0695496,9.748742104,0.035623435,-1.652885318,1.08198297,1.00518322,1.634884357,74.077273,-4.791812,-12.350739,36.809241,0.562274,0.292894
451,2290917110,-167.7633209,-79.24372101,122.1047974,9.753373146,0.03631641,-1.696155548,1.263602614,0.994797349,1.720008135,74.239829,-4.791207,-12.379008,36.830301,0.578854,0.321561
452,2290933777,-167.7882233,-79.23728943,122.1430206,9.747126579,0.025488447,-1.674763441,1.150330305,0.996974349,1.683714986,74.402281,-4.790782,-12.406921,36.849473,0.59547,0.349623
453,2290950444,-167.8111877,-79.23027802,122.1803131,9.751939774,0.016230464,-1.676134348,1.204872727,0.96062994,1.701285362,74.564813,-4.790511,-12.434857,36.869554,0.61148,0.377978
454,2290967111,-167.8392487,-79.22595978,122.2219849,9.771074295,0.042210486,-1.695892453,1.163277745,1.102306604,1.618108153,74.727664,-4.789807,-12.463122,36.888942,0.629852,0.404946
455,2290983778,-167.8655701,-79.22086334,122.2616196,9.752246857,0.035217885,-1.696289897,1.151047468,1.055755496,1.64915061,74.890201,-4.78922,-12.491393,36.908126,0.647448,0.432432
456,2291000445,-167.8875427,-79.2170105,122.2987289,9.737945557,0.028356852,-1.678612828,1.261796832,1.127355695,1.662738085,75.0525,-4.788747,-12.51937,36.929156,0.666237,0.460144
457,2291017112,-167.8985901,-79.21285248,122.3254929,9.755217552,0.014251766,-1.631875038,1.309141874,1.129622459,1.778917313,75.215087,-4.788509,-12.546568,36.950975,0.685064,0.489793
458,2291033779,-167.9055786,-79.20376587,122.3469543,9.753673553,0.03133725,-1.65427649,1.238835216,0.844604433,1.899821997,75.377648,-4.787987,-12.574139,36.971622,0.699141,0.521457
459,2291050446,-167.9090729,-79.19490814,122.3669815,9.766017914,0.037487306,-1.682955623,1.364350319,0.857948661,1.911719203,75.540415,-4.787362,-12.602188,36.994361,0.71344,0.553319
460,2291067113,-167.9133911,-79.18631744,122.3889008,9.773954391,0.046050869,-1.672234058,1.427856684,0.861470222,1.887732625,75.703314,-4.786594,-12.630059,37.018159,0.727798,0.584781
461,2291083780,-167.8997345,-79.17507935,122.3955307,9.75932312,0.034559354,-1.690055728,1.609489322,0.734546661,2.089484215,75.865969,-4.786018,-12.658227,37.044984,0.74004,0.619606
462,2291100447,-167.891037,-79.16085052,122.4075546,9.744721413,0.024800804,-1.674877882,1.632604718,0.542784333,2.067700386,76.028381,-4.785605,-12.686142,37.072194,0.749086,0.654068
463,2291117114,-167.8733673,-79.14965057,122.4114609,9.76371479,0.021404339,-1.681068659,1.694075108,0.732792139,2.118182898,76.19111,-4.785248,-12.71416,37.100429,0.761299,0.689371
464,2291133781,-167.8595581,-79.13802338,122.4166794,9.757860184,0.046891063,-1.624952078,1.530806899,0.700481653,2.112278938,76.353741,-4.784466,-12.741243,37.125942,0.772974,0.724576
465,2291150448,-167.8551178,-79.1243515,122.426239,9.772528648,0.045762409,-1.668194413,1.228999972,0.563645899,2.088293314,76.516616,-4.783703,-12.769046,37.146425,0.782368,0.759381
466,2291167115,-167.8298187,-79.11110687,122.4166794,9.763943672,0.040200837,-1.704090714,1.346831203,0.632633686,2.295922518,76.679348,-4.783033,-12.797448,37.168872,0.792912,0.797646
467,2291183782,-167.8099976,-79.09862518,122.4145737,9.741019249,0.016514692,-1.700768948,1.473229527,0.648846507,2.203934431,76.841698,-4.782758,-12.825794,37.193426,0.803726,0.834378
468,2291200449,-167.7848816,-79.08669281,122.4074554,9.735717773,0.021327334,-1.66638267,1.498675823,0.691261172,2.250664711,77.00396,-4.782403,-12.853567,37.218404,0.815247,0.871889
469,2291217116,-167.7691956,-79.07479858,122.4075928,9.743857384,0.008403877,-1.668035507,1.353131771,0.668555439,2.172392368,77.166358,-4.782263,-12.881368,37.240956,0.82639,0.908096
470,2291233783,-167.7619171,-79.06625366,122.4150238,9.75160408,0.03511652,-1.708729506,1.283452272,0.846704543,2.045993567,77.328885,-4.781678,-12.909847,37.262347,0.840502,0.942196
471,2291250450,-167.7526703,-79.05725861,122.4217606,9.746905327,0.021899754,-1.704892874,1.365272164,0.813100755,2.060605764,77.491333,-4.781313,-12.938262,37.285102,0.854054,0.976539
472,2291267117,-167.7260742,-79.05099487,122.4156265,9.782128334,0.029935941,-1.64746964,1.644015074,1.00054729,2.169856548,77.654368,-4.780814,-12.96572,37.312502,0.87073,1.012703
473,2291283784,-167.7047729,-79.04224396,122.4140549,9.771195412,0.039730977,-1.666742921,1.600896239,0.837215185,2.149750948,77.817221,-4.780152,-12.993499,37.339184,0.884684,1.048532
474,2291300451,-167.6814117,-79.03364563,122.4108582,9.757538795,0.026443517,-1.694689631,1.644886136,0.842632174,2.16391468,77.979847,-4.779711,-13.021744,37.366599,0.898728,1.084597
475,2291317118,-167.6545563,-79.02603149,122.4085236,9.757463455,0.002976581,-1.679592252,1.905764103,0.899441183,2.142527819,78.142471,-4.779661,-13.049737,37.398362,0.913719,1.120306
476,2291333785,-167.6291199,-79.02079773,122.4093018,9.784636497,0.046546921,-1.631788015,1.99572897,1.022510409,2.07913661,78.305548,-4.778885,-13.076933,37.431624,0.930761,1.154958
477,2291350452,-167.6081696,-79.01337433,122.411087,9.78119278,0.031366065,-1.687952995,1.789533615,0.885033965,2.095080376,78.468568,-4.778362,-13.105066,37.46145,0.945512,1.189876
478,2291367119,-167.5853882,-79.00567627,122.4094772,9.742043495,-0.002759157,-1.716360927,1.699684501,0.880218923,2.136713982,78.630935,-4.778408,-13.133672,37.489778,0.960182,1.225488
479,2291383786,-167.5512695,-79.00025177,122.4006958,9.73605442,0.005128916,-1.674799085,1.959115505,1.021178365,2.188349247,78.793203,-4.778323,-13.161585,37.52243,0.977202,1.26196
480,2291400453,-167.5270233,-78.99543762,122.3984146,9.742180824,0.025123481,-1.644696355,1.751716495,1.036174655,2.106721401,78.955573,-4.777904,-13.188997,37.551625,0.994472,1.297072
481,2291417120,-167.4976807,-78.98536682,122.3913345,9.772843361,0.036916874,-1.664932132,1.771643281,0.735558391,2.229931355,79.118454,-4.777289,-13.216746,37.581152,1.006731,1.334238
482,2291433787,-167.462204,-78.97529602,122.375885,9.776392937,0.021693429,-1.679366469,1.655912399,0.751822531,2.322649479,79.281394,-4.776927,-13.244735,37.608751,1.019261,1.372949
483,2291450454,-167.4264679,-78.9634552,122.3625641,9.770069122,0.041969731,-1.699598908,1.796705365,0.637653708,2.323122978,79.444228,-4.776228,-13.273062,37.638696,1.029889,1.411668
484,2291467121,-167.3933563,-78.9519043,122.3504944,9.771109581,-0.000845258,-1.69672513,1.71292603,0.648206174,2.306846142,79.60708,-4.776242,-13.301341,37.667245,1.040692,1.450115
485,2291483788,-167.3619537,-78.93972015,122.3393478,9.746847153,0.029236427,-1.674157262,1.666759253,0.606611192,2.303337336,79.769527,-4.775755,-13.329244,37.695024,1.050802,1.488504
486,2291500455,-167.3316803,-78.92523956,122.3280182,9.735912323,0.006648506,-1.691580057,1.589139938,0.465933412,2.337824583,79.931792,-4.775644,-13.357437,37.72151,1.058568,1.527468
487,2291517122,-167.3052826,-78.90992737,122.3194122,9.745497704,0.0147138,-1.664238334,1.511277318,0.411711365,2.318487167,80.094217,-4.775399,-13.385174,37.746698,1.06543,1.566109
488,2291533789,-167.2789612,-78.89530182,122.3106003,9.76415062,0.006420573,-1.67706418,1.497215986,0.44376567,2.313287973,80.256953,-4.775292,-13.413125,37.771652,1.072826,1.604664
489,2291550456,-167.2628632,-78.87600708,122.3100433,9.749533653,0.019301841,-1.682131052,1.385134816,0.147785291,2.279312611,80.419445,-4.77497,-13.441161,37.794738,1.075289,1.642653
490,2291567123,-167.2464752,-78.85687256,122.310791,9.775553703,0.004598556,-1.677790999,1.480401397,0.145877138,2.26312542,80.582371,-4.774893,-13.469124,37.819411,1.07772,1.680372
491,2291583790,-167.2277374,-78.83900452,122.3081818,9.732113838,-0.018778116,-1.695405841,1.415242672,0.226569951,2.286227942,80.744573,-4.775206,-13.497381,37.842998,1.081496,1.718476
492,2291600457,-167.2203827,-78.82260895,122.3132401,9.755596161,0.01334395,-1.663605928,1.185714245,0.288642317,2.178539515,80.907166,-4.774984,-13.525108,37.86276,1.086307,1.754785
493,2291617124,-167.210495,-78.80297852,122.3171082,9.767998695,0.026809502,-1.690496325,1.274577618,0.099671826,2.235373974,81.069966,-4.774537,-13.553283,37.884003,1.087968,1.792041
494,2291633791,-167.2065735,-78.78378296,122.3244858,9.741663933,0.020488277,-1.713279128,1.115638018,0.110877387,2.190718412,81.232327,-4.774196,-13.581838,37.902597,1.089816,1.828553
495,2291650458,-167.1931763,-78.76580811,122.3259964,9.770496368,0.016344408,-1.709051847,1.343488574,0.195937157,2.240163565,81.395169,-4.773924,-13.610322,37.924988,1.093082,1.865889
496,2291667125,-167.1732635,-78.75069427,122.3208771,9.769684792,0.00099922,-1.691760063,1.343988061,0.373266697,2.279261589,81.557997,-4.773907,-13.638518,37.947388,1.099303,1.903877
497,2291683792,-167.1726227,-78.73484039,122.3298798,9.736289024,-0.004807987,-1.640731215,1.020678878,0.294315547,2.127467871,81.720268,-4.773987,-13.665864,37.964399,1.104208,1.939335
498,2291700459,-167.1746674,-78.7203598,122.3395615,9.78380394,-0.007629664,-1.730269074,0.914668024,0.361484826,2.099037647,81.883331,-4.774114,-13.694702,37.979643,1.110233,1.974319
499,2291717126,-167.1775665,-78.70716858,122.3522797,9.768179893,0.013499127,-1.728326082,1.032217503,0.428436458,2.048478127,82.046134,-4.773889,-13.723507,37.996847,1.117374,2.00846
500,2291733793,-167.162674,-78.69857788,122.3492203,9.73794651,0.04113289,-1.747171521,1.177723289,0.732933044,2.167154551,82.208433,-4.773203,-13.752627,38.016476,1.12959,2.044579
501,2291750460,-167.125824,-78.69104767,122.3288269,9.747950554,0.019052498,-1.745446324,1.48091352,0.838969529,2.352705956,82.370899,-4.772885,-13.781718,38.041158,1.143573,2.083791
502,2291767127,-167.0854645,-78.68558502,122.3040161,9.741836548,-0.005116467,-1.713197351,1.410914063,0.971797109,2.37916398,82.533263,-4.77297,-13.810271,38.064673,1.15977,2.123444
503,2291783794,-167.0466766,-78.67889404,122.2833099,9.783208847,-0.011631183,-1.665835381,1.586501837,0.886647701,2.344279528,82.696316,-4.773164,-13.838035,38.091115,1.174547,2.162515
504,2291800461,-167.0166168,-78.66954803,122.2698517,9.782119751,0.035090953,-1.636224389,1.484563351,0.706769705,2.297203064,82.859351,-4.772579,-13.865305,38.115858,1.186326,2.200802
505,2291817128,-166.9915009,-78.65631104,122.2581329,9.744534492,0.005860272,-1.720963001,1.294914007,0.463756293,2.331626415,83.02176,-4.772481,-13.893988,38.13744,1.194055,2.239662
506,2291833795,-166.9911499,-78.64419556,122.2658081,9.706168175,-0.044950359,-1.701059222,0.941420376,0.480455846,2.094222546,83.183529,-4.77323,-13.922339,38.15313,1.202063,2.274566
507,2291850462,-167.0042725,-78.63303375,122.290451,9.701022148,-0.058680613,-1.697375417,1.142223954,0.490252733,1.883289099,83.345213,-4.774208,-13.950629,38.172167,1.210234,2.305954
508,2291867129,-167.0384216,-78.62054443,122.3351517,9.713459015,-0.03798414,-1.730082273,1.060916424,0.349101096,1.668257594,83.507104,-4.774841,-13.979464,38.189849,1.216052,2.333758
509,2291883796,-167.1011353,-78.60666656,122.4053802,9.644818306,-0.046429455,-1.707942009,0.857321143,0.197204992,1.389386535,83.667851,-4.775615,-14.00793,38.204138,1.219339,2.356914
510,2291900463,-167.1846924,-78.59080505,122.4952469,9.720226288,0.005302154,-1.497125387,0.775501311,0.03283548,1.18264091,83.829855,-4.775527,-14.032882,38.217063,1.219886,2.376625
511,2291917130,-167.2700043,-78.55729675,122.5901871,9.828276634,0.036752827,-1.613491297,0.955776215,-1.019570947,1.356461167,83.99366,-4.774914,-14.059774,38.232993,1.202893,2.399233
512,2291933797,-167.3851318,-78.51880646,122.7022629,9.837371826,-0.013288646,-1.722800493,0.159874469,-1.360975504,1.217474103,84.157616,-4.775135,-14.088487,38.235658,1.18021,2.419524
513,2291950464,-167.5088348,-78.47989655,122.8296738,9.749203682,-0.02252195,-1.697921395,0.566604078,-1.430757165,1.030437231,84.320103,-4.77551,-14.116786,38.245101,1.156364,2.436698
514,2291967131,-167.6080017,-78.4360199,122.9420242,9.735843658,0.101585954,-1.493798137,1.166607261,-1.690124393,1.259414911,84.482367,-4.773817,-14.141683,38.264544,1.128195,2.457688
515,2291983798,-167.689209,-78.3481369,123.0308228,9.643610954,0.1405963,-1.439236403,0.836254835,-4.21061945,2.093659163,84.643094,-4.771474,-14.16567,38.278482,1.058018,2.492582
516,2292000465,-167.7579498,-78.23152924,123.0924149,9.640624046,-0.051878702,-1.343752384,-0.014503191,-5.838255405,2.770436287,84.803771,-4.772339,-14.188066,38.27824,0.960714,2.538756
517,2292017132,-167.8184662,-78.06021118,123.1553726,9.556968689,0.084667541,-1.236942887,0.580524862,-9.059361458,3.424213648,84.963054,-4.770928,-14.208682,38.287915,0.809725,2.595826
518,2292033799,-167.8353882,-77.8190918,123.1688843,9.689519882,0.305413753,-0.999085248,0.292535663,-13.0404911,4.892810345,85.124546,-4.765838,-14.225333,38.292791,0.592383,2.677373
519,2292050466,-167.7354126,-77.47875214,123.0903397,9.844329834,0.113743111,-0.844869912,1.918816566,-18.62219429,7.315816402,85.288618,-4.763942,-14.239414,38.324771,0.282013,2.799303
520,2292067133,-167.5259094,-77.02300262,122.9081116,9.752905846,0.223725647,-0.858901739,2.439321756,-25.10102081,10.22335052,85.451166,-4.760213,-14.253729,38.365426,-0.136337,2.969692
521,2292083800,-167.194931,-76.43549347,122.5958023,9.848928452,0.261333704,-0.963968694,2.152616024,-32.37369156,13.91969299,85.615315,-4.755857,-14.269795,38.401303,-0.675899,3.201687
522,2292100467,-166.7109222,-75.74210358,122.1625671,10.11459541,0.159480765,-0.864545405,4.360320091,-38.06542587,17.48804855,85.783892,-4.753199,-14.284204,38.473975,-1.310323,3.493154
523,2292117134,-166.0489655,-74.94563293,121.5801392,10.45288467,0.252391756,-0.98358804,6.473228455,-43.33553314,21.85187531,85.958107,-4.748992,-14.300597,38.581862,-2.032582,3.857352
524,2292133801,-165.2974854,-74.04467773,120.8863831,10.67826939,0.482533276,-1.065818429,5.558336735,-48.61916351,26.16269684,86.136078,-4.74095,-14.318361,38.674501,-2.842901,4.293397
525,2292150468,-164.5170593,-73.06090546,120.0895233,11.52622128,0.698973358,-0.694594741,1.559411168,-52.49641418,30.45046616,86.328182,-4.7293,-14.329938,38.700491,-3.717841,4.800905
526,2292167135,-163.7602692,-71.93849945,119.3418503,12.13349724,0.542249143,-0.857494593,3.234092236,-60.17100906,33.39828491,86.530407,-4.720263,-14.34423,38.754393,-4.720691,5.357543
527,2292183802,-163.0487213,-70.66616058,118.6618195,12.89387894,1.729018927,-1.508453727,4.676261425,-68.54638672,36.36022949,86.745305,-4.691446,-14.369371,38.832331,-5.863131,5.963547
528,2292200469,-162.111618,-69.23703766,118.2831802,14.24735451,0.309145361,-0.637115777,35.5450058,-78.65159607,35.15077591,86.982761,-4.686294,-14.37999,39.424748,-7.173991,6.549393
529,2292217136,-160.3735809,-67.77749634,117.7974472,13.28276157,-0.180907696,-1.566110373,77.84844971,-78.72179413,40.32888412,87.20414,-4.689309,-14.406092,40.722222,-8.486021,7.221541
530,2292233803,-158.3948517,-66.04036713,117.1665421,11.58204269,-2.402861834,-2.405920267,84.60388947,-91.60270691,52.66117477,87.397174,-4.729357,-14.446191,42.132287,-10.012733,8.099227
531,2292250470,-156.3840637,-64.26292419,116.5990906,11.11346054,-4.617320538,-1.948992014,90.45091248,-92.24766541,56.25823975,87.582398,-4.806312,-14.478674,43.639802,-11.550194,9.036864
532,2292267137,-154.1751099,-62.45910263,116.3003235,11.6936264,-4.937510967,-2.006170034,117.1871719,-94.27097321,54.56631851,87.777292,-4.888604,-14.51211,45.592922,-13.121377,9.946303
533,2292283804,-151.7647247,-60.94817734,116.1669159,10.97831726,-0.42401126,-3.896270514,138.2233124,-78.38034821,46.54922867,87.960264,-4.895671,-14.577048,47.896644,-14.427716,10.722123
534,2292300471,-149.4048157,-60.14412689,116.2596817,9.537438393,-1.419431329,-1.619243979,147.118454,-42.71627045,23.31813812,88.119221,-4.919328,-14.604035,50.348618,-15.139654,11.110759
535,2292317138,-146.4737854,-60.02324677,116.3300476,7.816520214,1.378997564,2.105862856,180.205307,-6.630089283,4.10193491,88.249496,-4.896345,-14.568937,53.35204,-15.250155,11.179125
536,2292333805,-143.3503265,-60.45029449,116.4009323,5.253840446,4.001108646,2.874277115,191.7942657,20.33865356,-14.35241318,88.33706,-4.82966,-14.521032,56.548611,-14.911177,10.939918
537,2292350472,-141.0982819,-61.45851517,116.7821808,5.027335644,4.993803978,2.712773561,155.8555908,41.54827118,-43.63674545,88.420849,-4.74643,-14.475819,59.146204,-14.218706,10.212639
538,2292367139,-139.9908905,-63.00549698,117.6453934,5.449794769,4.50178051,2.75944519,113.0498047,56.82977676,-75.30982971,88.511679,-4.6714,-14.429828,61.030367,-13.271543,8.957475
539,2292383806,-140.0232239,-64.97669983,119.173111,6.955441475,2.531228065,1.527067423,81.26983643,65.22705841,-104.4027481,88.627603,-4.629213,-14.404377,62.384864,-12.184425,7.217429
540,2292400473,-140.8206635,-67.34825134,121.2429047,8.2102108,1.3469491,0.190869361,66.6227951,78.10346985,-126.8554077,88.76444,-4.606764,-14.401196,63.495244,-10.882701,5.103172
541,2292417140,-142.0676727,-70.0559082,123.7993622,9.345983505,0.640299261,-0.548654974,69.00609589,92.71276855,-142.2673492,88.920206,-4.596092,-14.41034,64.645346,-9.337488,2.73205
542,2292433807,-143.713501,-72.9937439,126.9560089,10.40428734,-1.392539978,-1.418664932,81.83652496,104.7563705,-151.5867004,89.093611,-4.619301,-14.433984,66.009288,-7.591548,0.205605
543,2292450474,-145.5668335,-76.03870392,130.8616333,11.78730965,-3.90973115,-2.889322042,115.5926895,113.2010193,-154.0647583,89.290066,-4.684463,-14.482139,67.935833,-5.704864,-2.362141
544,2292467141,-147.7604218,-79.13579559,135.8623505,12.57329178,-5.227130413,-4.11399889,162.3642883,120.2503433,-153.2794342,89.499621,-4.771582,-14.550706,70.641904,-3.700692,-4.916798
545,2292483808,-152.0232391,-82.10946655,143.6890411,11.77990723,-4.018630028,-5.084354401,208.5091858,116.3451309,-152.8491058,89.695953,-4.838559,-14.635445,74.117057,-1.761606,-7.464283
546,2292500475,-162.6688538,-84.57678223,157.9689178,11.9292326,-3.901098967,-5.151134014,213.2894592,98.27342224,-145.4338074,89.894774,-4.903577,-14.721297,77.671881,-0.123716,-9.88818
547,2292517142,176.8680878,-86.22498322,-178.2040558,12.01560402,-7.723125935,-4.74630928,198.233139,82.96273041,-122.352066,90.095034,-5.032296,-14.800402,80.975767,1.258996,-11.927381
548,2292533809,144.7261353,-86.79338074,-143.2149048,10.07340813,-7.727846146,-4.079902172,167.8638306,73.27297974,-105.7075195,90.262924,-5.161093,-14.8684,83.773498,2.480212,-13.689173
549,2292550476,118.8717499,-86.35535431,-114.9784622,9.787611008,-6.15306139,-3.819257736,140.6435242,58.98615646,-83.46103668,90.426051,-5.263644,-14.932054,86.117557,3.463315,-15.08019
550,2292567143,103.4278946,-85.9119339,-97.73139954,8.759763718,-7.116571426,-3.693737268,106.4426422,56.69350433,-47.38079834,90.572047,-5.382254,-14.993616,87.891601,4.408207,-15.86987
551,2292583810,94.39440155,-85.91980743,-87.66810608,8.16024971,-7.349145889,-3.94962883,60.7783699,43.92803955,-4.082777977,90.708051,-5.50474,-15.059443,88.904574,5.140341,-15.937916
552,2292600477,89.26303101,-86.4778595,-81.9758606,6.076904774,-7.014055252,-6.346432686,33.37783051,25.18522835,34.69033051,90.809333,-5.621641,-15.165217,89.460871,5.560095,-15.359744
553,2292617144,87.39492798,-87.37743378,-79.77039337,8.770285606,-7.998850346,-6.844026089,20.48031807,7.11213541,56.02161026,90.955504,-5.754955,-15.279284,89.80221,5.678631,-14.42605
554,2292633811,76.3325119,-87.88816833,-69.35955811,9.839794159,9.362290382,-2.109783888,-39.21612167,22.89087296,35.62759018,91.119501,-5.598917,-15.314447,89.148608,6.060146,-13.832257
555,2292650478,63.26240921,-87.67198944,-56.74666214,16.51918602,15.07086563,7.997680664,-27.54771233,33.62503433,-0.106645584,91.394821,-5.347736,-15.181152,88.689479,6.620563,-13.834034
556,2292667145,52.7831192,-88.1999588,-44.73401642,13.99498177,-4.367372513,-1.822167873,92.05257416,6.862454891,42.56154251,91.628071,-5.420526,-15.211521,90.223689,6.734937,-13.124675
557,2292683812,17.41829109,-89.1500473,-8.934598923,14.32361412,0.036153637,-11.64055347,26.11808968,-14.62275887,73.17285919,91.866798,-5.419923,-15.40553,90.65899,6.491224,-11.905127
558,2292700479,-31.67648506,-88.63140869,39.58931732,9.774599075,2.947417736,1.156992435,-34.19937134,23.10272598,59.84280014,92.029708,-5.370799,-15.386247,90.089,6.876269,-10.907747
559,2292717146,-47.12073135,-87.98452759,54.84991837,5.781634808,-1.724007368,3.960075855,-10.84957886,14.35360146,47.31843948,92.126069,-5.399532,-15.320246,89.908174,7.115496,-10.119106
560,2292733813,-56.30977631,-87.41419983,64.42166901,8.782419205,-3.747251511,-0.666000187,23.02882767,4.72767067,43.07086182,92.272443,-5.461986,-15.331346,90.291988,7.194291,-9.401258
561,2292750480,-55.87833405,-86.87575531,64.59384155,9.450171471,-2.231074333,1.163510919,36.72214127,19.2788887,29.06487274,92.429946,-5.499171,-15.311954,90.904024,7.515606,-8.916843
562,2292767147,-55.29434967,-86.53790283,64.37499237,9.721375465,1.69563663,1.222961545,22.44066048,13.75618267,18.23852348,92.591969,-5.47091,-15.291571,91.278035,7.744876,-8.612868
563,2292783814,-56.32213211,-86.26021576,65.67171478,10.9572525,0.611416996,-1.596058249,16.49610138,6.971216202,18.48509789,92.77459,-5.46072,-15.318172,91.55297,7.861063,-8.304783
564,2292800481,-56.19225693,-85.95272064,65.75640106,11.14243031,-0.379220635,-1.696950197,13.39157772,11.63752556,17.51456451,92.960297,-5.46704,-15.346455,91.776163,8.055022,-8.012874
565,2292817148,-55.07710266,-85.6167984,64.97878265,9.775053978,0.267682523,-0.262843102,20.90734673,15.90467072,16.67852211,93.123215,-5.462579,-15.350836,92.124619,8.3201,-7.734899
566,2292833815,-54.80050659,-85.30539703,65.09275055,9.683020592,0.206520289,-0.326363474,23.95466995,11.98332882,17.57849503,93.284599,-5.459137,-15.356275,92.523863,8.519822,-7.441924
567,2292850482,-53.47463226,-85.01564026,64.09262085,9.772601128,-0.399616987,0.226961598,20.30757713,15.98745632,13.10905457,93.447476,-5.465797,-15.352492,92.862323,8.78628,-7.22344
568,2292867149,-51.80312729,-84.77220154,62.63147736,9.549966812,-0.405777246,0.465640277,13.51332188,16.77070236,8.871294975,93.606642,-5.47256,-15.344731,93.087545,9.065792,-7.075585
569,2292883816,-50.152565,-84.55241394,61.15813446,9.885737419,-0.364105433,0.011433947,11.56285667,16.38524818,7.054092884,93.771404,-5.478628,-15.34454,93.280259,9.338879,-6.958017
570,2292900483,-48.43310928,-84.33663177,59.57195282,10.25142765,0.139405891,-0.240526408,8.992183685,17.12032127,5.788798809,93.942261,-5.476305,-15.348549,93.430129,9.624218,-6.861537
571,2292917150,-46.86284256,-84.11873627,58.05140305,10.05886841,0.364370316,-0.2159096,3.994535923,17.28952789,5.481764793,94.109909,-5.470232,-15.352147,93.496705,9.912377,-6.770174
572,2292933817,-45.36802292,-83.87910461,56.62758255,10.10497475,-0.084132478,-0.084070556,5.286251545,18.09894371,6.174513817,94.278325,-5.471634,-15.353548,93.584809,10.214026,-6.667265
573,2292950484,-43.6196022,-83.6313324,55.00457764,9.827376366,-0.698303342,0.225204781,8.661729813,19.72952271,4.877588272,94.442115,-5.483272,-15.349795,93.729171,10.542851,-6.585972
574,2292967151,-41.54388809,-83.38957214,53.05894089,9.542224884,-0.536230505,0.496587932,9.111721992,21.31182861,2.114217043,94.601152,-5.492209,-15.341519,93.881033,10.898048,-6.550735
575,2292983818,-39.26325607,-83.17203522,50.88040543,9.647041321,-0.275305003,0.957605898,7.582538128,21.55654335,-1.169266462,94.761936,-5.496797,-15.325559,94.007409,11.257324,-6.570223
576,2293000485,-37.09709549,-82.9839859,48.77722931,9.803971291,-0.111936778,0.612372756,5.2512393,19.95844841,-2.969368696,94.925336,-5.498663,-15.315353,94.09493,11.589965,-6.619712
577,2293017152,-34.96334076,-82.78781891,46.64346313,9.818819046,-0.092351988,0.40654093,1.538941383,20.53140259,-3.880400419,95.088983,-5.500202,-15.308577,94.120579,11.932155,-6.684385
578,2293033819,-32.93790436,-82.57455444,44.59189224,9.833995819,-0.002664997,0.480017692,-0.008855605,21.06200981,-3.833760023,95.252883,-5.500246,-15.300577,94.120431,12.283188,-6.748281
579,2293050486,-31.07165146,-82.33435822,42.68717957,9.750574112,0.257735521,0.614845574,-0.76532799,21.8604126,-3.055568457,95.415393,-5.49595,-15.29033,94.107676,12.647528,-6.799207
580,2293067153,-29.45993805,-82.08586884,41.03149414,9.835263252,0.362205654,0.895598471,-1.165821671,21.34578514,-2.073652506,95.579314,-5.489913,-15.275403,94.088246,13.003291,-6.833768
581,2293083820,-28.1046505,-81.84171295,39.62106705,9.783146858,0.2586402,0.968348384,-1.921960354,20.21663284,-1.260153055,95.742366,-5.485602,-15.259264,94.056213,13.340235,-6.854771
582,2293100487,-27.00615883,-81.61594391,38.45804977,9.649443626,-0.254205525,1.18208909,-2.590132236,18.32251549,-0.571682513,95.90319,-5.489839,-15.239563,94.013044,13.64561,-6.864299
583,2293117154,-26.04447365,-81.43519592,37.43169022,9.53453064,-0.285984844,1.277143836,-2.653753281,15.42369938,-1.210271597,96.062099,-5.494605,-15.218277,93.968815,13.902672,-6.88447
584,2293133821,-25.20263672,-81.29349518,36.52932358,9.467950821,-0.140734017,1.249060035,-2.464090347,12.8380785,-1.587751389,96.219898,-5.496951,-15.197459,93.927747,14.11664,-6.910933
585,2293150488,-24.51772118,-81.18347931,35.77554703,9.575987816,0.088726699,1.080835104,-3.051324844,10.53289223,-1.409691453,96.379498,-5.495472,-15.179445,93.876892,14.292188,-6.934428
586,2293167155,-23.95209503,-81.0802002,35.12466431,9.716383934,0.148918405,1.121205091,-4.095452785,9.767521858,-0.872849047,96.541438,-5.49299,-15.160758,93.808634,14.45498,-6.948975
587,2293183822,-23.51067924,-80.98062134,34.62232208,9.677225113,-0.029925004,1.13794136,-2.732446909,8.99887085,0.182272851,96.702725,-5.493489,-15.141792,93.763093,14.604961,-6.945937
588,2293200489,-23.14363289,-80.88180542,34.18714142,9.716609001,0.112786792,1.072241306,-3.206473827,8.711252213,0.653239191,96.864668,-5.491609,-15.123921,93.709652,14.750149,-6.93505
589,2293217156,-22.83709145,-80.79288483,33.79668808,9.684796333,0.099086717,1.158197999,-4.177592754,8.00088501,0.739233971,97.026081,-5.489958,-15.104618,93.640025,14.883497,-6.922729
590,2293233823,-22.52100182,-80.71526337,33.38651276,9.713898659,0.032671485,1.018682122,-4.770000935,7.44320488,0.238697588,97.187979,-5.489413,-15.08764,93.560525,15.00755,-6.918751
591,2293250490,-22.09766006,-80.63773346,32.91366577,9.731573105,-0.09892866,0.940922081,-2.035665512,7.668840885,-0.388807237,97.350172,-5.491062,-15.071958,93.526597,15.135364,-6.925231
592,2293267157,-21.65670395,-80.55375671,32.4291153,9.712311745,0.055078503,1.199496508,-1.665152431,8.066939354,-0.429275334,97.512044,-5.490144,-15.051966,93.498844,15.269813,-6.932386
593,2293283824,-21.29156876,-80.48093414,32.01686859,9.658034325,0.150957465,1.280284762,-1.927554727,7.176014423,-0.086846292,97.673011,-5.487628,-15.030628,93.466718,15.389413,-6.933833
594,2293300491,-21.01270485,-80.42735291,31.68928719,9.648939133,-0.005806445,1.258772612,-2.090194702,5.78012085,0.226723626,97.833827,-5.487725,-15.009648,93.431881,15.485748,-6.930054
595,2293317158,-20.77339554,-80.38994598,31.40848541,9.651973724,-0.037607118,1.372104883,-1.689855456,4.708587646,0.292561054,97.994693,-5.488352,-14.98678,93.403717,15.564224,-6.925178
596,2293333825,-20.59502602,-80.37004089,31.21464539,9.601136208,0.039834786,1.279322624,-0.20184727,3.407974482,0.718410552,98.154712,-5.487688,-14.965458,93.400353,15.621024,-6.913204
597,2293350492,-20.4966507,-80.35372162,31.11354065,9.578318596,0.057380479,1.219334722,0.485821605,2.865778923,1.50705111,98.314351,-5.486732,-14.945136,93.40845,15.668787,-6.888086
598,2293367159,-20.44273186,-80.33808136,31.05892944,9.661701202,0.125689223,1.197948337,0.573071361,2.663208485,1.93237555,98.475379,-5.484637,-14.92517,93.418001,15.713174,-6.85588
599,2293383826,-20.42859077,-80.32624817,31.04767418,9.719880104,0.073840328,1.218100309,0.750977099,2.295435429,2.26537919,98.637377,-5.483406,-14.904868,93.430517,15.751431,-6.818124
600,2293400493,-20.401474,-80.31651306,31.02361488,9.708200455,0.076713152,1.162742615,0.774143875,2.215947151,2.1011765,98.79918,-5.482127,-14.885489,93.443419,15.788363,-6.783104
601,2293417160,-20.37058449,-80.31269836,30.99904633,9.725405693,0.025254354,1.201414347,0.973141789,1.885389209,1.976749659,98.96127,-5.481706,-14.865465,93.459638,15.819786,-6.750158
602,2293433827,-20.29454422,-80.30854034,30.93757439,9.739802361,0.014200678,1.146006227,1.500097394,2.031778812,1.637560725,99.1236,-5.481469,-14.846365,93.48464,15.853649,-6.722865
603,2293450494,-20.19160271,-80.30239868,30.84627914,9.673913002,0.049721103,1.277084351,1.352030396,2.241738796,1.394329667,99.284832,-5.48064,-14.82508,93.507174,15.891011,-6.699626
604,2293467161,-20.0930233,-80.29907227,30.75119972,9.690475464,0.057442471,1.184578061,0.867809415,2.092288494,1.302546501,99.44634,-5.479683,-14.805337,93.521637,15.925882,-6.677917
605,2293483828,-19.9321022,-80.29037476,30.60547447,9.704471588,0.016877878,1.210390806,1.614714026,2.567147732,0.93172586,99.608081,-5.479402,-14.785164,93.548549,15.968668,-6.662388
606,2293500495,-19.7689476,-80.28163147,30.45249367,9.739677429,0.110440679,1.149924159,1.322921515,2.591928482,0.863429785,99.770409,-5.477561,-14.765999,93.570598,16.011867,-6.647998
607,2293517162,-19.60898209,-80.27249908,30.30103493,9.756592751,0.116603456,1.168427587,1.219010711,2.597908497,0.880999982,99.933019,-5.475618,-14.746525,93.590915,16.055165,-6.633315
608,2293533829,-19.45689011,-80.26363373,30.15540886,9.67932415,0.078178518,1.216487169,1.095211864,2.56517601,0.933518767,100.094341,-5.474315,-14.72625,93.609169,16.097918,-6.617756
609,2293550496,-19.29655075,-80.25521088,29.9998436,9.667390823,0.04534829,1.227791667,1.003838539,2.560488701,0.825215578,100.255464,-5.473559,-14.705787,93.6259,16.140593,-6.604002
610,2293567163,-19.13386536,-80.24692535,29.83249855,9.702314377,0.072005004,1.243177652,0.4505274,2.589994669,0.710022449,100.417169,-5.472359,-14.685067,93.633409,16.18376,-6.592168
611,2293583830,-18.97320557,-80.24024963,29.65759277,9.70144558,0.090041332,1.253273129,-0.119118258,2.51676774,0.603153467,100.57886,-5.470858,-14.664179,93.631424,16.225706,-6.582115
612,2293600497,-18.82307053,-80.23352051,29.49381638,9.709599495,0.070411965,1.222111344,-0.090483263,2.474455595,0.708805919,100.740687,-5.469684,-14.64381,93.629916,16.266947,-6.570302
613,2293617164,-18.66236496,-80.23377991,29.31536293,9.725466728,0.095016643,1.270199299,-0.323123425,2.120065928,0.432790607,100.902778,-5.4681,-14.62264,93.624531,16.302281,-6.563089
614,2293633831,-18.49268723,-80.23445129,29.12967873,9.683119774,0.105695188,1.275340438,-0.213424236,2.110742807,0.355273783,101.064163,-5.466338,-14.601384,93.620974,16.33746,-6.557168
615,2293650498,-18.30686951,-80.23392487,28.94145203,9.684257507,0.079122707,1.240101337,0.606854498,2.182112455,0.355209738,101.225567,-5.465019,-14.580716,93.631088,16.373829,-6.551248
616,2293667165,-18.13598633,-80.23167419,28.77255058,9.692138672,0.094966255,1.264463663,0.852710843,2.208544731,0.573032975,101.387103,-5.463436,-14.559642,93.6453,16.410638,-6.541697
617,2293683832,-17.97712898,-80.22931671,28.61629105,9.648633003,0.112821996,1.357964277,0.882011712,2.167257071,0.698355854,101.547914,-5.461556,-14.537009,93.66,16.446759,-6.530058
618,2293700499,-17.8633461,-80.23374939,28.49712944,9.666423798,0.149947256,1.335336089,0.368810028,1.654772401,0.930726945,101.709021,-5.459057,-14.514753,93.666147,16.474339,-6.514546
619,2293717166,-17.80127335,-80.24250793,28.41842651,9.691771507,0.150115237,1.303843856,-0.339797288,1.276985049,1.246800542,101.870551,-5.456555,-14.493022,93.660484,16.495622,-6.493766
620,2293733833,-17.76055527,-80.25476837,28.36636925,9.706789017,0.101756483,1.288296342,-0.046301361,0.991326809,1.445171118,102.032331,-5.454859,-14.47155,93.659712,16.512144,-6.46968
621,2293750500,-17.71925926,-80.26728821,28.32517052,9.68366909,0.1008012,1.276339531,0.63125056,0.941189826,1.548479676,102.193725,-5.453179,-14.450278,93.670233,16.52783,-6.443872
622,2293767167,-17.69404602,-80.280159,28.30405807,9.650094986,0.140281931,1.305335879,0.85419637,0.847844481,1.735106826,102.35456,-5.450841,-14.428522,93.68447,16.541961,-6.414954
623,2293783834,-17.7000351,-80.29716492,28.3138504,9.660581589,0.104539871,1.345198035,0.811115801,0.518337011,1.961753488,102.51557,-5.449099,-14.406102,93.697989,16.5506,-6.382258
624,2293800501,-17.72134399,-80.31434631,28.34047699,9.704593658,0.105767861,1.246133924,0.885520756,0.452230662,2.121231079,102.677313,-5.447336,-14.385333,93.712748,16.558137,-6.346904
625,2293817168,-17.72271347,-80.32984161,28.35351753,9.727633476,0.082421578,1.248221755,1.280225158,0.589194596,2.022443056,102.83944,-5.445962,-14.364529,93.734085,16.567957,-6.313197
626,2293833835,-17.70226669,-80.34370422,28.35557365,9.694436073,0.110827923,1.235515714,1.938676476,0.708844304,1.946475387,103.001014,-5.444115,-14.343937,93.766396,16.579771,-6.280756
627,2293850502,-17.68724632,-80.35256195,28.37014198,9.711101532,0.156398028,1.17133522,2.355190039,0.961142123,2.161365986,103.162866,-5.441508,-14.324415,93.805649,16.59579,-6.244733
628,2293867169,-17.66994667,-80.35569763,28.38927078,9.679364204,0.11372298,1.30970633,2.761254311,1.270428419,2.311110973,103.324189,-5.439613,-14.302587,93.85167,16.616964,-6.206214
629,2293883836,-17.68574905,-80.35588837,28.43827438,9.687947273,0.142500937,1.236392617,2.541599751,1.344282746,2.651644945,103.485655,-5.437238,-14.28198,93.89403,16.639369,-6.16202
630,2293900503,-17.72116852,-80.35707092,28.49324417,9.66460228,0.169242054,1.310649633,1.717779636,1.269365311,2.692893505,103.646732,-5.434417,-14.260136,93.92266,16.660525,-6.117138
631,2293917170,-17.76479721,-80.35586548,28.54859924,9.707165718,0.093793146,1.234262824,1.250552773,1.399260163,2.742658854,103.808518,-5.432854,-14.239565,93.943503,16.683846,-6.071427
632,2293933837,-17.7675705,-80.34942627,28.57393456,9.731297493,0.057338502,1.23435998,1.922860503,1.789892197,2.551985264,103.970706,-5.431898,-14.218992,93.975551,16.713678,-6.028894
633,2293950504,-17.74937057,-80.34036255,28.57550049,9.700713158,0.144434586,1.278112888,1.77630496,2.010149002,2.37313199,104.132385,-5.429491,-14.19769,94.005156,16.74718,-5.989342
634,2293967171,-17.71562195,-80.33020782,28.55264854,9.665654182,0.108296305,1.317742348,1.261873603,2.140248537,2.157601118,104.293479,-5.427686,-14.175728,94.026187,16.782851,-5.953382
635,2293983838,-17.6948719,-80.32083893,28.54112244,9.72851181,0.072980009,1.23083055,1.153519034,2.064498663,2.256286383,104.455621,-5.42647,-14.155214,94.045412,16.817259,-5.915777
636,2294000505,-17.65647125,-80.31111145,28.5124855,9.749725342,0.093356095,1.255728006,1.197726607,2.12814641,2.096220016,104.618116,-5.424914,-14.134285,94.065374,16.852728,-5.88084
637,2294017172,-17.60919571,-80.30621338,28.46796417,9.709407806,0.084569007,1.290845633,0.792290449,1.905572057,1.85811162,104.779939,-5.423505,-14.112771,94.078579,16.884488,-5.849871
638,2294033839,-17.54845047,-80.30841827,28.40340042,9.664048195,0.073769458,1.301908374,0.414503127,1.553333402,1.536288261,104.941006,-5.422276,-14.091073,94.085487,16.910377,-5.824266
639,2294050506,-17.45781517,-80.309021,28.31442833,9.711547852,0.02895507,1.29393208,0.75944221,1.711133361,1.328261733,105.102865,-5.421793,-14.069507,94.098144,16.938896,-5.802128
640,2294067173,-17.34679794,-80.30774689,28.21325874,9.668072701,0.113182396,1.342975736,1.263359189,1.860275865,1.248158097,105.264,-5.419907,-14.047124,94.1192,16.969901,-5.781325
641,2294083840,-17.24075317,-80.31221008,28.11508179,9.702415466,0.115118548,1.320144773,1.139534831,1.5140692,1.173663497,105.425707,-5.417988,-14.025122,94.138192,16.995135,-5.761764
642,2294100507,-17.14260101,-80.31838989,28.02741623,9.687969208,0.089765184,1.304451108,1.286269903,1.384251356,1.247902036,105.587173,-5.416492,-14.003381,94.15963,17.018206,-5.740966
643,2294117174,-17.05723572,-80.32880402,27.94339943,9.680615425,0.117940724,1.365217924,0.732817709,1.125101805,1.209290743,105.748517,-5.414526,-13.980627,94.171844,17.036958,-5.720811
644,2294133841,-16.99172974,-80.34085083,27.88072205,9.635739326,0.126102582,1.338178873,0.802343428,0.956493378,1.385109067,105.909113,-5.412424,-13.958324,94.185216,17.0529,-5.697726
645,2294150508,-16.92469788,-80.35402679,27.82346725,9.678956032,0.089571543,1.329221606,1.214041948,0.878489912,1.423361659,106.070429,-5.410931,-13.93617,94.20545,17.067541,-5.674003
646,2294167175,-16.85825348,-80.36728668,27.76066971,9.681833267,0.171138465,1.343592644,0.84945786,0.882818401,1.369152188,106.231793,-5.408079,-13.913777,94.219608,17.082255,-5.651184
647,2294183842,-16.82777214,-80.38679504,27.72677612,9.675532341,0.114390828,1.326061368,0.399570912,0.437708199,1.541500449,106.393052,-5.406172,-13.891676,94.226268,17.08955,-5.625492
