PacketCounter,SampleTimeFine,Euler_X,Euler_Y,Euler_Z,Acc_X,Acc_Y,Acc_Z,Gyr_X,Gyr_Y,Gyr_Z,Velo_X,Velo_Y,Velo_Z,ANG_X,ANG_Y,ANG_Z
0,2283364588,83.78012085,-6.36088562,108.0187531,0.0,0.0,0.0,0.0,0.0,0.0,0.0,0.0,0.0,0.0,0.0,0.0
1,2283381255,84.89263153,-6.738101959,108.0794907,1.420337081,9.649003029,0.358813524,11.55592346,0.307653457,2.381207228,0.023672,0.160817,0.00598,0.192599,0.005128,0.039687
2,2283397922,85.88182068,-7.151210308,108.2652969,1.523165822,9.330459595,0.463885844,11.09445381,1.666670442,2.601355076,0.049058,0.316325,0.013711,0.377507,0.032906,0.083043
3,2283414589,86.56337738,-7.554811001,108.4225235,1.628382087,9.1975317,0.56931442,12.18988323,2.046609402,2.583951473,0.076198,0.469617,0.0232,0.580672,0.067016,0.126109
4,2283431256,87.02121735,-7.918896675,108.5873566,1.77557826,9.281567574,0.639854074,13.78535938,1.668790102,1.816857219,0.105791,0.62431,0.033864,0.810428,0.094829,0.15639
5,2283447923,87.35612488,-8.247449875,108.7723999,1.808837652,9.499568939,0.603760064,15.36946297,1.245290399,0.981172144,0.135938,0.782636,0.043927,1.066586,0.115584,0.172743
6,2283464590,87.64050293,-8.525343895,108.9456863,1.822346568,9.72527504,0.558991671,16.27379036,0.612457752,0.566470146,0.16631,0.944724,0.053244,1.337816,0.125792,0.182184
7,2283481257,87.9179306,-8.76184845,109.1016388,1.884887457,10.02101517,0.484536678,17.51620293,0.201719418,0.878228307,0.197725,1.111741,0.06132,1.629753,0.129154,0.196821
8,2283497924,88.1696167,-8.967544556,109.254776,1.915779591,10.206707,0.545201182,16.48949051,0.527538836,1.23165822,0.229655,1.281853,0.070407,1.904578,0.137946,0.217349
9,2283514591,88.35272217,-9.151959419,109.38974,1.871194482,10.27721977,0.670978963,13.23964691,0.77264595,1.758837938,0.260842,1.45314,0.08159,2.125239,0.150823,0.246663
10,2283531258,88.46932983,-9.313815117,109.4890289,1.800105691,10.06841564,0.817712307,10.40783882,0.465690315,2.149661779,0.290844,1.620947,0.095219,2.298703,0.158585,0.282491
11,2283547925,88.53813934,-9.451164246,109.5695343,1.786151171,9.738731384,0.868175328,8.768868446,-0.378773451,2.171201944,0.320613,1.783259,0.109689,2.444851,0.152272,0.318678
12,2283564592,88.60055542,-9.574276924,109.6322861,1.885807276,9.417821884,0.914741099,9.228219986,-1.162989736,2.309254646,0.352043,1.940223,0.124935,2.598655,0.132889,0.357166
13,2283581259,88.67690277,-9.684902191,109.6730957,1.964010119,9.204730988,0.941997707,10.63220787,-1.909811854,1.886837244,0.384777,2.093635,0.140635,2.775858,0.101059,0.388613
14,2283597926,88.76790619,-9.782329559,109.7216492,2.008994579,9.121564865,0.956779778,11.92574024,-2.077812195,1.158783078,0.41826,2.245661,0.156581,2.97462,0.066429,0.407926
15,2283614593,88.86981964,-9.865535736,109.7551041,2.02349329,9.127951622,0.908661842,12.7702055,-2.471787214,0.322515309,0.451985,2.397794,0.171725,3.187457,0.025233,0.413301
16,2283631260,88.96615601,-9.935622215,109.779892,1.971028328,9.226530075,0.851972163,12.40497971,-2.695373058,-0.382212102,0.484835,2.55157,0.185925,3.394207,-0.01969,0.406931
17,2283647927,89.03981781,-9.985291481,109.7633286,1.975718617,9.2983284,0.84948802,10.77375793,-3.307414532,-1.361411691,0.517764,2.706542,0.200083,3.57377,-0.074814,0.384241
18,2283664594,89.07832336,-10.01734829,109.746109,1.912949443,9.369545937,0.813418984,8.366826057,-3.975316048,-2.168659687,0.549646,2.862701,0.21364,3.713217,-0.141069,0.348097
19,2283681261,89.08520508,-10.02966404,109.7068787,1.951493382,9.487163544,0.726137638,6.127865314,-4.550168037,-3.022421122,0.582171,3.02082,0.225742,3.815348,-0.216905,0.297723
20,2283697928,89.06298828,-10.02290726,109.6733856,1.93830812,9.537905693,0.654873371,3.985611677,-4.820835114,-3.905591488,0.614476,3.179785,0.236657,3.881775,-0.297252,0.23263
21,2283714595,89.03762817,-9.997605324,109.6275711,1.94709754,9.530781746,0.620602548,3.37506938,-4.956954479,-4.770225525,0.646928,3.338631,0.247,3.938026,-0.379868,0.153126
22,2283731262,89.01594543,-9.956251144,109.575798,1.931273818,9.552895546,0.528084695,3.217916012,-4.906145096,-5.531402588,0.679116,3.497846,0.255801,3.991658,-0.461637,0.060936
23,2283747929,88.97663116,-9.895321846,109.5138931,1.942418814,9.495734215,0.516171157,1.724022865,-4.953445435,-6.52158308,0.71149,3.656108,0.264404,4.020392,-0.544194,-0.047757
24,2283764596,88.91173553,-9.818201065,109.4764557,1.932380795,9.41397953,0.528942287,-0.145813107,-4.720318317,-7.355301857,0.743696,3.813008,0.27322,4.017962,-0.622866,-0.170345
25,2283781263,88.84870911,-9.732433319,109.4200439,1.912116408,9.396198273,0.569387734,-0.345720321,-4.683706284,-7.766656876,0.775565,3.969611,0.28271,4.0122,-0.700928,-0.299789
26,2283797930,88.78991699,-9.632363319,109.3565521,1.984913588,9.310753822,0.616621852,-0.335071862,-4.629707813,-8.525580406,0.808647,4.12479,0.292987,4.006615,-0.77809,-0.441882
27,2283814597,88.7386322,-9.520700455,109.3039246,1.979259133,9.309225082,0.673673868,-0.049618222,-4.468553066,-9.197081566,0.841635,4.279944,0.304215,4.005788,-0.852566,-0.595167
28,2283831264,88.68656158,-9.397435188,109.2474365,1.938293576,9.390835762,0.682478189,-0.208647534,-4.292440891,-9.870671272,0.87394,4.436458,0.31559,4.002311,-0.924107,-0.759678
29,2283847931,88.6188736,-9.256192207,109.1744385,1.861458898,9.453684807,0.774417579,-1.285841346,-4.349173069,-10.90716743,0.904964,4.594019,0.328497,3.98088,-0.996593,-0.941464
30,2283864598,88.52987671,-9.096434593,109.096405,1.743018508,9.55472374,0.843338072,-2.722862244,-4.877429008,-11.95664215,0.934014,4.753264,0.342553,3.935499,-1.077883,-1.140741
31,2283881265,88.42727661,-8.930167198,109.0008011,1.574289203,9.804095268,0.844829857,-3.737484694,-5.875032425,-12.25325298,0.960252,4.916666,0.356633,3.873208,-1.1758,-1.344962
32,2283897932,88.30725861,-8.753798485,108.8834457,1.445840716,9.924575806,0.839088082,-5.026022434,-7.112921715,-12.7053442,0.984349,5.082076,0.370618,3.789441,-1.294349,-1.556718
33,2283914599,88.20503998,-8.551016808,108.7385559,1.405425787,10.12784195,0.734087467,-4.254875183,-8.661660194,-14.12759495,1.007773,5.250873,0.382853,3.718526,-1.43871,-1.792178
34,2283931266,88.13774109,-8.292135239,108.5591431,1.353699923,10.78009987,0.594176829,-2.552379608,-10.56180286,-17.36099625,1.030335,5.430541,0.392756,3.675986,-1.61474,-2.081528
35,2283947933,88.07867432,-7.9543643,108.3447647,1.025690198,11.54680634,0.403234243,-2.480793715,-12.43446159,-21.94938087,1.04743,5.622988,0.399477,3.634639,-1.821981,-2.447351
36,2283964600,88.06058502,-7.542952061,108.0985641,0.627790093,11.89079666,0.131939545,-0.444637835,-14.1356163,-26.10094452,1.057893,5.821168,0.401676,3.627228,-2.057575,-2.882367
37,2283981267,88.09899902,-7.07779789,107.8417816,0.38268736,12.01225853,0.022911727,2.656533241,-14.62786293,-28.91957474,1.064271,6.021372,0.402058,3.671504,-2.301373,-3.36436
38,2283997934,88.17317963,-6.595601082,107.5960312,0.2129547,11.75708389,0.057278179,4.691483021,-13.93709469,-29.48097801,1.06782,6.217323,0.403013,3.749695,-2.533658,-3.85571
39,2284014601,88.26422882,-6.129384041,107.3832169,0.161976352,11.30206394,0.145525679,5.783367157,-12.02819252,-28.05855751,1.07052,6.405691,0.405438,3.846084,-2.734128,-4.323353
40,2284031268,88.33176422,-5.711278439,107.2235794,0.181903854,11.06987095,0.296825558,4.606333733,-8.968437195,-24.75568199,1.073552,6.590189,0.410385,3.922856,-2.883602,-4.735948
41,2284047935,88.3108139,-5.368870735,107.1244049,0.153220817,10.94014168,0.505683482,-0.409163475,-5.492869377,-19.87656021,1.076106,6.772525,0.418813,3.916037,-2.97515,-5.067224
42,2284064602,88.1603775,-5.127205849,107.0693665,-0.094358541,10.77593899,0.763446748,-7.954900265,-3.011966228,-13.57425499,1.074533,6.952124,0.431537,3.783455,-3.025349,-5.293462
43,2284081269,87.91359711,-5.00488615,107.0136719,-0.433374882,10.34636402,0.844282031,-13.70626259,-3.255888939,-6.217103481,1.06731,7.124563,0.445608,3.555017,-3.079614,-5.39708
44,2284097936,87.63752747,-4.986766815,106.921402,-0.570918024,9.881894112,0.653399944,-15.61773968,-5.666827202,0.185263216,1.057795,7.289261,0.456498,3.294721,-3.174061,-5.393992
45,2284114603,87.36354065,-5.031797886,106.7804947,-0.70786649,9.512184143,0.379584283,-15.77133179,-8.744339943,4.061878204,1.045997,7.447797,0.462824,3.031865,-3.3198,-5.326294
46,2284131270,87.11667633,-5.111596584,106.5948105,-0.892304599,9.210928917,0.099433661,-14.48359203,-11.54057312,6.21888113,1.031125,7.601312,0.464481,2.790472,-3.512143,-5.222646
47,2284147937,86.90286255,-5.205699921,106.3803864,-1.015466332,9.124440193,0.06519641,-12.82371998,-13.32603741,7.192894459,1.014201,7.753386,0.465568,2.576743,-3.734244,-5.102764
48,2284164604,86.7169342,-5.296294689,106.1513901,-1.142608047,9.129317284,0.158960223,-11.39793587,-14.20955944,7.141848087,0.995158,7.905541,0.468217,2.386777,-3.97107,-4.983733
49,2284181271,86.56981659,-5.371937275,105.9181213,-1.140863419,9.078497887,0.315859467,-9.234272957,-14.43513012,6.448370457,0.976144,8.056849,0.473481,2.232872,-4.211656,-4.87626
50,2284197938,86.49850464,-5.422825336,105.6847305,-1.122848868,9.05988884,0.309873968,-4.782484531,-14.37069607,5.171675205,0.95743,8.207847,0.478646,2.153164,-4.451168,-4.790065
51,2284214605,86.50559235,-5.450977325,105.4547043,-1.038618803,9.335329056,0.450374216,-0.146261439,-14.09293747,4.024392128,0.94012,8.363436,0.486152,2.150726,-4.68605,-4.722992
52,2284231272,86.56629944,-5.479693413,105.2342529,-1.04156971,9.596058846,0.683947802,3.071381092,-13.52865124,4.281671524,0.922761,8.52337,0.497551,2.201916,-4.911528,-4.651631
53,2284247939,86.66586304,-5.542459488,105.0110168,-0.993575275,9.467423439,0.913587272,5.373466492,-13.81706619,6.498863697,0.906201,8.68116,0.512777,2.291474,-5.141812,-4.543317
54,2284264606,86.80783844,-5.645647526,104.7846909,-0.713526368,9.082728386,1.031871557,7.92435503,-14.13703632,9.08407402,0.894309,8.832539,0.529975,2.423547,-5.377429,-4.391916
55,2284281273,87.00283051,-5.776221275,104.5508575,-0.482791692,8.780617714,1.092194796,11.0988512,-14.65499401,10.82300091,0.886262,8.978883,0.548178,2.608528,-5.621679,-4.211533
56,2284297940,87.25382996,-5.906519413,104.3093491,-0.264133155,8.55240345,1.054898977,14.45969677,-15.079072,10.87488556,0.88186,9.121423,0.56576,2.849523,-5.872997,-4.030285
57,2284314607,87.57309723,-6.024758816,104.0656204,-0.121731795,8.292172432,0.760902286,18.58621216,-15.13035297,10.21603966,0.879831,9.259626,0.578442,3.159293,-6.12517,-3.860018
58,2284331274,87.98010254,-6.103657246,103.8059235,0.132551119,8.576154709,0.86266917,23.75621414,-15.92603588,7.88888216,0.88204,9.402562,0.59282,3.55523,-6.390604,-3.728537
59,2284347941,88.4458313,-6.149778366,103.5583038,-0.195570171,8.63727951,0.553824902,27.39384651,-15.08721352,6.008562088,0.87878,9.546517,0.60205,4.011794,-6.642058,-3.628394
60,2284364608,88.8891449,-6.167936802,103.318634,-0.126020595,9.025806427,0.499808073,26.10162354,-14.53112984,4.458935738,0.87668,9.696947,0.61038,4.446821,-6.884243,-3.554078
61,2284381275,89.28941345,-6.156588078,103.0999146,-0.133023232,8.923594475,0.58035183,23.66526413,-13.22112942,2.81064868,0.874463,9.845674,0.620053,4.841242,-7.104595,-3.507234
62,2284397942,89.68152618,-6.131242275,102.8965988,-0.164334252,9.15391922,0.765645444,23.31021881,-12.28120327,2.06517601,0.871724,9.998239,0.632814,5.229746,-7.309282,-3.472814
63,2284414609,90.03914642,-6.097165108,102.7041473,-0.038015749,9.13686657,1.034983277,21.37680626,-11.62563992,1.628413796,0.87109,10.15052,0.650064,5.586026,-7.503043,-3.445674
64,2284431276,90.40407562,-6.069667816,102.5104752,0.012248933,9.104005814,1.187876701,21.91340828,-11.69935513,2.08274579,0.871294,10.302253,0.669862,5.951249,-7.698032,-3.410962
65,2284447943,90.82038116,-6.06876564,102.3089142,0.290761739,9.089355469,1.191270232,25.07306671,-12.15525723,3.744247913,0.87614,10.453742,0.689717,6.369133,-7.90062,-3.348558
66,2284464610,91.26567841,-6.091957092,102.1160431,0.419273168,9.032084465,1.084828854,26.98567009,-11.60001469,5.219160557,0.883128,10.604277,0.707797,6.818894,-8.093954,-3.261572
67,2284481277,91.75527954,-6.137571335,101.9384155,0.576393127,8.995698929,1.046869874,29.84658241,-10.62883472,6.57003355,0.892735,10.754205,0.725245,7.316337,-8.271101,-3.152071
68,2284497944,92.2582016,-6.203881264,101.786026,0.734361589,8.947891235,0.828910172,30.90620041,-9.041459084,7.770750046,0.904974,10.903337,0.73906,7.83144,-8.421792,-3.022558
69,2284514611,92.85243225,-6.304551601,101.6434097,0.931546867,8.939217567,0.819090843,36.51730728,-8.311286926,9.7993927,0.9205,11.052324,0.752712,8.440062,-8.560313,-2.859235
70,2284531278,93.43948364,-6.410592556,101.5320129,0.985272348,9.263307571,0.678434372,36.36693192,-6.357693195,9.998511314,0.936921,11.206712,0.764019,9.046178,-8.666275,-2.692593
71,2284547945,94.06437683,-6.521134853,101.4483032,1.058781981,8.965807915,0.423164099,38.88865662,-4.607340813,10.12929821,0.954567,11.356142,0.771072,9.694322,-8.743064,-2.523771
72,2284564612,94.76254272,-6.627229214,101.3890152,0.98635298,9.080973625,0.287845463,43.49938965,-3.081684113,9.701953888,0.971006,11.507492,0.775869,10.419312,-8.794425,-2.362072
73,2284581279,95.60401917,-6.740546703,101.3479843,1.006439447,9.322429657,0.092214175,52.26356125,-1.851086736,9.993988991,0.98778,11.662866,0.777406,11.290371,-8.825276,-2.195506
74,2284597946,96.4960022,-6.865469933,101.3297348,0.92938596,9.993445396,-0.060117245,55.49170685,-0.302079618,10.49608135,1.00327,11.829423,0.776404,12.215233,-8.830311,-2.020571
75,2284614613,97.28180695,-7.000140667,101.3324356,0.823242843,10.52974415,0.096788771,49.31253815,1.137617588,10.88101959,1.016991,12.004919,0.778017,13.037109,-8.811351,-1.839221
76,2284631280,97.92972565,-7.150357723,101.3491898,0.656726122,10.77591896,0.237546057,41.22278595,2.19971633,11.65555096,1.027936,12.184518,0.781976,13.724155,-8.774689,-1.644962
77,2284647947,98.47803497,-7.313831329,101.36689,0.619009852,10.6914835,0.228238702,35.36415482,2.464332342,12.41127872,1.038253,12.362709,0.78578,14.313558,-8.733617,-1.438107
78,2284664614,98.98312378,-7.496448517,101.3827744,0.917256474,10.70143795,0.210347295,32.87095261,2.617776871,13.54991436,1.053541,12.541066,0.789286,14.861407,-8.689987,-1.212275
79,2284681281,99.49588776,-7.65491581,101.4074478,1.288097024,10.69387341,-0.076727323,33.52161407,2.989111423,11.99492264,1.075009,12.719297,0.788007,15.420101,-8.640168,-1.01236
80,2284697948,99.95851135,-7.710213184,101.4569321,1.497209549,11.59185123,-0.569081485,30.80703163,3.464026451,5.573431969,1.099962,12.912495,0.778522,15.933552,-8.582434,-0.919469
81,2284714615,100.3293381,-7.659620285,101.5454865,1.305578709,12.27549171,-1.412766457,25.67927551,4.648472786,-1.163773417,1.121722,13.117087,0.754976,16.36154,-8.504959,-0.938865
82,2284731282,100.5492477,-7.507894993,101.6915054,0.926643431,13.06217766,-2.017236233,17.07480812,6.900416374,-7.793717861,1.137166,13.33479,0.721355,16.64612,-8.389952,-1.06876
83,2284747949,100.4782791,-7.26864624,101.898201,0.289727598,12.63329411,-2.157420158,0.027040634,9.496730804,-13.59686089,1.141995,13.545345,0.685398,16.646571,-8.231673,-1.295374
84,2284764616,100.1127167,-6.982474327,102.1463547,-0.085642852,11.97720051,-2.263520718,-17.44721031,11.51152134,-16.69546127,1.140568,13.744965,0.647673,16.355784,-8.039814,-1.573632
85,2284781283,99.474617,-6.718875885,102.4382858,-0.449181139,11.57708645,-2.220246315,-33.63310623,14.50268936,-15.60621262,1.133082,13.937916,0.610669,15.795232,-7.798103,-1.833736
86,2284797950,98.76611328,-6.529707909,102.7543488,-0.541153491,9.97717762,-2.127333164,-37.8459816,16.85870361,-11.13416958,1.124063,14.104202,0.575213,15.164466,-7.517125,-2.019305
87,2284814617,98.16976929,-6.421800613,103.0625992,-0.279901236,8.687376022,-1.654946446,-31.32978821,17.28107643,-5.946374893,1.119398,14.248992,0.547631,14.642303,-7.229107,-2.118411
88,2284831284,97.71884918,-6.359966755,103.35495,0.275260359,7.668683529,-1.564304113,-22.83021736,16.80474091,-2.855235338,1.123986,14.376803,0.521559,14.261799,-6.949028,-2.165998
89,2284847951,97.46588898,-6.301374435,103.6450729,0.709236264,7.436418056,-2.133858442,-11.08391762,16.73259354,-2.539201498,1.135807,14.500743,0.485995,14.077067,-6.670151,-2.208318
90,2284864618,97.29319,-6.208170891,103.9705734,0.913114429,8.403268814,-2.679503202,-6.212145329,18.58128548,-4.844770432,1.151026,14.640797,0.441337,13.973531,-6.360463,-2.289064
91,2284881285,96.98861694,-6.067279339,104.3432693,0.874646664,9.589963913,-2.753432512,-14.04522419,21.06407547,-8.001637459,1.165603,14.80063,0.395446,13.739444,-6.009395,-2.422425
92,2284897952,96.43900299,-5.894015789,104.7488174,0.606885314,10.07882118,-2.736424208,-28.77879333,22.87131882,-10.03344631,1.175718,14.96861,0.349839,13.259797,-5.628206,-2.589649
93,2284914619,95.74795532,-5.690993309,105.1441727,0.437763602,9.530656815,-2.701845884,-37.57749939,22.21697235,-11.50024128,1.183014,15.127454,0.304808,12.633505,-5.257923,-2.78132
94,2284931286,95.01416016,-5.440801144,105.5279007,0.348343462,9.143521309,-2.717603207,-40.47906876,21.44006729,-13.97570229,1.18882,15.279846,0.259515,11.958854,-4.900589,-3.014248
95,2284947953,94.25891113,-5.154494762,105.9239273,0.288069516,9.098459244,-2.84569788,-41.99382019,22.2142868,-15.91091347,1.193621,15.431487,0.212087,11.258957,-4.530351,-3.27943
96,2284964620,93.52881622,-4.893671989,106.3475189,0.285078883,9.5167799,-3.161992788,-40.65349197,24.20937729,-14.20635986,1.198372,15.5901,0.159387,10.581399,-4.126861,-3.516203
97,2284981287,92.86018372,-4.682003498,106.8261414,0.254157543,8.894239426,-3.087042093,-37.02724457,27.86543465,-11.14517307,1.202608,15.738337,0.107936,9.964278,-3.662437,-3.701956
98,2284997954,92.35713959,-4.519437313,107.3478317,0.478617013,8.462461472,-2.845392227,-27.20940971,30.72218132,-8.038377762,1.210585,15.879378,0.060513,9.510788,-3.150401,-3.835929
99,2285014621,91.9777298,-4.388408661,107.9197617,0.344284773,8.589004517,-2.38005805,-19.86020088,33.88568497,-6.050412178,1.216323,16.022528,0.020845,9.179785,-2.58564,-3.936769
100,2285031288,91.59687805,-4.269381046,108.5438309,0.307540178,8.758652687,-2.022051573,-19.96600151,37.09170151,-5.222622871,1.221449,16.168506,-0.012856,8.847018,-1.967445,-4.023813
101,2285047955,91.19834137,-4.144113541,109.2128143,0.596148491,8.341459274,-1.987727404,-21.0677681,39.82500076,-5.42514801,1.231385,16.30753,-0.045985,8.495889,-1.303695,-4.114232
102,2285064622,90.86942291,-4.006033897,109.8901443,0.587232888,8.391046524,-1.639737964,-17.10242844,40.36759186,-5.992394924,1.241172,16.447381,-0.073314,8.210849,-0.630902,-4.214105
103,2285081289,90.58706665,-3.858802557,110.5292358,0.540882528,8.762983322,-1.188284516,-14.69594479,38.12364578,-6.339892864,1.250187,16.593431,-0.093119,7.965917,0.004492,-4.31977
104,2285097956,90.38774109,-3.708370686,111.1083374,0.368045032,9.000260353,-1.129311562,-10.1412878,34.572258,-6.378508091,1.256321,16.743435,-0.111941,7.796896,0.580696,-4.426078
105,2285114623,90.30587769,-3.552687168,111.6211853,0.41705066,9.257208824,-1.145651698,-3.525376081,30.63257599,-6.607388973,1.263272,16.897722,-0.131035,7.73814,1.091239,-4.536201
106,2285131290,90.3164444,-3.390234947,112.0750732,0.411888659,9.485804558,-0.952794492,1.636540771,27.1142807,-7.001808167,1.270137,17.055819,-0.146915,7.765416,1.543144,-4.652898
107,2285147957,90.35044861,-3.209319353,112.4699707,0.433697462,9.681825638,-0.800933063,2.690888882,23.57976723,-8.12356472,1.277365,17.217183,-0.160264,7.810264,1.93614,-4.788291
108,2285164624,90.33953857,-3.012454271,112.8129349,0.288363636,9.80939579,-0.663330793,-0.299649864,20.465168,-9.092120171,1.282171,17.380673,-0.17132,7.80527,2.277226,-4.939826
109,2285181291,90.27153015,-2.807542324,113.1017838,0.163307905,9.808116913,-0.508268774,-3.999678135,17.23122406,-9.557768822,1.284893,17.544142,-0.179791,7.738609,2.564413,-5.099122
110,2285197958,90.24007416,-2.599384308,113.3479233,0.167306796,9.509634972,-0.417690307,-2.015830755,14.68097305,-9.732727051,1.287681,17.702636,-0.186753,7.705012,2.809096,-5.261334
111,2285214625,90.30860138,-2.388792515,113.5561066,0.026226215,9.489413261,-0.165382177,3.814925909,12.40186024,-9.880319595,1.288118,17.860793,-0.189509,7.768594,3.015794,-5.426006
112,2285231292,90.43425751,-2.172213316,113.7351608,0.111446582,9.440467834,-0.081498332,7.129801273,10.63604164,-10.24864388,1.289975,18.018134,-0.190867,7.887424,3.193061,-5.596817
113,2285247959,90.52092743,-1.915128469,113.9059601,0.299580008,9.191848755,-0.013832824,4.739135265,10.09814835,-12.70259857,1.294968,18.171331,-0.191098,7.96641,3.361363,-5.808527
114,2285264626,90.52585602,-1.639334202,114.0823593,0.185909286,9.346664429,0.104821436,-0.18391858,10.41015148,-13.86087036,1.298066,18.327109,-0.189351,7.963345,3.534866,-6.039542
115,2285281293,90.44464874,-1.344106436,114.2583466,0.27415055,9.153516769,0.184682876,-5.380190849,10.38187695,-15.03640938,1.302635,18.479668,-0.186273,7.873675,3.707897,-6.290149
116,2285297960,90.33556366,-1.016718507,114.4259338,0.275995314,8.95259285,0.267755002,-7.090470791,9.887593269,-16.97300339,1.307235,18.628878,-0.18181,7.7555,3.87269,-6.573032
117,2285314627,90.22756195,-0.640604854,114.5691528,0.127533257,8.904326439,0.359519422,-7.072696686,8.440974236,-19.89925194,1.309361,18.777283,-0.175818,7.637622,4.013373,-6.904686
118,2285331294,90.1291275,-0.20963265,114.6735382,0.022392616,9.154385567,0.303104132,-6.537239552,6.132820606,-23.1916008,1.309734,18.929856,-0.170766,7.528668,4.115587,-7.291213
119,2285347961,90.05851746,0.26011157,114.732605,-0.138401255,9.574216843,0.195385009,-4.877245903,3.441388607,-25.52073479,1.307427,19.089426,-0.16751,7.447381,4.172943,-7.716559
120,2285364628,90.01107788,0.750350118,114.7520828,-0.233573303,9.915458679,0.070570901,-3.469837427,1.085462451,-26.75575638,1.303534,19.254684,-0.166334,7.38955,4.191034,-8.162488
121,2285381295,89.95950317,1.248869181,114.7292709,-0.234572008,10.18441391,0.080048539,-3.664399624,-1.434218884,-27.26037979,1.299624,19.424424,-0.165,7.328477,4.16713,-8.616828
122,2285397962,89.90489197,1.755629897,114.6497955,-0.360987812,10.19612694,0.177172512,-3.72320652,-4.810340881,-27.77281761,1.293608,19.594359,-0.162047,7.266424,4.086958,-9.079708
123,2285414629,89.87789917,2.307586908,114.4897461,-0.443108767,10.54483604,0.129748031,-1.823841691,-9.620541573,-30.50719452,1.286223,19.770106,-0.159885,7.236027,3.926616,-9.588161
124,2285431296,89.92247772,2.960388899,114.2476807,-0.774347901,11.1422863,-0.085302509,2.82149744,-14.53043842,-36.57432175,1.273317,19.955811,-0.161307,7.283052,3.684442,-10.197733
125,2285447963,90.03145599,3.713444948,113.9412003,-1.322000623,11.82916832,-0.308340371,7.102175713,-18.43576241,-42.56642914,1.251284,20.152964,-0.166446,7.401422,3.377179,-10.907173
126,2285464630,90.17663574,4.562266827,113.605484,-1.790452242,11.85811996,-0.592193961,9.656853676,-20.28358459,-48.23692322,1.221443,20.350599,-0.176316,7.56237,3.039119,-11.711122
127,2285481297,90.33641815,5.471725464,113.273056,-2.204725981,11.6123848,-0.719675004,10.80757332,-20.22181129,-51.77027512,1.184698,20.544139,-0.188311,7.742496,2.702089,-12.57396
128,2285497964,90.49202728,6.3675313,112.9803848,-2.441219568,11.4280262,-0.67706722,10.60013771,-17.96860886,-50.84319687,1.144011,20.734606,-0.199595,7.919165,2.402612,-13.421347
129,2285514631,90.60064697,7.157596588,112.7641602,-2.450549841,11.34377575,-0.412137061,7.477539063,-13.45797825,-44.43029785,1.103169,20.923669,-0.206464,8.043791,2.178312,-14.161852
130,2285531298,90.59835815,7.781472206,112.6490555,-2.230300903,10.97421074,-0.107825972,0.192755625,-7.367102623,-34.45144653,1.065997,21.106573,-0.208261,8.047004,2.055527,-14.736043
131,2285547965,90.4227066,8.252333641,112.6329498,-1.997083783,10.10684586,0.259954125,-10.95976639,-1.342992544,-25.30004692,1.032712,21.27502,-0.203928,7.864341,2.033144,-15.15771
132,2285564632,90.10778809,8.628222466,112.6842728,-2.094811201,9.481313705,0.4449507,-19.86422729,2.800160885,-19.60605049,0.997798,21.433042,-0.196512,7.533271,2.079813,-15.484478
133,2285581299,89.72732544,8.968873978,112.772522,-2.420644522,9.183823586,0.556805134,-24.11420631,5.113316536,-17.44613457,0.957454,21.586106,-0.187232,7.131368,2.165035,-15.775247
134,2285597966,89.36760712,9.313869476,112.8580322,-2.801587105,9.331391335,0.599239826,-22.83051491,5.069959164,-17.6291275,0.910761,21.741629,-0.177245,6.750859,2.249534,-16.069066
135,2285614633,89.0747757,9.671717644,112.9307404,-3.25468874,9.555066109,0.526770234,-18.67845154,4.428849697,-18.31601906,0.856516,21.90088,-0.168465,6.439551,2.323348,-16.374333
136,2285631300,88.88254547,10.02979183,112.9818344,-3.688236237,9.759699821,0.564741135,-12.41413784,3.232654572,-18.24545288,0.795045,22.063542,-0.159053,6.232649,2.377226,-16.678424
137,2285647967,88.78925323,10.38375759,113.0406952,-3.51230526,9.360581398,0.206032068,-6.543642998,3.731717825,-17.87360382,0.736507,22.219552,-0.155619,6.123588,2.439421,-16.976317
138,2285664634,88.82479095,10.73701096,113.1492996,-3.202717543,8.837589264,-0.147284716,0.625879109,6.669062138,-17.67073631,0.683128,22.366845,-0.158074,6.134019,2.550572,-17.270829
139,2285681301,88.89310455,11.08623219,113.3634109,-2.854739428,8.622062683,-0.336881876,1.337017179,12.84898376,-17.23435211,0.635549,22.510546,-0.163689,6.156303,2.764722,-17.558068
140,2285697968,88.9379425,11.42607021,113.7194519,-2.505594969,8.505473137,-0.395553648,-1.845156193,21.14691544,-16.47377014,0.593789,22.652304,-0.170282,6.12555,3.117171,-17.832631
141,2285714635,88.966362,11.76623535,114.231102,-2.338828564,8.573566437,-0.278263509,-4.871479511,30.24594307,-16.31684494,0.554809,22.795197,-0.17492,6.044359,3.62127,-18.104578
142,2285731302,88.97908783,12.11494637,114.8853149,-2.33290863,8.83827877,-0.070945859,-7.803906918,38.56916428,-16.68304062,0.515927,22.942502,-0.176102,5.914294,4.264089,-18.382629
143,2285747969,88.98589325,12.47187996,115.6644897,-2.409949541,8.968324661,0.167889148,-10.02378464,45.8388176,-17.0544548,0.475761,23.091974,-0.173304,5.747231,5.028069,-18.66687
144,2285764636,89.0136795,12.82398891,116.5441589,-2.522498369,8.928809166,0.247401178,-10.38666153,51.64133072,-16.68242073,0.433719,23.240787,-0.169181,5.57412,5.888758,-18.94491
145,2285781303,89.08468628,13.1666317,117.5136108,-2.581304789,8.746013641,0.112900749,-9.33323288,56.78804016,-16.0735054,0.390697,23.386554,-0.167299,5.418566,6.835225,-19.212802
146,2285797970,89.18854523,13.5062685,118.5776062,-2.492975712,8.472290993,-0.091447718,-9.035896301,62.18790817,-15.89792156,0.349147,23.527759,-0.168823,5.267968,7.87169,-19.477767
147,2285814637,89.33799744,13.84002018,119.7450867,-2.408904314,8.188006401,-0.382573903,-8.175205231,68.0762558,-15.61217499,0.308999,23.664226,-0.175199,5.131715,9.006294,-19.73797
148,2285831304,89.54419708,14.16540337,121.0286484,-2.415816545,8.005393028,-0.591117501,-6.906670094,74.66337585,-15.26892567,0.268735,23.797649,-0.185051,5.016604,10.250684,-19.992452
149,2285847971,89.80301666,14.48354435,122.445816,-2.289784431,8.007481575,-0.85689503,-6.227978706,82.2325592,-15.10868645,0.230572,23.931107,-0.199333,4.912804,11.621227,-20.244263
150,2285864638,90.09877777,14.78488731,124.0086288,-2.331523657,8.245064735,-0.948526978,-6.75600481,90.46456909,-14.5208149,0.191713,24.068525,-0.215142,4.800204,13.12897,-20.486277
151,2285881305,90.41268158,15.05233383,125.7104263,-2.377949953,8.497797966,-0.979328215,-8.361063957,98.29768372,-13.04112911,0.152081,24.210155,-0.231464,4.660853,14.767265,-20.703629
152,2285897972,90.75087738,15.26561165,127.5450134,-2.426423311,8.706871986,-1.091566443,-9.499548912,105.7968903,-10.47422791,0.111641,24.35527,-0.249657,4.502527,16.530547,-20.878199
153,2285914639,91.10961914,15.41291428,129.4923248,-2.414551973,8.855039597,-1.164819598,-10.49128437,112.1883011,-7.318049908,0.071398,24.502854,-0.269071,4.327672,18.400352,-21.000166
154,2285931306,91.49668884,15.49289608,131.5355835,-2.34263587,8.860725403,-1.260879397,-10.64991856,117.6748581,-4.196469307,0.032354,24.650533,-0.290086,4.150173,20.3616,-21.070107
155,2285947973,91.95058441,15.49614906,133.6580658,-2.243177652,8.75739193,-1.366366863,-8.099234581,122.2967911,-0.669762731,-0.005032,24.79649,-0.312859,4.015186,22.39988,-21.08127
156,2285964640,92.49614716,15.43047523,135.8441925,-2.197654247,8.873001099,-1.454456091,-3.65573287,126.1006622,2.170900583,-0.04166,24.944373,-0.3371,3.954257,24.501558,-21.045088
157,2285981307,93.10744476,15.31465244,138.0827179,-2.260324717,9.083400726,-1.588288307,-0.441902727,129.3039703,3.664304733,-0.079332,25.095763,-0.363571,3.946892,26.656624,-20.984016
158,2285997974,93.74610138,15.18169594,140.3600159,-2.43813777,9.494558334,-1.782822251,0.768306255,131.6739197,3.049935102,-0.119968,25.254006,-0.393285,3.959697,28.851189,-20.933184
159,2286014641,94.35520172,15.07858372,142.6720123,-2.812299967,9.831180573,-1.932321668,-1.372427464,133.6063385,-0.404219449,-0.16684,25.417859,-0.42549,3.936823,31.077961,-20.939921
160,2286031308,94.85874939,15.05235958,144.9933167,-3.141037941,9.851055145,-1.898319483,-7.792100906,133.7621613,-6.417597771,-0.219191,25.582043,-0.457129,3.806955,33.30733,-21.046881
161,2286047975,95.22525787,15.1101408,147.2965698,-3.269026279,9.570889473,-1.773116231,-15.84492874,132.1796265,-12.41320133,-0.273675,25.741558,-0.486681,3.542873,35.510324,-21.253768
162,2286064642,95.49403381,15.19905663,149.5635834,-3.256313324,9.742981911,-1.694915533,-21.37451553,129.7647705,-14.84809875,-0.327947,25.903941,-0.51493,3.186631,37.67307,-21.501236
163,2286081309,95.57881165,15.29308414,151.7851257,-3.33615613,10.11014652,-1.639502406,-31.95276642,126.9842834,-15.33912277,-0.38355,26.072443,-0.542255,2.654085,39.789475,-21.756888
164,2286097976,95.39104462,15.41504574,153.9378052,-3.234219313,10.13151741,-1.646225929,-47.49031067,122.787735,-16.55237198,-0.437454,26.241302,-0.569692,1.86258,41.835937,-22.032761
165,2286114643,94.92852783,15.59367847,155.9773254,-3.560199022,10.29580021,-1.26626265,-62.51596451,115.9565353,-18.69448662,-0.496791,26.412899,-0.590796,0.820647,43.768546,-22.344336
166,2286131310,94.21343231,15.86201859,157.8191223,-3.938665152,10.43069458,-0.649898827,-74.92113495,104.2028046,-21.97646904,-0.562435,26.586744,-0.601628,-0.428039,45.505259,-22.71061
167,2286147977,93.28884125,16.24245262,159.4184418,-4.408274174,10.27194214,-0.247769356,-84.04023743,89.96250153,-26.27264977,-0.635906,26.757943,-0.605757,-1.82871,47.004634,-23.148487
168,2286164644,92.22149658,16.71619415,160.7263947,-4.928837776,9.870379448,0.067155845,-88.28314972,73.21354675,-29.45012665,-0.718053,26.922449,-0.604638,-3.300096,48.22486,-23.639322
169,2286181311,91.06926727,17.24168587,161.7250061,-5.066196918,9.520093918,0.256887197,-88.54777527,55.76935196,-30.54211426,-0.80249,27.081117,-0.600357,-4.775892,49.154349,-24.148357
170,2286197978,89.8311615,17.8080101,162.4490356,-5.080954075,9.123095512,0.366366476,-89.2196579,40.52684402,-31.60852814,-0.887173,27.233169,-0.594251,-6.262886,49.829796,-24.675166
171,2286214645,88.623909,18.42837906,162.9260864,-4.794390202,7.723413467,0.260408312,-83.12197876,27.04515839,-34.06960297,-0.96708,27.361893,-0.589911,-7.648252,50.280549,-25.242993
172,2286231312,87.62102509,19.10380173,163.2159729,-4.664937019,7.59463644,0.306670427,-67.49777985,17.09626007,-37.08568573,-1.044829,27.48847,-0.5848,-8.773215,50.565487,-25.861088
173,2286247979,86.71590424,19.83468628,163.3919525,-4.423618793,7.547700882,0.259218663,-59.50508499,11.38353252,-40.33966827,-1.118556,27.614265,-0.58048,-9.764966,50.755213,-26.533416
174,2286264646,85.84457397,20.63292313,163.5132599,-4.416666985,7.690275192,0.259293228,-56.43072891,9.159552574,-44.30910873,-1.192167,27.742436,-0.576158,-10.705478,50.907872,-27.271901
175,2286281313,85.16928864,21.54234505,163.5945435,-4.518267155,6.567120552,0.151626483,-43.86587906,8.00905323,-50.93595505,-1.267471,27.851888,-0.573631,-11.436576,51.041356,-28.120834
176,2286297980,84.64068604,22.56191826,163.6845245,-4.647830963,7.863141537,0.582508326,-35.30128098,9.570685387,-57.29741287,-1.344935,27.98294,-0.563923,-12.024931,51.200867,-29.075791
177,2286314647,84.02272034,23.71206665,163.7796478,-4.930105686,7.58347559,0.770939052,-40.82791138,11.15620613,-64.90843964,-1.427103,28.109331,-0.551074,-12.705396,51.386804,-30.157598
178,2286331314,83.3420639,25.01346779,163.8803711,-5.009081841,7.566645622,1.04164505,-44.78198624,13.13967419,-73.69999695,-1.510588,28.235442,-0.533713,-13.451762,51.605799,-31.385931
179,2286347981,82.59762573,26.44229126,163.9835815,-5.236215591,7.880262375,1.345026135,-48.73646545,15.06330109,-81.04945374,-1.597858,28.36678,-0.511296,-14.264036,51.856854,-32.736755
180,2286364648,81.5974884,27.99965477,164.0798798,-5.392286301,8.031208038,1.565728426,-63.95440292,16.9304657,-88.46159363,-1.687729,28.500633,-0.485201,-15.329943,52.139028,-34.211115
181,2286381315,80.58391571,29.67717171,164.136734,-5.555041313,7.150118828,1.469293475,-63.68334579,17.49225044,-95.56693268,-1.780313,28.619802,-0.460713,-16.391332,52.430566,-35.803897
182,2286397982,79.53292084,31.4401741,164.1412506,-5.761813641,7.835925579,1.688639283,-64.3405838,17.39681435,-100.7126083,-1.876343,28.750401,-0.432569,-17.463675,52.720513,-37.48244
183,2286414649,78.27179718,33.27957153,164.1149445,-6.056528091,8.535840988,1.866457224,-75.88880157,18.79448891,-105.1103668,-1.977285,28.892665,-0.401461,-18.728488,53.033754,-39.234279
184,2286431316,76.7563858,35.22545624,164.0163574,-6.211680889,7.274425507,1.979915738,-88.59309387,19.27766991,-111.6272278,-2.080813,29.013905,-0.368462,-20.20504,53.355048,-41.094733
185,2286447983,75.28456116,37.19744492,163.7664795,-6.551154137,7.362626553,2.083641768,-80.36687469,15.60640717,-114.3141327,-2.189999,29.136615,-0.333735,-21.544488,53.615155,-42.999969
186,2286464650,73.79016876,39.22129822,163.3965302,-6.517523289,6.818160057,2.176473141,-76.76989746,14.28131104,-118.2678452,-2.298624,29.250251,-0.29746,-22.823986,53.853177,-44.9711
187,2286481317,72.40636444,41.30985641,162.8680115,-7.032905579,6.948514462,2.43543601,-63.28796005,11.9584465,-123.5209656,-2.415839,29.36606,-0.256869,-23.878785,54.052484,-47.029783
188,2286497984,71.05626678,43.40715408,162.14328,-7.009772778,6.408690929,2.406212807,-52.37735367,7.586182117,-126.1565475,-2.532669,29.472872,-0.216765,-24.751741,54.17892,-49.132392
189,2286514651,69.97162628,45.51256943,161.2684937,-7.679084301,6.484931946,2.484238386,-28.90472603,5.455645084,-128.173111,-2.660654,29.580954,-0.175361,-25.233486,54.269847,-51.268611
190,2286531318,69.01094818,47.64271164,160.1734161,-8.090134621,6.408563137,2.370862484,-10.4242115,1.099826097,-132.1028748,-2.79549,29.687763,-0.135847,-25.407223,54.288177,-53.470326
191,2286547985,68.21025085,49.76146698,158.8770294,-8.452479362,6.37621212,2.240068197,9.964612007,-2.820424795,-133.6478729,-2.936365,29.794033,-0.098513,-25.241146,54.24117,-55.697791
192,2286564652,67.52329254,51.89598083,157.3779449,-9.136936188,6.375983238,2.102541208,28.15380096,-5.7619977,-136.5731964,-3.088647,29.900299,-0.063471,-24.771916,54.145137,-57.974011
193,2286581319,66.91201782,54.04315567,155.6570587,-9.745059013,6.561089993,2.005481482,45.45438766,-8.835542679,-139.3660431,-3.251065,30.00965,-0.030046,-24.014343,53.997878,-60.296778
194,2286597986,66.29363251,56.19083405,153.7186737,-10.22592068,6.635512829,1.840597868,58.06698227,-11.26827717,-141.1577759,-3.421497,30.120242,0.000631,-23.04656,53.810073,-62.649408
195,2286614653,65.65708923,58.27080917,151.5750885,-10.17279339,6.433274746,1.675723314,69.7698822,-14.17106915,-138.7900391,-3.591044,30.227463,0.02856,-21.883729,53.573889,-64.962575
196,2286631320,65.03974915,60.21446228,149.3042603,-9.542453766,6.112622261,1.528360963,79.90367889,-16.07897186,-131.505661,-3.750085,30.32934,0.054033,-20.552001,53.305906,-67.154336
197,2286647987,64.52129364,61.99124908,147.0535889,-8.829931259,5.723079205,1.463680387,87.0148468,-14.99339581,-120.7195358,-3.897251,30.424725,0.078428,-19.101754,53.056016,-69.166328
198,2286664654,64.13159943,63.60245514,144.9635773,-8.373902321,5.514050961,1.529908895,88.0711441,-11.13955498,-108.4651108,-4.036816,30.516626,0.103926,-17.633902,52.870357,-70.97408
199,2286681321,63.86188889,65.06988525,143.1335602,-8.242735863,5.345491409,1.688853264,82.73126221,-5.462769985,-96.53225708,-4.174195,30.605718,0.132074,-16.255048,52.779311,-72.582951
200,2286697988,63.63741302,66.43358612,141.5924072,-8.35614109,5.399362087,1.894394994,70.80246735,0.846479475,-86.79194641,-4.313464,30.695707,0.163647,-15.075007,52.793419,-74.029483
201,2286714655,63.32846832,67.74311829,140.3155975,-8.653357506,5.219110489,1.985194445,52.00101852,7.150074482,-80.31495667,-4.457687,30.782692,0.196734,-14.208323,52.912587,-75.368066
202,2286731322,62.81840515,69.02619934,139.2141876,-9.099917412,5.056174278,2.028602362,30.81767654,11.95494843,-76.43779755,-4.609352,30.866962,0.230544,-13.694695,53.111836,-76.642029
203,2286747989,61.98001862,70.28774261,138.1403046,-9.323381424,4.758285999,2.098847628,10.10439682,14.04740047,-74.32047272,-4.764742,30.946267,0.265525,-13.526288,53.345959,-77.880704
204,2286764656,60.90417099,71.49437714,137.0180664,-9.356127739,4.003110409,1.969397068,-0.921254635,14.10994625,-71.07421112,-4.920677,31.012986,0.298348,-13.541642,53.581125,-79.065274
205,2286781323,59.67204285,72.62335968,135.816803,-9.265794754,3.726100922,1.887215853,-5.338759899,13.18262959,-66.84946442,-5.075107,31.075088,0.329802,-13.630621,53.800835,-80.179432
206,2286797990,58.43869781,73.66159058,134.6363831,-8.916255951,3.317812443,1.707226872,-6.187165737,13.33413601,-61.05967331,-5.223711,31.130385,0.358256,-13.73374,54.023071,-81.197093
207,2286814657,57.44874191,74.5936203,133.6248474,-8.616308212,2.899133682,1.699139833,-0.982321739,14.55798626,-53.33656693,-5.367316,31.178704,0.386575,-13.750112,54.265704,-82.086036
208,2286831324,56.8320694,75.40901947,132.8816833,-8.44618988,2.692916632,1.844673872,6.116649628,15.82873154,-44.53181458,-5.508086,31.223586,0.41732,-13.648168,54.529516,-82.828233
209,2286847991,56.56542206,76.11967468,132.4562683,-8.315691948,2.610920906,1.999441028,8.793206215,17.18105507,-36.29761505,-5.646681,31.267101,0.450644,-13.501615,54.815867,-83.433193
210,2286864658,56.56124496,76.74951172,132.3091431,-8.461657524,2.54225564,2.11370635,8.389291763,18.16220665,-29.94038391,-5.787709,31.309472,0.485872,-13.361793,55.11857,-83.932199
211,2286881325,56.68017578,77.32920837,132.3551788,-8.650192261,2.48563385,2.170487642,4.5068717,18.77432442,-26.01174927,-5.931879,31.350899,0.522047,-13.286678,55.431475,-84.365728
212,2286897992,56.87249374,77.87369537,132.5454712,-8.881622314,2.435143232,2.150155067,0.451956779,19.12692642,-23.345438,-6.079906,31.391485,0.557883,-13.279145,55.750257,-84.754819
213,2286914659,57.10935593,78.37430573,132.8214417,-9.031725883,2.260126352,2.14345789,-1.923134565,18.45230293,-20.73405838,-6.230435,31.429154,0.593607,-13.311197,56.057795,-85.100387
214,2286931326,57.41433334,78.8208313,133.1731567,-9.11359024,2.037567139,2.052470922,-2.313497782,17.28603172,-17.72808838,-6.382328,31.463113,0.627815,-13.349755,56.345896,-85.395855
215,2286947993,57.76712418,79.20213318,133.5681915,-9.123018265,1.837332368,1.989140391,-2.025737286,15.41600895,-14.37242413,-6.534378,31.493735,0.660967,-13.383517,56.602829,-85.635395
216,2286964660,58.17071915,79.5165863,134.0061798,-9.260077477,1.706316233,1.875205874,-1.529425383,13.51079559,-10.92565823,-6.688713,31.522174,0.69222,-13.409007,56.828009,-85.817489
217,2286981327,58.59287262,79.76387787,134.4429626,-9.474495888,1.619763136,1.786745787,-0.36398232,11.23142529,-7.688117504,-6.846621,31.54917,0.721999,-13.415073,57.015199,-85.945624
218,2286997994,59.0176239,79.95094299,134.8469849,-9.736129761,1.539552569,1.728414059,1.71117866,8.946180344,-4.925618172,-7.00889,31.574829,0.750806,-13.386553,57.164302,-86.027718
219,2287014661,59.40955353,80.09615326,135.1835785,-10.01615334,1.530855298,1.72455883,3.718164206,6.990007877,-3.244553328,-7.175826,31.600343,0.779549,-13.324584,57.280802,-86.081794
220,2287031328,59.75078201,80.21114349,135.4441223,-10.28066921,1.511085629,1.712091446,5.173593521,5.361513615,-2.153029442,-7.34717,31.625528,0.808084,-13.238357,57.370161,-86.117678
221,2287047995,60.04514313,80.29660034,135.6428833,-10.30858231,1.508260846,1.693923473,6.012715816,3.921541691,-0.987075031,-7.51898,31.650666,0.836316,-13.138145,57.43552,-86.134129
222,2287064662,60.40076447,80.35583496,135.9140167,-10.27325535,1.46151042,1.719133019,5.407981396,3.77978158,0.702005684,-7.690201,31.675025,0.864968,-13.048012,57.498516,-86.122429
223,2287081329,60.83712387,80.37968445,136.2906799,-10.19064999,1.401566505,1.672945261,4.0149827,3.679046392,3.027216434,-7.860045,31.698384,0.89285,-12.981096,57.559833,-86.071975
224,2287097996,61.36751556,80.36891937,136.7860565,-10.00727081,1.232884645,1.62617898,2.638076305,3.75426507,5.391326904,-8.026833,31.718932,0.919953,-12.937128,57.622404,-85.98212
225,2287114663,62.01942825,80.33106232,137.4208679,-9.854218483,1.132596135,1.55396235,1.688779831,4.298663139,7.445619106,-8.19107,31.737809,0.945852,-12.908982,57.694048,-85.858026
226,2287131330,62.716362,80.28305817,138.1140137,-9.774394035,1.024901748,1.601026416,0.950878024,4.654667377,8.227664948,-8.353977,31.754891,0.972536,-12.893134,57.771626,-85.720898
227,2287147997,63.39638138,80.2300415,138.7931976,-9.752485275,0.965959489,1.590329647,0.777569771,4.526565552,8.404009819,-8.516518,31.77099,0.999041,-12.880175,57.847069,-85.580831
228,2287164664,63.94621277,80.17545319,139.3412933,-9.746893883,0.986760139,1.574207544,0.729469121,3.42140317,7.862338543,-8.678966,31.787436,1.025278,-12.868017,57.904092,-85.449792
229,2287181331,64.31757355,80.13131714,139.7162476,-9.709231377,1.026895523,1.52938199,0.273959875,2.196538925,6.526123524,-8.840787,31.804551,1.050768,-12.863451,57.940701,-85.341023
230,2287197998,64.4489975,80.09293365,139.8477325,-9.668331146,1.049756646,1.417979121,0.277058989,0.149392486,5.132971287,-9.001926,31.822047,1.074401,-12.858833,57.943191,-85.255473
231,2287214665,64.39274597,80.06938171,139.7872009,-9.702674866,1.085089564,1.318035126,0.373990238,-1.224696875,3.49101758,-9.163637,31.840132,1.096368,-12.8526,57.922779,-85.197289
232,2287231332,64.12730408,80.06124115,139.5075378,-9.77709198,1.168681026,1.307953596,0.780041099,-2.844559193,1.672016144,-9.326589,31.85961,1.118167,-12.839599,57.87537,-85.169422
233,2287247999,63.6882782,80.06739807,139.0449982,-9.778069496,1.261537194,1.267463923,1.179343224,-4.144711018,0.065574922,-9.489557,31.880636,1.139291,-12.819943,57.806291,-85.168329
234,2287264666,63.16007233,80.08402252,138.4829712,-9.767942429,1.341435432,1.236399293,1.717120528,-4.738477707,-0.987945974,-9.652356,31.902993,1.159898,-12.791324,57.727316,-85.184795
235,2287281333,62.62143707,80.10258484,137.9064484,-9.743066788,1.432030678,1.183156729,1.949478865,-4.757981777,-1.203118324,-9.81474,31.92686,1.179617,-12.758833,57.648016,-85.204847
236,2287298000,62.12510681,80.11805725,137.3720093,-9.782339096,1.502815723,1.144192338,2.007990837,-4.404603481,-0.876440942,-9.977779,31.951907,1.198687,-12.725366,57.574606,-85.219454
237,2287314667,61.69432831,80.13295746,136.915329,-9.778619766,1.541876197,1.067228913,1.34559536,-3.668340921,-0.510653257,-10.140756,31.977605,1.216474,-12.702939,57.513467,-85.227965
238,2287331334,61.32001877,80.1485672,136.5267944,-9.769708633,1.591573477,1.058680058,0.70724988,-2.997748852,-0.241937548,-10.303584,32.004131,1.234119,-12.691152,57.463505,-85.231997
239,2287348001,61.01163483,80.16905212,136.2168427,-9.774609566,1.618951797,1.080827117,0.018178614,-2.119617462,-0.136899903,-10.466494,32.031114,1.252133,-12.690849,57.428178,-85.234279
240,2287364668,60.75070953,80.20030212,135.958847,-9.796415329,1.634610415,1.005414248,-0.207539693,-1.315621853,-0.453626543,-10.629768,32.058358,1.26889,-12.694308,57.406251,-85.241839
241,2287381335,60.47681808,80.23937988,135.6840057,-9.76401329,1.640468121,0.972203791,0.013004849,-1.203784108,-0.972591102,-10.792502,32.085699,1.285093,-12.694091,57.386188,-85.258049
242,2287398002,60.20907593,80.28679657,135.4126892,-9.67714119,1.739948153,1.001293659,0.172431096,-0.900913835,-1.39061594,-10.953788,32.114698,1.301781,-12.691217,57.371173,-85.281226
243,2287414669,59.98703766,80.33659363,135.1899109,-9.732205391,1.784278989,1.034562349,0.042344194,-0.368323445,-1.291545987,-11.115991,32.144436,1.319024,-12.690511,57.365034,-85.302752
244,2287431336,59.7974205,80.38051605,134.998642,-9.758750916,1.825345516,1.042331338,0.121244118,-0.243896931,-0.839597046,-11.278637,32.174858,1.336396,-12.68849,57.360969,-85.316745
245,2287448003,59.66492844,80.41249084,134.8603363,-9.722391129,1.803681612,1.049863577,0.415495604,-0.129933223,0.035774536,-11.440677,32.204919,1.353894,-12.681565,57.358803,-85.316149
246,2287464670,59.60381699,80.43096161,134.7820129,-9.74151516,1.804493308,1.080170035,1.140117407,-0.008810769,1.018328905,-11.603036,32.234994,1.371897,-12.662563,57.358656,-85.299177
247,2287481337,59.5873642,80.43753815,134.741745,-9.697384834,1.835986495,1.113574505,1.566965938,-0.032771453,1.802269697,-11.764659,32.265594,1.390457,-12.636447,57.35811,-85.269139
248,2287498004,59.58857727,80.43618011,134.7190552,-9.685128212,1.830528975,1.1960783,1.580489278,-0.115526073,2.283736944,-11.926078,32.296103,1.410392,-12.610106,57.356185,-85.231077
249,2287514671,59.56640244,80.4291153,134.6751099,-9.672266006,1.817387223,1.24379909,1.43084693,-0.460490733,2.448708534,-12.087282,32.326393,1.431122,-12.586259,57.34851,-85.190265
250,2287531338,59.49774551,80.41355896,134.585968,-9.63630867,1.770993114,1.249981523,1.309545517,-1.097171426,2.639126539,-12.247887,32.35591,1.451955,-12.564433,57.330224,-85.14628
251,2287548005,59.37691116,80.38928986,134.4357758,-9.605527878,1.750895143,1.252119541,1.78436625,-1.877807736,2.758224964,-12.407979,32.385092,1.472824,-12.534694,57.298927,-85.10031
252,2287564672,59.21461105,80.35953522,134.2309723,-9.591058731,1.723395348,1.220215678,2.522819042,-2.510198355,2.735288858,-12.56783,32.413815,1.493161,-12.492647,57.25709,-85.054722
253,2287581339,59.02870941,80.33118439,133.9941559,-9.558626175,1.697653651,1.216417313,2.995437622,-2.738638401,2.47190094,-12.72714,32.442109,1.513435,-12.442723,57.211446,-85.013524
254,2287598006,58.82245636,80.302742,133.7259827,-9.508927345,1.692231417,1.228855014,3.62298727,-3.006957293,2.281406641,-12.885622,32.470313,1.533916,-12.38234,57.16133,-84.975501
255,2287614673,58.62524796,80.2816925,133.4692993,-9.443455696,1.736321449,1.218318582,3.477122784,-2.674670696,1.938939452,-13.043013,32.499252,1.554221,-12.324388,57.116752,-84.943185
256,2287631340,58.43260956,80.27426147,133.2288208,-9.576217651,1.787501097,1.2208395,2.790548801,-2.096617222,1.292039037,-13.202617,32.529044,1.574568,-12.277879,57.081808,-84.921651
257,2287648007,58.20676422,80.2786026,132.9674988,-9.703573227,1.839909434,1.220332265,2.023665667,-1.893418789,0.555814743,-13.364343,32.559709,1.594907,-12.244151,57.050251,-84.912387
258,2287664674,57.93382263,80.29141235,132.6625061,-9.770746231,1.801471472,1.202183962,1.775184274,-1.983088851,-0.131918222,-13.527189,32.589734,1.614943,-12.214565,57.0172,-84.914586
259,2287681341,57.66200256,80.304245,132.3469849,-9.724819183,1.794177294,1.180654883,2.45968318,-2.05033493,-0.215518042,-13.689269,32.619637,1.634621,-12.17357,56.983028,-84.918178
260,2287698008,57.45412445,80.31541443,132.0820313,-9.673834801,1.811917901,1.17643857,3.300548792,-1.649983048,0.115289167,-13.8505,32.649836,1.654228,-12.118561,56.955528,-84.916257
261,2287714675,57.32469177,80.32342529,131.8948822,-9.658368111,1.822397947,1.184454322,3.401488543,-1.078742862,0.684621155,-14.011473,32.680209,1.673969,-12.06187,56.937549,-84.904847
262,2287731342,57.24272156,80.32990265,131.7593842,-9.689291,1.815503001,1.17711854,3.186290026,-0.674753785,1.016766667,-14.172961,32.710467,1.693588,-12.008765,56.926303,-84.887901
263,2287748009,57.16112137,80.34390259,131.6360168,-9.663948059,1.80915904,1.179350615,2.485603571,-0.323142618,0.69225359,-14.334027,32.74062,1.713244,-11.967338,56.920917,-84.876363
264,2287764676,57.07232666,80.36773682,131.5078125,-9.649542809,1.755514383,1.161174059,2.334284306,-0.029364962,0.150020003,-14.494853,32.769879,1.732597,-11.928433,56.920428,-84.873863
265,2287781343,56.96467209,80.4022522,131.3567963,-9.608395576,1.76386857,1.141314983,2.548764467,0.138379022,-0.521705091,-14.654993,32.799277,1.751619,-11.885954,56.922734,-84.882558
266,2287798010,56.84763718,80.44618225,131.1947327,-9.599879265,1.780030251,1.145396829,2.629790306,0.372402251,-1.06799829,-14.814991,32.828944,1.770709,-11.842124,56.928941,-84.900358
267,2287814677,56.71537781,80.4917984,131.0142059,-9.609476089,1.823103547,1.167888522,2.809066534,0.291773498,-1.263449073,-14.975149,32.859329,1.790174,-11.795306,56.933804,-84.921415
268,2287831344,56.58493423,80.5328598,130.8340912,-9.666384697,1.842703581,1.154923677,2.887121439,0.167743996,-1.046342969,-15.136255,32.890041,1.809423,-11.747187,56.9366,-84.938854
269,2287848011,56.44525909,80.56847382,130.6428986,-9.670520782,1.864377737,1.159884334,2.981555223,-0.085815355,-0.845411241,-15.29743,32.921114,1.828754,-11.697494,56.93517,-84.952944
270,2287864678,56.30101395,80.59477234,130.4441071,-9.726128578,1.88897872,1.187877417,3.150765419,-0.438105255,-0.439629227,-15.459532,32.952597,1.848552,-11.644981,56.927868,-84.960271
271,2287881345,56.14774323,80.61096191,130.2315369,-9.720002174,1.889306784,1.176538229,3.421030998,-0.874904275,-0.02098961,-15.621532,32.984085,1.868161,-11.587964,56.913286,-84.960621
272,2287898012,56.02621078,80.61225891,130.044342,-9.65281868,1.866994023,1.163106084,3.811023235,-1.15173924,0.834148169,-15.782412,33.015202,1.887546,-11.524447,56.89409,-84.946719
273,2287914679,55.95129395,80.60405731,129.9006348,-9.572872162,1.844843864,1.132762194,4.028422356,-1.109221935,1.521605492,-15.94196,33.045949,1.906425,-11.457307,56.875603,-84.921359
274,2287931346,55.91672897,80.59155273,129.7964935,-9.541611671,1.838249803,1.120778322,4.10167551,-0.926501095,1.931127191,-16.100987,33.076586,1.925105,-11.388946,56.860161,-84.889174
275,2287948013,55.89427948,80.58169556,129.7071991,-9.5656147,1.798961282,1.113766909,3.940623045,-0.714568734,1.867274761,-16.260414,33.106569,1.943668,-11.323269,56.848252,-84.858053
276,2287964680,55.86465073,80.57873535,129.6164093,-9.535406113,1.816126943,1.086657524,3.595722914,-0.492993295,1.503075004,-16.419337,33.136838,1.961779,-11.26334,56.840035,-84.833002
277,2287981347,55.84526062,80.58602142,129.5447845,-9.472011566,1.805851936,1.112003088,3.066102266,0.014964219,1.080810905,-16.577204,33.166936,1.980312,-11.212238,56.840284,-84.814988
278,2287998014,55.86034775,80.60092163,129.5205383,-9.455827713,1.83628118,1.113149047,2.322681427,0.657919884,0.954617321,-16.734801,33.197541,1.998864,-11.173527,56.851249,-84.799078
279,2288014681,55.94213867,80.62212372,129.5759583,-9.574697495,1.884756446,1.101500154,1.604334712,1.522310019,1.057785273,-16.894379,33.228954,2.017222,-11.146788,56.876621,-84.781448
280,2288031348,56.0499115,80.64453888,129.6663666,-9.677302361,1.893152714,1.118545055,1.085101247,1.846694946,1.175693393,-17.055667,33.260507,2.035864,-11.128703,56.907399,-84.761853
281,2288048015,56.1882515,80.66247559,129.7896118,-9.715071678,1.889552474,1.144354582,0.968435466,1.96658802,1.550496817,-17.217585,33.292,2.054937,-11.112562,56.940175,-84.736011
282,2288064682,56.36980438,80.66984558,129.9523315,-9.726856232,1.895876527,1.165652633,1.215918064,1.939105511,2.268484831,-17.379699,33.323598,2.074365,-11.092297,56.972493,-84.698203
283,2288081349,56.58130646,80.66413879,130.1438751,-9.677724838,1.870633841,1.156464219,1.299889445,1.745409489,3.060890675,-17.540994,33.354775,2.093639,-11.070632,57.001583,-84.647188
284,2288098016,56.82022476,80.64756012,130.3630371,-9.647094727,1.848761082,1.15397191,1.301707745,1.62540102,3.737833977,-17.701779,33.385588,2.112872,-11.048937,57.028673,-84.584891
285,2288114683,57.04749298,80.62792969,130.5727692,-9.690085411,1.810820341,1.163137913,1.158750415,1.468497515,3.81825757,-17.86328,33.415768,2.132258,-11.029624,57.053148,-84.521253
286,2288131350,57.20578003,80.6051178,130.7077789,-9.723909378,1.782936335,1.167507052,1.438889861,0.769002259,3.569264889,-18.025345,33.445484,2.151716,-11.005643,57.065965,-84.461765
287,2288148017,57.27609634,80.58625031,130.7526398,-9.723053932,1.754563451,1.172138453,1.488193989,0.165528461,2.886480808,-18.187396,33.474727,2.171252,-10.98084,57.068724,-84.413657
288,2288164684,57.30146408,80.56760406,130.7476044,-9.673541069,1.713968635,1.14261055,1.742284775,-0.228145123,2.597749233,-18.348622,33.503293,2.190296,-10.951802,57.064922,-84.370361
289,2288181351,57.29301453,80.5476532,130.7000275,-9.721437454,1.737563372,1.102597356,2.224290133,-0.618854105,2.434301376,-18.510646,33.532252,2.208673,-10.91473,57.054608,-84.329789
290,2288198018,57.26909637,80.52757263,130.6343079,-9.697385788,1.739974737,1.097890377,2.36865592,-0.769264579,2.333348989,-18.672269,33.561252,2.226971,-10.875252,57.041787,-84.2909
291,2288214685,57.22564316,80.51165009,130.5530548,-9.733381271,1.751433969,1.109848022,2.110236883,-0.759723902,2.029556513,-18.834492,33.590443,2.245468,-10.840081,57.029125,-84.257074
292,2288231352,57.14976501,80.50442505,130.4459229,-9.786990166,1.758921385,1.098866582,1.689522624,-0.687841833,1.442180634,-18.997609,33.619758,2.263782,-10.811922,57.017661,-84.233038
293,2288248019,57.04283905,80.49887848,130.3100586,-9.856132507,1.738178611,1.091315866,1.52393651,-0.870127499,1.195056438,-19.161878,33.648728,2.281971,-10.786523,57.003159,-84.21312
294,2288264686,56.90102768,80.49097443,130.1332855,-9.864767075,1.734435558,1.105702877,1.849243164,-1.284605026,1.087022305,-19.326291,33.677635,2.300399,-10.755702,56.981749,-84.195003
295,2288281353,56.73067093,80.47544098,129.9159088,-9.843430519,1.720913649,1.112627268,2.532974482,-1.86419487,1.22999239,-19.490348,33.706317,2.318943,-10.713486,56.950679,-84.174503
296,2288298020,56.52048492,80.45420837,129.6433105,-9.804811478,1.703707576,1.062242985,3.40535593,-2.512708187,1.203470349,-19.653762,33.734712,2.336647,-10.65673,56.908801,-84.154445
297,2288314687,56.2733345,80.42638397,129.3194275,-9.745502472,1.680020332,1.024316072,4.220647335,-3.161068678,1.233386159,-19.816187,33.762712,2.353719,-10.586386,56.856117,-84.133889
298,2288331354,55.9973526,80.39884949,128.9537506,-9.684981346,1.668318868,1.039615512,4.955153942,-3.496850491,0.9483549,-19.977603,33.790517,2.371046,-10.5038,56.797836,-84.118083
299,2288348021,55.69918823,80.37285614,128.5571899,-9.602958679,1.662559748,1.018862486,5.447661877,-3.709398031,0.676015317,-20.137652,33.818226,2.388027,-10.413006,56.736013,-84.106816
300,2288364688,55.39648438,80.35539246,128.1505432,-9.564061165,1.703714728,0.984246194,5.767833233,-3.506622076,0.163774028,-20.297053,33.846621,2.404431,-10.316875,56.677569,-84.104086
301,2288381355,55.08093262,80.34799957,127.7328873,-9.525176048,1.73211658,0.915098369,5.644931316,-3.252634048,-0.422507197,-20.455806,33.87549,2.419683,-10.222793,56.623358,-84.111128
302,2288398022,54.78439713,80.35211182,127.3343811,-9.453316689,1.709964752,0.873941898,5.648164749,-2.691812038,-0.902418911,-20.613361,33.903989,2.434249,-10.128657,56.578494,-84.126168
303,2288414689,54.5610733,80.37296295,127.0101547,-9.406659126,1.777062297,0.852486908,5.649496078,-1.489161015,-1.314264655,-20.770139,33.933607,2.448457,-10.034499,56.553675,-84.148072
304,2288431356,54.43135452,80.40886688,126.7938309,-9.384162903,1.836834311,0.871609449,4.879302979,-0.078669406,-1.421632767,-20.926542,33.964221,2.462984,-9.953177,56.552364,-84.171766
305,2288448023,54.40726089,80.4546814,126.703125,-9.354536057,1.843515873,0.846970677,3.784538746,1.295868278,-1.18930006,-21.082451,33.994946,2.4771,-9.890101,56.573962,-84.191588
306,2288464690,54.49973679,80.50721741,126.7386169,-9.386945724,1.832661986,0.831063986,3.31045413,2.541983604,-0.793212473,-21.2389,34.02549,2.490951,-9.834927,56.616328,-84.204808
307,2288481357,54.69101334,80.56162262,126.873909,-9.42286396,1.852955222,0.828826547,3.328748465,3.397287846,-0.331018567,-21.395948,34.056373,2.504765,-9.779448,56.672949,-84.210325
308,2288498024,54.93768311,80.61824799,127.0587082,-9.507661819,1.844762683,0.802467167,3.717664719,3.851273537,-0.188278988,-21.554409,34.087119,2.518139,-9.717487,56.737137,-84.213463
309,2288514691,55.22424698,80.6739502,127.2643204,-9.606942177,1.861869693,0.807754278,4.877574444,3.960639715,-0.056783359,-21.714525,34.11815,2.531602,-9.636194,56.803148,-84.214409
310,2288531358,55.5583725,80.72676849,127.5034485,-9.64444828,1.892227411,0.834149361,5.742745876,4.107157707,0.232159942,-21.875266,34.149687,2.545504,-9.540482,56.871601,-84.21054
311,2288548025,55.95531082,80.7765274,127.8028641,-9.664966583,1.954211354,0.844804227,5.93598175,4.456182003,0.674132824,-22.036349,34.182257,2.559584,-9.441549,56.945871,-84.199304
312,2288564692,56.42818069,80.81990051,128.180542,-9.699105263,1.961200118,0.869892657,5.856863976,4.846736431,1.352229118,-22.198001,34.214944,2.574082,-9.343935,57.02665,-84.176767
313,2288581359,56.97276688,80.85808563,128.637558,-9.715003014,1.970158577,0.898249865,5.449698448,5.287352562,1.973465323,-22.359918,34.24778,2.589053,-9.253107,57.114773,-84.143876
314,2288598026,57.55036926,80.89035797,129.136673,-9.747704506,1.952950835,0.894807816,4.934537411,5.423803806,2.413478851,-22.52238,34.280329,2.603966,-9.170865,57.20517,-84.103651
315,2288614693,58.14157104,80.91519928,129.6481781,-9.848353386,1.92601037,0.954409182,5.008544922,5.279706478,2.785835981,-22.686519,34.312429,2.619873,-9.087389,57.293165,-84.05722
316,2288631360,58.68173599,80.93052673,130.1043854,-9.926917076,1.911729336,0.994153857,5.22341013,4.538078308,2.93593955,-22.851968,34.344291,2.636442,-9.000332,57.3688,-84.008288
317,2288648027,59.13779449,80.92983246,130.4664459,-9.896664619,1.836811423,1.011291504,5.746151924,3.294837236,3.245724678,-23.016912,34.374905,2.653297,-8.904563,57.423714,-83.954193
318,2288664694,59.522892,80.91398621,130.7382965,-9.871951103,1.811423779,1.001281142,6.833321095,2.114219666,3.565448046,-23.181445,34.405095,2.669985,-8.790674,57.458951,-83.894769
319,2288681361,59.81904221,80.88829041,130.9066162,-9.857335091,1.789113402,1.005178809,7.625869751,0.98898983,3.566703558,-23.345734,34.434914,2.686738,-8.663576,57.475434,-83.835324
320,2288698028,60.01605225,80.8611145,130.9681091,-9.885483742,1.752900481,0.994573057,8.008164406,0.080865718,3.12955904,-23.510492,34.464129,2.703314,-8.530107,57.476782,-83.783165
321,2288714695,60.10928726,80.84062958,130.917511,-9.904358864,1.764808893,1.020268798,8.414562225,-0.634670079,2.239402294,-23.675565,34.493542,2.720318,-8.389864,57.466204,-83.745842
322,2288731362,60.11315918,80.83359528,130.7861328,-9.81840992,1.802262902,1.071744442,7.836008072,-0.900798738,1.158532977,-23.839205,34.52358,2.73818,-8.259264,57.451191,-83.726533
323,2288748029,60.0690155,80.83461761,130.6230011,-9.781830788,1.836657286,1.084218025,6.832689285,-0.916288137,0.580883384,-24.002236,34.554191,2.75625,-8.145386,57.43592,-83.716852
324,2288764696,59.97832489,80.84127045,130.4288635,-9.791783333,1.8529706,1.038662314,5.871020794,-0.993868947,0.129638702,-24.165432,34.585074,2.773561,-8.047536,57.419356,-83.714691
325,2288781363,59.83397293,80.8480072,130.1947632,-9.780440331,1.869432807,1.065434098,5.013180733,-1.313457847,-0.074776284,-24.328439,34.616231,2.791318,-7.963983,57.397465,-83.715937
326,2288798030,59.63759995,80.85900879,129.9141846,-9.758751869,1.844554663,1.053390026,4.641591072,-1.556035519,-0.52836436,-24.491085,34.646974,2.808875,-7.886623,57.371531,-83.724743
327,2288814697,59.35826492,80.87697601,129.5545044,-9.698410988,1.874140501,1.086335778,4.345405579,-1.974470258,-1.284950733,-24.652725,34.67821,2.826981,-7.8142,57.338623,-83.746159
328,2288831364,58.98561096,80.89774323,129.1044312,-9.683279991,1.951575041,1.044064403,4.096143246,-2.597934723,-1.888411522,-24.814113,34.710736,2.844382,-7.745931,57.295324,-83.777633
329,2288848031,58.52170181,80.91593933,128.5683899,-9.706980705,1.988663912,1.004559636,3.710941315,-3.335811377,-2.209121227,-24.975896,34.74388,2.861125,-7.684082,57.239727,-83.814452
330,2288864698,58.00417328,80.92719269,127.9798889,-9.662644386,2.006356478,1.00216949,3.599308252,-3.940847158,-2.146728516,-25.13694,34.777319,2.877828,-7.624094,57.174046,-83.850231
331,2288881365,57.46601486,80.9289856,127.37117,-9.648007393,2.022843599,0.923048317,3.549863338,-4.366940498,-1.818156242,-25.29774,34.811033,2.893212,-7.56493,57.101264,-83.880534
332,2288898032,56.94772339,80.92580414,126.7765808,-9.612687111,2.039359093,0.848850727,3.902920485,-4.383767128,-1.55763638,-25.457951,34.845022,2.90736,-7.499881,57.028201,-83.906495
333,2288914699,56.47013474,80.92331696,126.228157,-9.596135139,2.063974142,0.862859786,3.603688002,-3.977896214,-1.40011847,-25.617887,34.879422,2.921741,-7.43982,56.961903,-83.92983
334,2288931366,56.01947784,80.92420197,125.7159271,-9.581468582,2.104254007,0.876375198,3.070367575,-3.563239098,-1.424655318,-25.777578,34.914493,2.936347,-7.388647,56.902516,-83.953574
335,2288948033,55.63179016,80.93434143,125.2938385,-9.523505211,2.118221998,0.81824106,1.506442785,-2.522312641,-1.454519391,-25.936303,34.949797,2.949984,-7.36354,56.860477,-83.977816
336,2288964700,55.31292343,80.94880676,124.9621811,-9.5448246,2.092791796,0.795511544,0.275547802,-1.656757236,-1.208727121,-26.095383,34.984677,2.963243,-7.358948,56.832864,-83.997961
337,2288981367,55.06339645,80.96373749,124.712204,-9.572865486,2.087941408,0.80086726,-0.40696016,-0.995706618,-0.812908649,-26.254931,35.019476,2.976591,-7.365731,56.816269,-84.011509
338,2288998034,54.86912918,80.97679138,124.5219727,-9.58484745,2.066737652,0.785061836,-0.632941008,-0.598082185,-0.40698579,-26.414678,35.053922,2.989675,-7.37628,56.806301,-84.018292
339,2289014701,54.71550369,80.98995209,124.3695755,-9.600604057,2.033384562,0.774473846,-0.438258946,-0.30080834,-0.224892303,-26.574688,35.087812,3.002583,-7.383584,56.801288,-84.02204
340,2289031368,54.57978439,81.00379181,124.2323303,-9.634191513,2.028900385,0.825141907,-0.262453318,-0.161705777,-0.191570163,-26.735258,35.121627,3.016335,-7.387958,56.798593,-84.025233
341,2289048035,54.42734146,81.01996613,124.0854797,-9.667858124,2.054022789,0.872200787,-0.695756197,-0.155891687,-0.360473096,-26.896389,35.155861,3.030872,-7.399554,56.795995,-84.031241
342,2289064702,54.26322556,81.03619385,123.9387589,-9.755819321,2.05204916,0.896704674,-1.405048609,-0.14974466,-0.375507772,-27.058986,35.190062,3.045817,-7.422971,56.793499,-84.037499
343,2289081369,54.06809235,81.0470047,123.7645569,-9.791600227,1.980290294,0.912581801,-1.643938422,-0.539826155,-0.280881673,-27.222179,35.223067,3.061027,-7.45037,56.784502,-84.04218
344,2289098036,53.83887482,81.04704285,123.5487366,-9.845427513,1.931023002,0.917753637,-1.218972564,-1.230575085,0.001965775,-27.386269,35.255251,3.076323,-7.470686,56.763992,-84.042147
345,2289114703,53.58657074,81.03612518,123.2966766,-9.885083199,1.903122425,0.93269217,-0.459056377,-1.89377737,0.319050968,-27.55102,35.28697,3.091868,-7.478337,56.732429,-84.036829
346,2289131370,53.2820549,81.01635742,122.9840317,-9.85962677,1.839231849,0.956848621,-0.002279531,-2.668074846,0.390945852,-27.715347,35.317624,3.107815,-7.478375,56.687961,-84.030313
347,2289148037,52.93556595,80.99414063,122.6246033,-9.844655991,1.802445769,0.964868128,0.249333203,-3.109842777,0.216894731,-27.879425,35.347665,3.123896,-7.474219,56.63613,-84.026698
348,2289164704,52.50691986,80.97235107,122.1860504,-9.834597588,1.76937747,0.987216711,0.007190766,-3.687588453,-0.288078874,-28.043335,35.377155,3.14035,-7.474099,56.57467,-84.031499
349,2289181371,52.0008316,80.95547485,121.6771698,-9.849287987,1.711464643,0.945587337,-0.477254182,-4.032642365,-0.960437715,-28.20749,35.405679,3.15611,-7.482053,56.507459,-84.047506
350,2289198038,51.42913437,80.9391098,121.0946503,-9.785844803,1.631871343,0.925595522,-0.047204211,-4.544384956,-1.472756028,-28.370587,35.432877,3.171537,-7.48284,56.431719,-84.072052
351,2289214705,50.83773041,80.92290497,120.4818344,-9.675498009,1.596981764,0.909178674,0.563127279,-4.750772476,-1.709494114,-28.531845,35.459493,3.18669,-7.473455,56.352539,-84.100544
352,2289231372,50.23085403,80.90828705,119.8423767,-9.660464287,1.617369056,0.880461454,1.211307883,-4.862417698,-2.010545969,-28.692853,35.486449,3.201364,-7.453267,56.271499,-84.134053
353,2289248039,49.58416748,80.89925385,119.1587067,-9.663300514,1.634502769,0.864750504,1.444422007,-4.951139927,-2.593580484,-28.853908,35.513691,3.215777,-7.429193,56.18898,-84.177279
354,2289264706,48.89827728,80.90163422,118.4368591,-9.620566368,1.649045587,0.84612453,1.354521275,-4.743446827,-3.413686752,-29.014251,35.541175,3.229879,-7.406618,56.109923,-84.234174
355,2289281373,48.21052551,80.91879272,117.7171631,-9.59869194,1.677048564,0.831021249,1.12145865,-4.088670731,-4.12306881,-29.174229,35.569126,3.243729,-7.387927,56.041778,-84.302892
356,2289298040,47.55766296,80.94837952,117.0356445,-9.530795097,1.752036929,0.819247484,0.957972646,-3.257858515,-4.475780964,-29.333076,35.598327,3.257383,-7.371961,55.98748,-84.377488
357,2289314707,46.99293137,80.98851013,116.4554062,-9.542807579,1.822163701,0.812272012,0.24989675,-2.060285807,-4.320632458,-29.492123,35.628696,3.270921,-7.367796,55.953142,-84.449499
358,2289331374,46.50065613,81.03704834,115.9578018,-9.565678596,1.871403933,0.832867563,-0.293470293,-1.094353676,-4.165956497,-29.651551,35.659886,3.284802,-7.372687,55.934903,-84.518932
359,2289348041,46.08874512,81.08905792,115.5500565,-9.59239769,1.907410383,0.833544791,-0.79052335,-0.291651875,-3.743745089,-29.811424,35.691676,3.298694,-7.385862,55.930042,-84.581328
360,2289364708,45.74800873,81.13732147,115.2153168,-9.55412674,1.925405622,0.834449232,-0.843080401,0.07377097,-3.108369827,-29.970659,35.723766,3.312601,-7.399913,55.931272,-84.633134
361,2289381375,45.5046196,81.17823792,114.9753342,-9.495183945,1.941589117,0.847480476,-0.613565028,0.412895918,-2.183073044,-30.128912,35.756126,3.326726,-7.410139,55.938154,-84.669519
362,2289398042,45.38440704,81.20915985,114.8612595,-9.478498459,1.962370634,0.833637953,-0.68743211,0.82272476,-0.948271871,-30.286887,35.788832,3.34062,-7.421596,55.951866,-84.685324
363,2289414709,45.37875366,81.23267365,114.8662872,-9.446996689,1.981468797,0.860563993,-0.873751581,1.279463172,0.126481906,-30.444337,35.821856,3.354963,-7.436159,55.97319,-84.683216
364,2289431376,45.45981979,81.24920654,114.9657974,-9.521326065,1.999672651,0.882920623,-1.271106958,1.59356451,1.014179707,-30.603026,35.855184,3.369678,-7.457344,55.999749,-84.666313
365,2289448043,45.58847809,81.25306702,115.1195068,-9.574021339,1.955827236,0.888223708,-1.628826857,1.405067921,1.889916182,-30.762593,35.887781,3.384482,-7.484491,56.023167,-84.634814
366,2289464710,45.78614807,81.23989868,115.3400421,-9.567696571,1.934299707,0.874068916,-1.447950125,1.126645207,3.025890827,-30.922055,35.920019,3.39905,-7.508624,56.041944,-84.584382
367,2289481377,46.06539917,81.21099091,115.6352005,-9.567687988,1.902691483,0.859896004,-0.97547245,0.958356738,4.177117825,-31.081516,35.951731,3.413382,-7.524882,56.057917,-84.514763
368,2289498044,46.39997864,81.1698761,115.9853668,-9.620781898,1.886178136,0.89510113,-0.915205896,0.831407487,5.051983833,-31.241862,35.983167,3.4283,-7.540135,56.071774,-84.430563
369,2289514711,46.75349045,81.11794281,116.3592148,-9.692098618,1.827460408,0.903508008,-1.177812934,0.578507662,5.663691998,-31.403397,36.013625,3.443358,-7.559765,56.081416,-84.336168
370,2289531378,47.07333374,81.05835724,116.7019348,-9.741883278,1.762060881,0.889085531,-1.345755577,0.086282805,5.813847065,-31.565762,36.042993,3.458176,-7.582194,56.082854,-84.239271
371,2289548045,47.35852432,80.98910522,117.0028458,-9.747531891,1.656193376,0.889979303,-0.939435422,-0.552722096,5.97501421,-31.728221,36.070596,3.473009,-7.597851,56.073642,-84.139687
372,2289564712,47.6086235,80.917099,117.2526398,-9.73982048,1.592408538,0.856018007,-0.010117017,-0.996859193,5.796327591,-31.890551,36.097136,3.487276,-7.59802,56.057028,-84.043082
373,2289581379,47.82809448,80.84513092,117.4548569,-9.763374329,1.555713177,0.8341012,0.979359269,-1.304608583,5.507325649,-32.053274,36.123065,3.501178,-7.581697,56.035285,-83.951293
374,2289598046,48.00730896,80.78535461,117.608345,-9.782952309,1.578890324,0.859686971,1.459200382,-1.141762972,4.662004471,-32.216323,36.14938,3.515506,-7.557377,56.016256,-83.873593
375,2289614713,48.14017105,80.74190521,117.7237778,-9.782799721,1.599498153,0.858921051,0.939954221,-0.757111549,3.702361345,-32.37937,36.176038,3.529821,-7.541711,56.003637,-83.811887
376,2289631380,48.25072861,80.71818542,117.83992,-9.773508072,1.600673795,0.894185305,-0.434967697,0.041178819,2.823614597,-32.542262,36.202716,3.544724,-7.54896,56.004323,-83.764827
377,2289648047,48.34338379,80.70990753,117.9512482,-9.765342712,1.563790083,0.894460618,-1.219331026,0.614788055,2.109212399,-32.705018,36.228779,3.559632,-7.569282,56.014569,-83.729673
378,2289664714,48.41267014,80.71198273,118.0408859,-9.793323517,1.569487095,0.866207004,-1.330964088,0.864243031,1.505828381,-32.86824,36.254937,3.574069,-7.591465,56.028973,-83.704576
379,2289681381,48.422966,80.72078705,118.0640182,-9.839101791,1.58868444,0.874088645,-0.925502181,0.641937554,0.777428746,-33.032225,36.281415,3.588637,-7.60689,56.039672,-83.691619
380,2289698048,48.35195923,80.73091888,117.9966965,-9.825293541,1.622475028,0.920415878,-0.442881972,0.032931529,0.136214748,-33.19598,36.308456,3.603977,-7.614271,56.040221,-83.689349
381,2289714715,48.20601654,80.73960876,117.8468704,-9.825929642,1.662360668,0.922557771,-0.04793416,-0.625282824,-0.330634326,-33.359745,36.336162,3.619353,-7.61507,56.0298,-83.69486
382,2289731382,47.98950958,80.74390411,117.6186066,-9.810146332,1.706971765,0.909029543,0.365845412,-1.369203687,-0.636091411,-33.523247,36.364612,3.634503,-7.608973,56.00698,-83.705462
383,2289748049,47.72141647,80.74615479,117.3327713,-9.798045158,1.715517402,0.884073377,0.684493005,-1.859366894,-0.933134675,-33.686548,36.393204,3.649238,-7.597565,55.975991,-83.721014
384,2289764716,47.4090538,80.74900055,116.9948273,-9.805800438,1.748468518,0.895311296,1.118423462,-2.20942831,-1.306708694,-33.849978,36.422345,3.66416,-7.578925,55.939167,-83.742792
385,2289781383,47.09132767,80.75082397,116.6433792,-9.741704941,1.784180403,0.885356247,1.601056576,-2.337389708,-1.369267941,-34.01234,36.452081,3.678916,-7.552241,55.900211,-83.765613
386,2289798050,46.78901672,80.74887085,116.3084793,-9.676506996,1.81032145,0.893582523,1.547282338,-2.375795841,-1.107928753,-34.173615,36.482253,3.693809,-7.526453,55.860614,-83.784078
387,2289814717,46.52522659,80.74594116,116.0224304,-9.655097961,1.81546545,0.849715889,0.97036916,-2.071119785,-0.759570241,-34.334533,36.512511,3.707971,-7.51028,55.826095,-83.796738
388,2289831384,46.29198837,80.74528503,115.7695389,-9.653389931,1.820626616,0.844740927,0.843983233,-1.749718666,-0.652445138,-34.495423,36.542855,3.72205,-7.496214,55.796933,-83.807612
389,2289848051,46.05737305,80.74874115,115.5146332,-9.652177811,1.813505292,0.849493384,0.882786512,-1.597092509,-0.856501341,-34.656293,36.57308,3.736208,-7.481501,55.770315,-83.821887
390,2289864718,45.81427002,80.75724792,115.2518997,-9.676689148,1.81476903,0.871778369,0.843278825,-1.439267039,-1.140827894,-34.817571,36.603326,3.750738,-7.467446,55.746327,-83.840901
391,2289881385,45.57559204,80.76328278,114.9901581,-9.62186718,1.828958392,0.858599782,1.054097176,-1.538145185,-1.033485293,-34.977935,36.633809,3.765048,-7.449878,55.720691,-83.858126
392,2289898052,45.40224075,80.76558685,114.7928162,-9.577306747,1.855499864,0.834256172,1.163239121,-1.254465222,-0.453171909,-35.137557,36.664734,3.778952,-7.430491,55.699783,-83.865679
393,2289914719,45.27830124,80.76447296,114.642868,-9.604437828,1.865473509,0.800481677,1.329081535,-1.079632998,0.002663721,-35.297631,36.695825,3.792293,-7.40834,55.681789,-83.865635
394,2289931386,45.15376663,80.76113892,114.4914398,-9.660701752,1.848991394,0.838253617,1.384257436,-1.19588244,0.078855097,-35.458643,36.726642,3.806264,-7.385269,55.661858,-83.864321
395,2289948053,45.03281021,80.75843811,114.3335724,-9.703228951,1.837155461,0.822857618,1.984222293,-1.224581718,0.000979686,-35.620363,36.757261,3.819978,-7.352199,55.641448,-83.864305
396,2289964720,44.93590927,80.75579834,114.194313,-9.650568008,1.874143124,0.81548357,2.331658363,-1.104790926,0.114008516,-35.781206,36.788497,3.833569,-7.313338,55.623035,-83.862405
397,2289981387,44.91586685,80.75576019,114.1365585,-9.560984612,1.86654985,0.823282957,2.119918585,-0.452947795,0.554431736,-35.940556,36.819606,3.84729,-7.278006,55.615486,-83.853164
398,2289998054,44.99027252,80.75907898,114.1834412,-9.537493706,1.88188374,0.830393136,1.595190763,0.390651286,1.119729638,-36.099514,36.850971,3.86113,-7.251419,55.621997,-83.834502
399,2290014721,45.11826324,80.76822662,114.2942963,-9.558437347,1.85298574,0.838714898,1.022990346,1.065404773,1.29607296,-36.258821,36.881854,3.875109,-7.234369,55.639754,-83.812901
400,2290031388,45.23719788,80.78514099,114.4052505,-9.641986847,1.859847546,0.878253639,0.48445785,1.383591771,0.953823447,-36.419521,36.912851,3.889747,-7.226295,55.662814,-83.797004
401,2290048055,45.32162857,80.80332947,114.4850388,-9.672062874,1.83504951,0.884481847,0.26244694,1.212460399,0.682034135,-36.580722,36.943435,3.904488,-7.221921,55.683022,-83.785637
402,2290064722,45.37796402,80.81851196,114.5306091,-9.703930855,1.838576794,0.870308876,0.604914248,0.841537118,0.572744727,-36.742454,36.974078,3.918993,-7.211839,55.697048,-83.776091
403,2290081389,45.42928696,80.82802582,114.5644836,-9.76070118,1.846203923,0.870972097,1.00456202,0.515039384,0.727010071,-36.905132,37.004848,3.933509,-7.195096,55.705632,-83.763974
404,2290098056,45.46607208,80.82926178,114.5741882,-9.795294762,1.832004666,0.918253064,1.56654954,-0.006780962,0.912926316,-37.068387,37.035381,3.948813,-7.168987,55.705519,-83.748759
405,2290114723,45.4968338,80.82759094,114.575058,-9.812600136,1.848416924,0.945223629,1.73269248,-0.198447168,0.972981513,-37.23193,37.066188,3.964567,-7.140109,55.702212,-83.732543
406,2290131390,45.49526215,80.81980133,114.5421829,-9.787746429,1.831120372,0.91527009,1.794816375,-0.694577992,1.004959106,-37.395059,37.096707,3.979822,-7.110195,55.690636,-83.715794
407,2290148057,45.47731781,80.81166077,114.5004425,-9.799724579,1.805502295,0.930853486,1.339576125,-0.775001824,0.951761484,-37.558388,37.126799,3.995336,-7.087869,55.677719,-83.699931
408,2290164724,45.43226624,80.80303192,114.4332123,-9.795284271,1.757112384,0.928077161,1.225778937,-0.9809919,0.799391448,-37.721643,37.156084,4.010804,-7.067439,55.661369,-83.686608
409,2290181391,45.37084961,80.7918396,114.347908,-9.742012024,1.703445435,0.884126425,1.318740129,-1.215476274,0.778465986,-37.88401,37.184475,4.025539,-7.04546,55.641111,-83.673634
410,2290198058,45.28848648,80.77968597,114.2373505,-9.716477394,1.675202489,0.883419275,1.561113238,-1.438050628,0.644690871,-38.045951,37.212395,4.040263,-7.019441,55.617143,-83.662889
411,2290214725,45.17884827,80.76847839,114.0949478,-9.725954056,1.653818607,0.876512349,1.815165639,-1.629736066,0.390997082,-38.20805,37.239959,4.054872,-6.989188,55.589981,-83.656372
412,2290231392,45.02414322,80.7609024,113.9103622,-9.694527626,1.641590118,0.864585817,1.613004565,-1.768736362,-0.060714908,-38.369625,37.267319,4.069282,-6.962305,55.560502,-83.657384
413,2290248059,44.84058762,80.7591629,113.6956253,-9.689397812,1.635711193,0.841378391,1.671465635,-1.734479308,-0.519105434,-38.531115,37.294581,4.083305,-6.934447,55.531594,-83.666036
414,2290264726,44.61479568,80.76094818,113.4363708,-9.714719772,1.665259719,0.8113814,1.780332208,-1.888257742,-0.982003629,-38.693027,37.322335,4.096828,-6.904775,55.500123,-83.682403
415,2290281393,44.3677597,80.76545715,113.1498032,-9.724103928,1.702808261,0.7919209,2.1300354,-1.95882082,-1.293338895,-38.855095,37.350715,4.110027,-6.869274,55.467476,-83.703959
416,2290298060,44.12696457,80.77167511,112.8636627,-9.686309814,1.713319063,0.768525124,2.486000299,-1.885017872,-1.370343328,-39.016533,37.37927,4.122836,-6.827841,55.436059,-83.726798
417,2290314727,43.93233871,80.78186035,112.6225128,-9.618082047,1.794739008,0.778662145,2.595149279,-1.418188095,-1.229896188,-39.176834,37.409182,4.135814,-6.784589,55.412423,-83.747296
418,2290331394,43.7822876,80.79790497,112.4332352,-9.598061562,1.828665972,0.785428703,2.205804348,-0.821482539,-1.121881127,-39.336802,37.43966,4.148904,-6.747826,55.398732,-83.765994
419,2290348061,43.67362595,80.81629181,112.2978058,-9.632891655,1.86276865,0.785330057,1.505616903,-0.369520813,-0.849643767,-39.49735,37.470706,4.161993,-6.722732,55.392573,-83.780155
420,2290364728,43.57510757,80.83535004,112.1783524,-9.650876999,1.875295997,0.789793968,1.173221707,-0.241578966,-0.769956172,-39.658198,37.501961,4.175156,-6.703178,55.388547,-83.792988
421,2290381395,43.48752594,80.85045624,112.0638351,-9.658317566,1.864903688,0.774422705,1.544580221,-0.388006806,-0.579999685,-39.81917,37.533043,4.188063,-6.677435,55.38208,-83.802655
422,2290398062,43.43550873,80.8620224,111.9758606,-9.680060387,1.90685463,0.766057968,2.111946344,-0.372888893,-0.26024425,-39.980504,37.564824,4.200831,-6.642236,55.375865,-83.806992
423,2290414729,43.42724609,80.86760712,111.9290237,-9.652555466,1.919919252,0.788841307,2.305354357,-0.379452139,0.266570568,-40.14138,37.596823,4.213978,-6.603813,55.369541,-83.802549
424,2290431396,43.47649765,80.86675262,111.9445801,-9.61605072,1.947392464,0.818080008,2.064518213,-0.263657153,0.959266007,-40.301648,37.62928,4.227613,-6.569404,55.365147,-83.786561
425,2290448063,43.59538269,80.86244965,112.0396271,-9.590963364,1.902618527,0.795844197,1.540072322,0.099422097,1.640128493,-40.461497,37.66099,4.240877,-6.543736,55.366804,-83.759226
426,2290464730,43.76353073,80.85540009,112.1927414,-9.599370003,1.869515061,0.789686263,1.058643341,0.352257848,2.150384665,-40.621487,37.692149,4.254038,-6.526092,55.372675,-83.723386
427,2290481397,43.94913864,80.84929657,112.3650436,-9.597381592,1.833432317,0.782739639,0.974877059,0.515718162,2.233305931,-40.781443,37.722706,4.267084,-6.509844,55.38127,-83.686164
428,2290498064,44.13162994,80.84380341,112.5337448,-9.629875183,1.836651444,0.835642457,1.00696981,0.514603972,2.173602581,-40.941941,37.753317,4.281011,-6.493061,55.389847,-83.649937
429,2290514731,44.29000092,80.83556366,112.6802444,-9.681933403,1.871187806,0.822958052,0.878739774,0.241841525,2.133262634,-41.103307,37.784503,4.294727,-6.478415,55.393878,-83.614383
430,2290531398,44.4352684,80.82244873,112.8189087,-9.773942947,1.888646603,0.837560892,0.561820924,-0.019516878,2.2729671,-41.266206,37.81598,4.308686,-6.469051,55.393553,-83.5765
431,2290548065,44.5567894,80.79899597,112.9336929,-9.80437088,1.831251621,0.814693332,0.555763602,-0.626781166,2.54072237,-41.429612,37.846501,4.322264,-6.459788,55.383107,-83.534155
432,2290564732,44.67993927,80.76502991,113.0351944,-9.818296432,1.782341838,0.81229496,1.447226286,-1.170730829,2.892512321,-41.59325,37.876207,4.335802,-6.435668,55.363595,-83.485946
433,2290581399,44.81052399,80.72447968,113.1324921,-9.756632805,1.763818026,0.864134252,2.145223379,-1.48083663,3.141147614,-41.755861,37.905604,4.350204,-6.399914,55.338914,-83.433594
434,2290598066,44.93769073,80.68215942,113.2236481,-9.756270409,1.738179684,0.857806981,2.30895257,-1.598590851,3.179272413,-41.918466,37.934574,4.364501,-6.361431,55.312271,-83.380606
435,2290614733,45.0213623,80.64414215,113.2833557,-9.760098457,1.740892172,0.88816607,1.564340472,-1.631874919,2.781853199,-42.081134,37.963589,4.379304,-6.335359,55.285073,-83.334242
436,2290631400,45.06427002,80.61003876,113.3104248,-9.778522491,1.671062708,0.836710334,1.054327607,-1.694574714,2.389722586,-42.244109,37.99144,4.393249,-6.317787,55.25683,-83.294413
437,2290648067,45.03419495,80.57702637,113.261055,-9.754756927,1.602736712,0.818419456,1.205160856,-2.182573795,1.809671879,-42.406688,38.018152,4.406889,-6.297701,55.220454,-83.264252
438,2290664734,44.96010208,80.55057526,113.1571121,-9.708964348,1.607097864,0.815956295,1.796686172,-2.300584078,1.155715466,-42.568504,38.044937,4.420488,-6.267756,55.182111,-83.24499
439,2290681401,44.82524109,80.52974701,112.9843063,-9.737737656,1.629672289,0.843225121,2.23233223,-2.548719645,0.427584797,-42.7308,38.072098,4.434542,-6.23055,55.139632,-83.237864
440,2290698068,44.64395142,80.51663971,112.7678223,-9.751253128,1.700364113,0.842664719,2.036075115,-2.53588748,-0.209460646,-42.893321,38.100437,4.448586,-6.196615,55.097367,-83.241355
441,2290714735,44.4055748,80.50785828,112.4995346,-9.778303146,1.707038999,0.815958917,1.682376504,-2.712653637,-0.772299707,-43.056293,38.128888,4.462185,-6.168575,55.052156,-83.254227
442,2290731402,44.15346146,80.5005722,112.2107925,-9.733539581,1.700282693,0.793598473,2.07147193,-2.799032927,-0.987510443,-43.218519,38.157226,4.475412,-6.13405,55.005505,-83.270686
443,2290748069,43.90014648,80.49267578,111.9129333,-9.724340439,1.757544875,0.804958522,2.543834448,-2.885386229,-1.048007846,-43.380591,38.186518,4.488828,-6.091653,54.957415,-83.288153
444,2290764736,43.66746902,80.4871521,111.6352615,-9.726933479,1.789955378,0.8011747,2.593574286,-2.653642416,-1.009703994,-43.542707,38.216351,4.502181,-6.048427,54.913188,-83.304981
445,2290781403,43.42804337,80.48101807,111.3522034,-9.757525444,1.830398679,0.827850759,2.511613607,-2.721797943,-1.038172603,-43.705332,38.246858,4.515979,-6.006567,54.867825,-83.322284
446,2290798070,43.18675995,80.47366333,111.0692596,-9.74206543,1.833922744,0.797170699,2.39439702,-2.775187254,-1.001968861,-43.8677,38.277423,4.529265,-5.96666,54.821572,-83.338983
447,2290814737,42.96284485,80.46743774,110.7971878,-9.70708847,1.833315969,0.778704762,2.800704241,-2.656306028,-0.985397577,-44.029485,38.307978,4.542243,-5.919982,54.7773,-83.355406
448,2290831404,42.7791748,80.46059418,110.5600586,-9.696657181,1.837311745,0.796572626,3.152264118,-2.453824997,-0.718436301,-44.191096,38.3386,4.555519,-5.867444,54.736403,-83.36738
449,2290848071,42.64883041,80.45187378,110.3740234,-9.648309708,1.82293272,0.77780062,3.336471081,-2.202180147,-0.278935134,-44.351901,38.368982,4.568482,-5.811836,54.6997,-83.372029
450,2290864738,42.53800201,80.4421463,110.2073822,-9.595687866,1.819941401,0.770637572,3.36232686,-2.125124454,-0.105652392,-44.511829,38.399314,4.581326,-5.755797,54.664281,-83.37379
451,2290881405,42.45136642,80.43764496,110.0688248,-9.578540802,1.819689989,0.74754411,3.160779953,-1.712926149,-0.122159779,-44.671471,38.429642,4.593785,-5.703117,54.635732,-83.375826
452,2290898072,42.36999512,80.44124603,109.9391632,-9.553397179,1.826540709,0.771152079,2.950499535,-1.309974432,-0.382717758,-44.830694,38.460084,4.606638,-5.653942,54.613899,-83.382205
453,2290914739,42.30573273,80.45185852,109.8314667,-9.564073563,1.839365125,0.758291543,2.686509371,-0.85890907,-0.512766242,-44.990095,38.49074,4.619276,-5.609167,54.599584,-83.390751
454,2290931406,42.2699585,80.46797943,109.7544632,-9.595526695,1.864532709,0.730999887,2.584378958,-0.417922407,-0.514136493,-45.15002,38.521816,4.631459,-5.566094,54.592619,-83.39932
455,2290948073,42.2844696,80.4850235,109.7325974,-9.565152168,1.906919241,0.771281004,2.349497557,-0.015918292,-0.154354945,-45.309439,38.553598,4.644314,-5.526936,54.592354,-83.401893
456,2290964740,42.36380005,80.50325775,109.7781296,-9.550842285,1.922493577,0.778362036,2.255179167,0.474609733,0.286446065,-45.46862,38.58564,4.657287,-5.48935,54.600264,-83.397119
457,2290981407,42.480793,80.52365112,109.8652649,-9.5858078,1.941280484,0.825026929,2.055195093,0.8329826,0.497942954,-45.628383,38.617995,4.671037,-5.455097,54.614147,-83.38882
458,2290998074,42.61178589,80.54199982,109.9738159,-9.668578148,1.972013116,0.852732062,1.631906509,0.877676666,0.724730492,-45.789526,38.650862,4.685249,-5.427899,54.628775,-83.376741
459,2291014741,42.73937607,80.55548096,110.083992,-9.740063667,1.970538735,0.892528594,1.335491061,0.666935563,0.921141624,-45.95186,38.683704,4.700124,-5.405641,54.639891,-83.361389
460,2291031408,42.85486984,80.55812836,110.1795197,-9.801939964,1.96230197,0.916382551,1.481649637,0.084720396,1.247383118,-46.115226,38.716409,4.715397,-5.380947,54.641303,-83.340599
461,2291048075,42.98345184,80.54837036,110.280098,-9.779874802,1.910811663,0.909390152,1.966869712,-0.432957113,1.787427187,-46.278224,38.748256,4.730554,-5.348166,54.634087,-83.310809
462,2291064742,43.12501526,80.52613831,110.3864441,-9.722254753,1.864938736,0.936381698,2.410654545,-0.936560452,2.327784538,-46.440262,38.779338,4.74616,-5.307988,54.618478,-83.272013
463,2291081409,43.26993561,80.49868774,110.4983597,-9.693590164,1.853876591,0.961183429,2.282085419,-1.131505013,2.588835955,-46.601822,38.810236,4.76218,-5.269953,54.59962,-83.228866
464,2291098076,43.36038589,80.4695816,110.5671844,-9.721948624,1.813115954,0.944351852,1.567414045,-1.484486461,2.333694696,-46.763854,38.840455,4.777919,-5.243829,54.574879,-83.189971
465,2291114743,43.36601639,80.44161224,110.5604019,-9.74385643,1.764414907,0.922350645,0.951069891,-1.963840961,1.753310919,-46.926252,38.869862,4.793292,-5.227978,54.542148,-83.160749
466,2291131410,43.30362701,80.41679382,110.486618,-9.723653793,1.701938629,0.900936306,0.838194788,-2.283269405,1.127579927,-47.088313,38.898228,4.808308,-5.214008,54.504094,-83.141956
467,2291148077,43.19950867,80.39431763,110.3662338,-9.676774979,1.678417444,0.884462595,1.091555715,-2.508853674,0.687540948,-47.249593,38.926202,4.823049,-5.195815,54.46228,-83.130497
468,2291164744,43.07065201,80.37496185,110.217247,-9.686656952,1.658735514,0.835969865,1.301490068,-2.574537277,0.345124751,-47.411037,38.953848,4.836982,-5.174123,54.419371,-83.124745
469,2291181411,42.92282104,80.36328125,110.0486069,-9.667751312,1.706345201,0.812571585,1.331488848,-2.382070303,-0.119175889,-47.572166,38.982287,4.850525,-5.151932,54.37967,-83.126731
470,2291198078,42.74877548,80.36126709,109.8587418,-9.686086655,1.72973001,0.805141687,1.018597722,-2.104544401,-0.682386398,-47.733601,39.011116,4.863944,-5.134955,54.344594,-83.138104
471,2291214745,42.56184769,80.37447357,109.6677475,-9.669968605,1.736779928,0.792426825,0.314568728,-1.444338441,-1.313073277,-47.894767,39.040062,4.877151,-5.129712,54.320522,-83.159989
472,2291231412,42.38208008,80.39860535,109.4915161,-9.680767059,1.788622856,0.790273368,-0.120328456,-0.861828804,-1.646217704,-48.056113,39.069872,4.890322,-5.131717,54.306158,-83.187426
473,2291248079,42.22826004,80.42901611,109.3457336,-9.683655739,1.795758009,0.762595713,-0.361203104,-0.377262294,-1.673008919,-48.217507,39.099801,4.903032,-5.137737,54.29987,-83.215309
474,2291264746,42.11569214,80.46154022,109.243515,-9.700870514,1.821498871,0.790484786,-0.453908294,0.01324817,-1.443160415,-48.379188,39.130159,4.916207,-5.145302,54.300091,-83.239362
475,2291281413,42.01906967,80.49378967,109.1539307,-9.719279289,1.825801969,0.742914557,-0.241361246,0.078150742,-1.33342278,-48.541176,39.160589,4.928589,-5.149325,54.301394,-83.261586
476,2291298080,41.937397,80.52684784,109.0736465,-9.691742897,1.851046681,0.726687551,0.114866562,0.176874906,-1.302969217,-48.702705,39.19144,4.9407,-5.147411,54.304342,-83.283302
477,2291314747,41.87810898,80.56127167,109.0170593,-9.674921989,1.841610432,0.764403582,0.061553724,0.386873424,-1.184292793,-48.863954,39.222134,4.95344,-5.146385,54.31079,-83.30304
478,2291331414,41.84099579,80.5953598,108.987442,-9.601250648,1.864325047,0.75199008,-0.199945539,0.542316854,-0.973513067,-49.023975,39.253206,4.965973,-5.149717,54.319829,-83.319265
479,2291348081,41.85598755,80.62910461,109.0159531,-9.556990623,1.863234282,0.744120657,-0.508463383,0.898871362,-0.539326668,-49.183258,39.28426,4.978375,-5.158191,54.33481,-83.328254
480,2291364748,41.8954277,80.66495514,109.0751266,-9.60224247,1.873366952,0.759793758,-0.851776004,1.185042024,-0.408983588,-49.343295,39.315483,4.991038,-5.172387,54.354561,-83.33507
481,2291381415,41.92681503,80.69851685,109.1302032,-9.643381119,1.894950628,0.805139244,-1.085812092,1.045811415,-0.356106162,-49.504018,39.347066,5.004457,-5.190484,54.371991,-83.341005
482,2291398082,41.94248581,80.72771454,109.1696777,-9.658162117,1.898481011,0.781940103,-1.10120523,0.745054185,-0.303318381,-49.664987,39.378707,5.017489,-5.208837,54.384409,-83.34606
483,2291414749,41.98738861,80.74602509,109.2347031,-9.642622948,1.935631394,0.803946257,-0.854049027,0.415566027,0.312974364,-49.825697,39.410968,5.030888,-5.223071,54.391335,-83.340844
484,2291431416,42.08024216,80.75201416,109.3448105,-9.678076744,1.951570153,0.804291189,-0.647745192,0.153247193,1.118602633,-49.986998,39.443494,5.044293,-5.233867,54.393889,-83.322201
485,2291448083,42.21713638,80.7469635,109.5027008,-9.71320343,1.965764046,0.838734627,-0.831093669,-0.035550423,1.900532603,-50.148885,39.476257,5.058272,-5.247719,54.393296,-83.290525
486,2291464750,42.38370514,80.72885895,109.6898193,-9.757413864,1.919147372,0.845245838,-0.778536439,-0.424325556,2.629124165,-50.311509,39.508243,5.072359,-5.260695,54.386224,-83.246706
487,2291481417,42.57486343,80.69874573,109.9016342,-9.738940239,1.908605576,0.856795132,-0.759301245,-0.788141131,3.286858559,-50.473825,39.540053,5.086639,-5.27335,54.373088,-83.191925
488,2291498084,42.77515411,80.66015625,110.1242371,-9.733306885,1.842803359,0.877191484,-0.851904154,-1.079024792,3.708200693,-50.636047,39.570766,5.101259,-5.287548,54.355104,-83.130122
489,2291514751,42.98358917,80.61156464,110.3537827,-9.736692429,1.777477503,0.861421943,-0.77058363,-1.462920427,4.175759792,-50.798325,39.600391,5.115616,-5.300391,54.330722,-83.060526
490,2291531418,43.17723465,80.55580902,110.5593872,-9.693095207,1.682769895,0.839740992,-0.236123487,-1.914984822,4.300750256,-50.959877,39.628437,5.129612,-5.304326,54.298806,-82.988847
491,2291548085,43.33878708,80.49845886,110.720192,-9.689569473,1.628970981,0.797650695,0.494997531,-2.275330067,4.058031559,-51.12137,39.655587,5.142906,-5.296076,54.260884,-82.921213
492,2291564752,43.43553925,80.4439621,110.8089523,-9.620125771,1.629719615,0.811373711,0.873681247,-2.632114887,3.428138018,-51.281705,39.682749,5.156429,-5.281515,54.217015,-82.864077
493,2291581419,43.50455856,80.40458679,110.8778687,-9.591869354,1.637289405,0.78895551,0.383991987,-2.10887289,2.66733861,-51.441569,39.710037,5.169578,-5.275115,54.181867,-82.819621
494,2291598086,43.53883743,80.37773895,110.9172821,-9.639053345,1.69075942,0.788753092,0.052320346,-1.76584208,1.934533715,-51.60222,39.738216,5.182724,-5.274243,54.152436,-82.787379
495,2291614753,43.55718994,80.36030579,110.9482727,-9.69849968,1.709538579,0.772672296,-0.404847145,-1.423310637,1.489730716,-51.763862,39.766708,5.195602,-5.28099,54.128714,-82.76255
496,2291631420,43.5569725,80.3470993,110.9604568,-9.73901844,1.753147602,0.776173651,-0.397931695,-1.368985891,1.168355227,-51.926179,39.795927,5.208538,-5.287622,54.105898,-82.743077
497,2291648087,43.56432343,80.33405304,110.9751358,-9.752528191,1.78426826,0.764085054,-0.092474647,-1.356768608,1.184747219,-52.088721,39.825665,5.221273,-5.289163,54.083285,-82.723331
498,2291664754,43.59509277,80.31803894,111.0063705,-9.70259285,1.809322596,0.76356411,0.335904121,-1.374057293,1.425711632,-52.250431,39.85582,5.233999,-5.283565,54.060384,-82.699569
499,2291681421,43.62629318,80.30117798,111.0367508,-9.679439545,1.829749465,0.76453048,0.422846437,-1.425384998,1.451836586,-52.411755,39.886316,5.246741,-5.276518,54.036628,-82.675372
500,2291698088,43.63959122,80.28608704,111.0487671,-9.682634354,1.846379638,0.760872424,0.434756309,-1.477558136,1.240198731,-52.573132,39.917089,5.259422,-5.269272,54.012002,-82.654702
501,2291714755,43.6291275,80.27171326,111.0344543,-9.68234539,1.845468163,0.779123306,0.566341579,-1.639699221,1.018648982,-52.734504,39.947847,5.272407,-5.259833,53.984674,-82.637725
502,2291731422,43.60006714,80.25886536,110.9951248,-9.63704586,1.881422758,0.777220488,0.938148379,-1.758427024,0.768579483,-52.895121,39.979204,5.285361,-5.244197,53.955367,-82.624915
503,2291748089,43.59250259,80.25150299,110.9762268,-9.591046333,1.95950532,0.796705008,1.023220897,-1.379768848,0.684505761,-53.054972,40.011862,5.298639,-5.227143,53.932371,-82.613507
504,2291764756,43.63273621,80.24703979,111.0146561,-9.641073227,2.02017808,0.809491634,0.502169013,-0.8531847,0.980639815,-53.215657,40.045532,5.312131,-5.218774,53.918151,-82.597163
505,2291781423,43.72129822,80.24526978,111.1103745,-9.620631218,2.033933878,0.847882092,0.026502743,-0.344029814,1.2824471,-53.376001,40.079431,5.326262,-5.218332,53.912417,-82.575789
506,2291798090,43.87087631,80.24849701,111.2827454,-9.62402153,2.102279902,0.864803493,-0.849701285,0.410795689,1.633507371,-53.536401,40.114469,5.340675,-5.232494,53.919264,-82.548564
507,2291814757,44.06123352,80.25367737,111.500885,-9.672322273,2.064062357,0.905222833,-1.107313871,0.814157307,1.879235864,-53.697606,40.14887,5.355762,-5.250949,53.932833,-82.517243
508,2291831424,44.29475784,80.26249695,111.7624359,-9.64896965,2.123995781,0.932379603,-1.084941149,1.28006494,2.031669378,-53.858422,40.18427,5.371302,-5.269031,53.954167,-82.483382
509,2291848091,44.54373169,80.27578735,112.0490112,-9.518909454,2.100926876,0.8927176,-1.629287839,1.658697724,1.996964574,-54.01707,40.219285,5.386181,-5.296186,53.981812,-82.450099
510,2291864758,44.83805847,80.30171204,112.3887939,-9.417581558,2.115096807,0.852431893,-2.060989857,2.571815968,1.834324002,-54.17403,40.254537,5.400388,-5.330536,54.024676,-82.419527
511,2291881425,45.18598938,80.34534454,112.7966766,-9.367132187,2.171536922,0.848000944,-2.875742435,3.811547518,1.527637362,-54.330149,40.290729,5.414521,-5.378465,54.088202,-82.394066
512,2291898092,45.59158707,80.41663361,113.2886047,-9.423841476,2.269677401,0.870092928,-4.384113789,5.563508034,0.884976447,-54.487213,40.328557,5.429023,-5.451534,54.180927,-82.379316
513,2291914759,46.022686,80.51365662,113.8396912,-9.43652916,2.375029087,0.954100907,-6.360889912,7.033934593,0.102047421,-54.644488,40.368141,5.444925,-5.557549,54.298159,-82.377615
514,2291931426,46.50557709,80.62319183,114.4705963,-9.583918571,2.526619196,0.99564755,-7.982009411,8.074566841,-0.010667694,-54.80422,40.410251,5.461519,-5.690582,54.432735,-82.377793
515,2291948093,47.0218277,80.71685791,115.1476212,-9.775740623,2.59926796,1.047539473,-8.708039284,7.697881222,0.850630224,-54.967149,40.453572,5.478978,-5.835716,54.561033,-82.363616
516,2291964760,47.5532341,80.77627563,115.8295975,-9.889166832,2.623289108,1.077208281,-8.114068031,6.312963009,2.267217875,-55.131968,40.497293,5.496931,-5.97095,54.666249,-82.325829
517,2291981427,48.06223297,80.7954483,116.4683456,-9.97576046,2.650446653,1.086834192,-6.875359058,4.373772621,3.678400993,-55.298231,40.541467,5.515045,-6.085539,54.739145,-82.264522
518,2291998094,48.4728508,80.78138733,116.9955444,-10.06139183,2.675638199,1.125262737,-6.190667152,2.287297726,4.394595623,-55.465921,40.586061,5.533799,-6.188717,54.777267,-82.191279
519,2292014761,48.725914,80.7349472,117.3642197,-10.04377079,2.679669619,1.149179578,-6.26974678,-0.095343292,4.82269907,-55.633317,40.630722,5.552952,-6.293213,54.775678,-82.110901
520,2292031428,48.83316803,80.65224457,117.5883636,-9.949947357,2.627918005,1.12913096,-6.52387619,-2.522480011,5.550484657,-55.799149,40.674521,5.571771,-6.401944,54.733637,-82.018393
521,2292048095,48.86354828,80.52864838,117.7334595,-9.75195694,2.544041872,1.03441751,-6.348659992,-4.735251904,6.879707813,-55.961682,40.716922,5.589011,-6.507755,54.654716,-81.903731
522,2292064762,48.89591599,80.36503601,117.8605881,-9.520767212,2.452889919,0.989129066,-5.474550724,-6.295669079,8.618402481,-56.120361,40.757803,5.605496,-6.598998,54.549788,-81.760091
523,2292081429,48.95425034,80.16777039,118.012352,-9.439012527,2.431088686,0.996861935,-5.140395164,-7.506868839,10.28419018,-56.277678,40.798321,5.62211,-6.684671,54.424674,-81.588688
524,2292098096,48.98572922,79.94480133,118.1343536,-9.455421448,2.399059772,0.979673982,-5.560213566,-8.489360809,11.35942554,-56.435268,40.838305,5.638438,-6.777341,54.283185,-81.399364
525,2292114763,48.98360825,79.70799255,118.2536926,-9.560482025,2.329977989,1.002272725,-6.506553173,-9.387766838,11.81453991,-56.594609,40.877138,5.655143,-6.885784,54.126722,-81.202455
526,2292131430,48.87788773,79.45463562,118.245163,-9.740055084,2.27474165,1.01624465,-6.931303024,-10.3672123,11.98057652,-56.756943,40.91505,5.67208,-7.001306,53.953935,-81.002779
527,2292148097,48.76179886,79.18668365,118.2532654,-9.788362503,2.164879084,1.053003907,-6.263964653,-11.75072289,12.3178587,-56.920082,40.951131,5.68963,-7.105705,53.75809,-80.797481
528,2292164764,48.61756134,78.890625,118.1947861,-9.792532921,2.08535862,1.111447573,-4.900368214,-13.10188389,13.21494484,-57.083291,40.985887,5.708154,-7.187378,53.539725,-80.577232
529,2292181431,48.50691605,78.56609344,118.1441879,-9.744362831,2.028768063,1.176897883,-3.264535189,-14.24380684,14.50134754,-57.245697,41.0197,5.727769,-7.241787,53.302328,-80.335543
530,2292198098,48.44775009,78.22170258,118.1156387,-9.765197754,1.971007705,1.318382263,-2.17354846,-14.57565975,15.6713028,-57.40845,41.05255,5.749742,-7.278013,53.0594,-80.074355
531,2292214765,48.40348816,77.88582611,118.1033325,-9.824636459,1.895931125,1.452351451,-1.824113727,-14.27921677,15.33386707,-57.572194,41.084149,5.773948,-7.308415,52.821413,-79.818791
532,2292231432,48.32328796,77.58348083,118.0457382,-9.838587761,1.781934381,1.572427869,-1.801087141,-13.18448639,13.52181244,-57.73617,41.113848,5.800155,-7.338433,52.601672,-79.593427
533,2292248099,48.20326233,77.32749939,117.9257736,-9.684430122,1.725051403,1.652534008,-0.421623796,-12.01666832,10.85801983,-57.897577,41.142599,5.827697,-7.34546,52.401394,-79.41246
534,2292264766,48.19413376,77.11115265,117.8423615,-9.551677704,1.989554167,1.894507885,4.377233028,-10.22831059,9.318208694,-58.056772,41.175758,5.859272,-7.272506,52.230922,-79.257157
535,2292281433,48.34162903,76.91191864,117.8573456,-9.58788681,2.475383282,2.155289412,8.3153162,-8.680368423,9.369470596,-58.21657,41.217014,5.895193,-7.133917,52.086249,-79.100999
536,2292298100,48.47160721,76.73418427,117.9207458,-9.585959435,3.032175303,2.538513899,4.326069832,-7.246334553,8.893046379,-58.376336,41.26755,5.937502,-7.061816,51.965477,-78.952782
537,2292314767,48.48635483,76.59050751,118.0942459,-9.424118042,3.028655291,2.636004448,-9.005788803,-4.714622021,8.377989769,-58.533405,41.318028,5.981435,-7.211912,51.8869,-78.813149
538,2292331434,48.43229675,76.49795532,118.4166336,-9.269085884,2.840373039,2.407300711,-21.65148926,-1.154456139,7.423233032,-58.68789,41.365368,6.021557,-7.57277,51.867659,-78.689428
539,2292348101,48.36763,76.44519043,118.9053192,-8.982383728,2.550881386,2.133779526,-32.08391953,2.258324862,7.216975212,-58.837596,41.407883,6.05712,-8.107502,51.905298,-78.569145
540,2292364768,48.34463882,76.42737579,119.5693741,-8.787855148,2.287283421,1.913568854,-39.91868973,5.583146572,7.320466042,-58.98406,41.446004,6.089013,-8.772813,51.99835,-78.447137
541,2292381435,48.34515381,76.4422226,120.3560791,-8.670166969,2.025006533,1.698310494,-45.57568741,8.164078712,6.979763508,-59.128563,41.479754,6.117318,-9.532408,52.134418,-78.330808
542,2292398102,48.44028091,76.49578094,121.2549667,-8.525472641,1.674677849,1.424549103,-46.5674057,10.94385242,6.293315887,-59.270654,41.507665,6.14106,-10.308531,52.316816,-78.225919
543,2292414769,48.67244339,76.58982086,122.2110977,-8.472658157,1.467752695,1.197430849,-41.64955521,13.1165905,4.914079666,-59.411865,41.532128,6.161017,-11.00269,52.535426,-78.144018
544,2292431436,49.06413651,76.7109375,123.203476,-8.488012314,1.683668494,1.23932898,-34.26609421,14.54145908,3.899841309,-59.553332,41.560189,6.181672,-11.573792,52.777784,-78.079021
545,2292448103,49.50289917,76.83811188,124.224617,-8.559207916,2.160655737,1.511667371,-33.13111496,15.01866913,3.682271481,-59.695985,41.5962,6.206866,-12.125977,53.028095,-78.01765
546,2292464770,49.91688156,76.9804306,125.2752991,-8.643988609,2.490259171,1.550013661,-36.39637756,15.85325527,3.051315784,-59.840051,41.637704,6.2327,-12.732583,53.292316,-77.966795
547,2292481437,50.28808212,77.13853455,126.3907928,-8.626466751,2.575571775,1.427994728,-42.77489853,17.03569221,2.657190084,-59.983825,41.68063,6.2565,-13.445498,53.576244,-77.922508
548,2292498104,50.73939133,77.29217529,127.6563568,-8.444817543,2.539471865,1.339374065,-46.78260422,18.29840851,3.887562275,-60.124572,41.722955,6.278823,-14.225208,53.881217,-77.857715
549,2292514771,51.42808533,77.42823792,129.1933746,-8.262767792,2.573955059,1.258731484,-48.47419739,20.32023239,6.628061295,-60.262285,41.765854,6.299802,-15.033111,54.219888,-77.747247
550,2292531438,52.43894577,77.53992462,131.080658,-8.169681549,2.620896578,1.209254026,-49.69052505,22.94960594,10.15608883,-60.398446,41.809536,6.319956,-15.861286,54.602381,-77.577979
551,2292548105,53.7915535,77.62722015,133.3560944,-8.250623703,2.680177212,1.175502181,-51.9671402,26.13889885,13.72134781,-60.535956,41.854206,6.339548,-16.727405,55.038029,-77.34929
552,2292564772,55.42734528,77.69855499,135.9464417,-8.465359688,2.536472797,1.017060161,-53.46548843,29.08378601,16.01838684,-60.677045,41.896481,6.356499,-17.618496,55.522759,-77.082317
553,2292581439,57.27997589,77.78116608,138.7534637,-9.015454292,2.52208662,0.910245359,-53.18909073,32.06123352,15.96319866,-60.827303,41.938516,6.37167,-18.504981,56.057113,-76.816264
554,2292598106,59.10930634,77.90263367,141.5724182,-9.854949951,2.772821903,0.97330457,-55.33763504,33.66509247,12.8523035,-60.991552,41.98473,6.387892,-19.427275,56.618198,-76.602059
555,2292614773,60.65557098,78.0700531,144.1966095,-10.52630997,2.913058996,0.897910595,-60.96337509,32.95293427,8.018839836,-61.16699,42.033281,6.402857,-20.443331,57.167414,-76.468412
556,2292631440,61.82769775,78.23057556,146.5264282,-10.66601849,3.064109325,0.970885336,-66.2002182,29.37423325,5.627836227,-61.344757,42.084349,6.419038,-21.546668,57.656985,-76.374615
557,2292648107,62.4540062,78.32514954,148.3802948,-10.8043499,2.667262316,0.852816164,-71.04244995,22.22698975,5.789256096,-61.524829,42.128803,6.433252,-22.730709,58.027435,-76.278127
558,2292664774,62.97655869,78.30312347,149.9157867,-10.63312149,2.004383087,-0.02323777,-58.56329346,15.58844852,9.971624374,-61.702048,42.162209,6.432865,-23.706764,58.287242,-76.111933
559,2292681441,63.29710388,78.21585083,150.9844666,-11.00146866,1.979635119,-0.139790088,-43.22902679,8.875946045,10.81504631,-61.885406,42.195203,6.430535,-24.427248,58.435174,-75.931682
560,2292698108,63.36480713,78.08170319,151.5882874,-11.23519325,2.135796547,-0.223948359,-31.06414795,2.624844313,10.78290558,-62.072659,42.2308,6.426803,-24.944984,58.478921,-75.751967
561,2292714775,63.1191864,77.96009064,151.7480927,-11.05670452,2.302536964,-0.019351164,-23.76951027,-1.942151308,7.66996336,-62.256937,42.269176,6.42648,-25.341143,58.446552,-75.624134
562,2292731442,62.617939,77.86651611,151.6338959,-10.71192646,2.309660912,-0.024317859,-23.02007294,-4.285102844,4.594844341,-62.435469,42.30767,6.426075,-25.724811,58.375134,-75.547553
563,2292748109,62.04213333,77.79989624,151.4437714,-10.27388096,2.268663883,-0.246599793,-23.03109741,-4.450893879,2.675680637,-62.6067,42.345481,6.421965,-26.108663,58.300952,-75.502958
564,2292764776,61.46426392,77.75686646,151.2765961,-9.926492691,2.267707825,-0.433860451,-24.49015808,-3.579497576,1.518112659,-62.772142,42.383276,6.414734,-26.516832,58.241294,-75.477656
565,2292781443,60.92202377,77.7445755,151.1429138,-9.718169212,2.156291246,-0.58783114,-24.30198097,-2.357205391,0.067611255,-62.934111,42.419214,6.404937,-26.921865,58.202007,-75.476529
566,2292798110,60.429245,77.78111267,151.0351715,-9.657517433,2.138848305,-0.566530585,-22.83905411,-0.658695757,-2.346114397,-63.09507,42.454861,6.395495,-27.302516,58.191029,-75.515631
567,2292814777,59.90712357,77.8748703,150.8666992,-9.587220192,2.186267138,-0.524107993,-21.01482964,0.384261549,-5.707607746,-63.254857,42.491299,6.38676,-27.652763,58.197433,-75.610758
568,2292831444,59.33699417,78.03099823,150.629425,-9.499835014,2.343006134,-0.494417816,-19.8348484,1.58140099,-9.351403236,-63.413188,42.530349,6.37852,-27.983344,58.22379,-75.766615
569,2292848111,58.69656372,78.23625183,150.319809,-9.651309013,2.52970767,-0.466095239,-19.77574158,2.450006247,-12.30811501,-63.574043,42.572511,6.370752,-28.31294,58.264623,-75.97175
570,2292864778,57.98023987,78.47672272,149.9255524,-9.799002647,2.629198313,-0.455788463,-19.32019997,2.867033958,-14.57790661,-63.73736,42.616331,6.363156,-28.634943,58.312407,-76.214715
571,2292881445,57.24106598,78.73345184,149.4832458,-9.879714012,2.699435949,-0.401956022,-17.82135391,3.155843496,-15.62252235,-63.902022,42.661322,6.356457,-28.931966,58.365004,-76.47509
572,2292898112,56.59263611,78.98792267,149.0872498,-9.707683563,2.675922632,-0.394970149,-15.05687237,3.795199871,-15.11914825,-64.063817,42.705921,6.349874,-29.182914,58.428257,-76.727076
573,2292914779,56.21386337,79.2341156,148.9043884,-9.52923584,2.712335825,-0.306110322,-11.38926315,5.726577282,-13.28229904,-64.222638,42.751127,6.344772,-29.372735,58.5237,-76.948448
574,2292931446,56.1989212,79.47428894,149.0680389,-9.43548584,2.83160615,-0.179148674,-9.962620735,8.78004837,-10.81736946,-64.379896,42.79832,6.341786,-29.538779,58.670034,-77.128737
575,2292948113,56.53371048,79.70589447,149.6033783,-9.336424828,2.901889801,0.069550507,-10.89393711,11.75964165,-8.215525627,-64.535503,42.846685,6.342945,-29.720345,58.866028,-77.265662
576,2292964780,57.20872498,79.92350769,150.5245972,-9.410018921,2.856272221,0.235874787,-13.26797104,14.5369873,-5.471942902,-64.692337,42.89429,6.346876,-29.941478,59.108311,-77.356861
577,2292981447,58.05636978,80.11678314,151.6549225,-9.558342934,2.745090961,0.32261464,-15.28024483,15.33481789,-3.388476849,-64.851643,42.940042,6.352253,-30.196149,59.363891,-77.413336
578,2292998114,58.92656326,80.28335571,152.8135681,-9.69230938,2.557347536,0.355465323,-15.6251421,14.50505257,-2.238194942,-65.013181,42.982664,6.358177,-30.456568,59.605642,-77.450639
579,2293014781,59.69717789,80.42861938,153.8308868,-9.792396545,2.426216841,0.426748514,-13.25384617,12.42548561,-2.178939104,-65.176388,43.023101,6.365289,-30.677465,59.812733,-77.486955
580,2293031448,60.29468918,80.55152893,154.603653,-9.730051041,2.338112116,0.460333347,-9.181972504,9.502164841,-2.467266798,-65.338556,43.06207,6.372961,-30.830498,59.971102,-77.528076
581,2293048115,60.75292206,80.65279388,155.1645508,-9.577144623,2.241734505,0.502983034,-5.005504131,6.949066162,-2.498275995,-65.498175,43.099432,6.381344,-30.913923,60.08692,-77.569714
582,2293064782,61.13154602,80.72405243,155.5892029,-9.429818153,2.210137844,0.593482316,-1.712337255,4.84881115,-1.644412279,-65.655339,43.136268,6.391235,-30.942462,60.167734,-77.597121
583,2293081449,61.4978981,80.76877594,155.9743805,-9.334483147,2.25962162,0.637539089,-0.117651947,3.716767788,-0.484681964,-65.810914,43.173928,6.401861,-30.944423,60.22968,-77.605199
584,2293098116,61.8706665,80.79820251,156.3746643,-9.330195427,2.270002365,0.649138391,-0.623925328,3.387349844,0.358366489,-65.966417,43.211761,6.41268,-30.954822,60.286136,-77.599226
585,2293114783,62.23458862,80.82289886,156.7796173,-9.358938217,2.218898058,0.646277189,-1.425410867,3.283759594,0.598908186,-66.122399,43.248743,6.423451,-30.978579,60.340865,-77.589244
586,2293131450,62.54310608,80.8507843,157.1322937,-9.463277817,2.157897234,0.631507158,-1.662609816,2.92662859,0.155680388,-66.28012,43.284708,6.433976,-31.006289,60.389642,-77.586649
587,2293148117,62.79380417,80.87833405,157.4165802,-9.539642334,2.137667656,0.627047181,-1.075887084,2.323987484,-0.138564706,-66.439114,43.320336,6.444427,-31.02422,60.428375,-77.588958
588,2293164784,63.00383759,80.90048218,157.6479797,-9.607718468,2.190547228,0.615464032,-0.381770074,1.720795512,-0.092551485,-66.599243,43.356845,6.454685,-31.030583,60.457055,-77.590501
589,2293181451,63.15587616,80.91256714,157.8166809,-9.692403793,2.204810381,0.585119545,-0.147337049,0.909603,0.168473944,-66.760783,43.393592,6.464437,-31.033039,60.472215,-77.587693
590,2293198118,63.24884415,80.91833496,157.9148407,-9.757016182,2.160826683,0.550696611,0.490963399,0.141554967,0.196891204,-66.9234,43.429606,6.473615,-31.024856,60.474574,-77.584411
591,2293214785,63.28858185,80.91926575,157.9443207,-9.769845963,2.14107275,0.517115474,1.367122531,-0.576042354,0.167116448,-67.086231,43.465291,6.482234,-31.002071,60.464973,-77.581626
592,2293231452,63.2870636,80.91991425,157.9149017,-9.720269203,2.148621321,0.484970689,2.377902269,-1.083481193,-0.071689941,-67.248235,43.501101,6.490317,-30.962439,60.446915,-77.582821
593,2293248119,63.27145004,80.92184448,157.8635254,-9.731217384,2.184295416,0.484653145,2.840723991,-1.240512848,-0.229412988,-67.410422,43.537506,6.498395,-30.915094,60.42624,-77.586645
594,2293264786,63.25134277,80.9256134,157.8134918,-9.704971313,2.21566081,0.443782687,2.491379499,-1.185227752,-0.321797997,-67.572172,43.574434,6.505791,-30.873571,60.406486,-77.592008
595,2293281453,63.258358,80.93200684,157.7985992,-9.630955696,2.197281122,0.430542439,2.036126375,-0.820682168,-0.318109751,-67.732688,43.611055,6.512967,-30.839636,60.392808,-77.59731
596,2293298120,63.2980957,80.93913269,157.8188782,-9.640396118,2.174284935,0.474848688,1.920638323,-0.510153711,-0.2047351,-67.893361,43.647293,6.520881,-30.807625,60.384305,-77.600722
597,2293314787,63.34628296,80.95278168,157.8453674,-9.67333889,2.180211306,0.506967962,2.061828852,-0.288334966,-0.52836442,-68.054583,43.68363,6.52933,-30.773261,60.379499,-77.609528
598,2293331454,63.36419678,80.97071838,157.8438873,-9.719104767,2.215965033,0.529827476,1.904694915,-0.413850039,-0.873598039,-68.216568,43.720563,6.53816,-30.741516,60.372601,-77.624088
599,2293348121,63.36413574,80.98816681,157.822464,-9.729474068,2.216740131,0.584043145,2.005762577,-0.595328748,-0.939127982,-68.378726,43.757509,6.547894,-30.708087,60.362679,-77.63974
600,2293364788,63.34574509,81.00077057,157.7828674,-9.722570419,2.241709709,0.599158823,1.985477328,-0.882690549,-0.748262286,-68.540769,43.794871,6.55788,-30.674996,60.347967,-77.652211
601,2293381455,63.31734467,81.00136566,157.7335052,-9.667192459,2.242041111,0.619223952,1.966267824,-1.290841579,-0.147004098,-68.701889,43.832238,6.5682,-30.642225,60.326453,-77.654661
602,2293398122,63.28754425,80.99047852,157.6803894,-9.633331299,2.204893351,0.631115794,2.104115248,-1.631464839,0.449406862,-68.862445,43.868986,6.578719,-30.607156,60.299262,-77.647171
603,2293414789,63.24042892,80.97195435,157.6039429,-9.66061306,2.204724789,0.632186055,2.448913574,-2.038066387,0.760460258,-69.023455,43.905731,6.589255,-30.566341,60.265294,-77.634497
604,2293431456,63.12932205,80.94561768,157.4546356,-9.668714523,2.172281027,0.618768513,2.926615715,-2.868519783,0.869058073,-69.1846,43.941936,6.599568,-30.517564,60.217485,-77.620013
605,2293448123,62.94190216,80.9168396,157.2180023,-9.638634682,2.160983324,0.612992465,3.516105175,-3.675320148,0.609755158,-69.345244,43.977952,6.609785,-30.458962,60.15623,-77.60985
606,2293464790,62.7247963,80.88583374,156.9463654,-9.564749718,2.171927929,0.60118717,3.805836201,-4.044412613,0.568621218,-69.504656,44.014151,6.619805,-30.395531,60.088823,-77.600373
607,2293481457,62.49638748,80.85639191,156.6609344,-9.46931076,2.170694828,0.586105883,3.943683863,-4.131854057,0.412691057,-69.662478,44.050329,6.629573,-30.329803,60.019959,-77.593495
608,2293498124,62.31716537,80.83140564,156.4282379,-9.50617981,2.214164257,0.61386025,3.771899462,-3.572830915,0.393455893,-69.820914,44.087232,6.639804,-30.266938,59.960412,-77.586937
609,2293514791,62.14187622,80.81213379,156.2108154,-9.577754974,2.262789965,0.652805507,3.105495214,-3.294216156,0.149430901,-69.980543,44.124945,6.650684,-30.21518,59.905508,-77.584446
610,2293531458,61.95448303,80.79602051,155.9889069,-9.664806366,2.232754707,0.617922783,2.635552883,-3.243873835,-0.060420353,-70.141623,44.162158,6.660983,-30.171254,59.851443,-77.585453
611,2293548125,61.74861145,80.77648926,155.7447357,-9.698069572,2.244996548,0.599069536,2.850072622,-3.539842367,0.015911892,-70.303257,44.199575,6.670967,-30.123753,59.792446,-77.585188
612,2293564792,61.5537262,80.74965668,155.5023651,-9.657096863,2.225641251,0.594464958,3.399567366,-3.73973608,0.397656381,-70.464209,44.236669,6.680875,-30.067094,59.730117,-77.57856
613,2293581459,61.40522003,80.71257782,155.2998047,-9.589258194,2.214355946,0.56238687,3.828836679,-3.710639954,1.108754635,-70.62403,44.273575,6.690248,-30.00328,59.668273,-77.560081
614,2293598126,61.31946564,80.6701355,155.1562042,-9.461819649,2.170405865,0.530527174,4.099024773,-3.375087976,1.655483365,-70.781727,44.309748,6.69909,-29.934963,59.612022,-77.53249
615,2293614793,61.29652786,80.63175201,155.0800934,-9.462248802,2.171650171,0.545721292,3.87700057,-2.694161415,1.750672817,-70.939431,44.345942,6.708185,-29.870346,59.567119,-77.503312
616,2293631460,61.28204346,80.60280609,155.0237732,-9.510034561,2.152941942,0.533142686,3.170563936,-2.244415045,1.348758459,-71.097932,44.381824,6.717071,-29.817503,59.529712,-77.480833
617,2293648127,61.27190781,80.58794403,154.9778442,-9.591610909,2.149675369,0.510685861,2.840365171,-1.763998032,0.656613588,-71.257792,44.417652,6.725582,-29.770164,59.500312,-77.469889
618,2293664794,61.26044464,80.58474731,154.9258423,-9.642500877,2.15982461,0.510501385,3.1118083,-1.48309052,0.017679164,-71.4185,44.453649,6.73409,-29.718301,59.475594,-77.469594
619,2293681461,61.26826096,80.58783722,154.8873138,-9.64675045,2.211151123,0.510554016,3.505962133,-1.200876951,-0.260173768,-71.579279,44.490502,6.742599,-29.659868,59.455579,-77.47393
620,2293698128,61.33712006,80.59431458,154.9115601,-9.617083549,2.254495859,0.540433466,3.509068251,-0.585231066,-0.150532261,-71.739564,44.528077,6.751606,-29.601384,59.445825,-77.476439
621,2293714795,61.48275375,80.60129547,155.0202026,-9.588736534,2.297903299,0.554271936,3.06432271,0.167718381,0.229573071,-71.899376,44.566375,6.760844,-29.550312,59.44862,-77.472613
622,2293731462,61.6904068,80.6079483,155.2039185,-9.613554001,2.284538269,0.606502235,2.422288895,0.776788294,0.56672585,-72.059602,44.604451,6.770952,-29.509941,59.461566,-77.463168
623,2293748129,61.9362793,80.61698914,155.432724,-9.630993843,2.290686369,0.622287929,1.981276989,1.251839995,0.66153121,-72.220119,44.642629,6.781323,-29.47692,59.48243,-77.452142
624,2293764796,62.20913696,80.62537384,155.6941223,-9.670362473,2.278825045,0.648075879,1.684489608,1.50995183,0.828231454,-72.381292,44.680609,6.792124,-29.448845,59.507596,-77.438338
625,2293781463,62.45705414,80.62994385,155.936676,-9.687713623,2.268799067,0.692582726,1.451081038,1.189562559,0.90856576,-72.542754,44.718422,6.803667,-29.42466,59.527422,-77.423195
626,2293798130,62.67822266,80.62575531,156.1473846,-9.634718895,2.231318235,0.715922534,1.531658769,0.740495205,1.264582276,-72.703333,44.755611,6.815599,-29.399132,59.539764,-77.402119
627,2293814797,62.8562851,80.61476898,156.3093567,-9.671599388,2.192733765,0.720507145,1.784392118,0.151198179,1.406656027,-72.864526,44.792157,6.827607,-29.369392,59.542284,-77.378675
628,2293831464,62.96657944,80.59703064,156.4016876,-9.67899704,2.18086338,0.76760453,1.78343153,-0.615357935,1.467217207,-73.025843,44.828505,6.8404,-29.339668,59.532028,-77.354221
629,2293848131,62.97928238,80.58040619,156.3948212,-9.652817726,2.136338711,0.754378438,1.808480859,-1.454442739,0.970113039,-73.186723,44.864111,6.852973,-29.309527,59.507787,-77.338052
630,2293864798,62.9131813,80.56393433,156.3024597,-9.627494812,2.106750488,0.762223542,2.245471716,-2.232313156,0.558478475,-73.347181,44.899224,6.865677,-29.272102,59.470582,-77.328744
631,2293881465,62.78035355,80.54876709,156.1428528,-9.599547386,2.113816977,0.69936949,2.378452778,-2.840025663,0.156973839,-73.507173,44.934454,6.877333,-29.232461,59.423248,-77.326128
632,2293898132,62.59807587,80.54051208,155.9356995,-9.583322525,2.122630358,0.693171024,2.038136959,-3.004664421,-0.40255484,-73.666895,44.969831,6.888886,-29.198492,59.37317,-77.332837
633,2293914799,62.39724731,80.54022217,155.720932,-9.609716415,2.131120682,0.68836683,1.691251278,-2.955705404,-0.923299313,-73.827057,45.00535,6.900359,-29.170304,59.323908,-77.348225
634,2293931466,62.14798737,80.54890442,155.4516449,-9.691389084,2.19226265,0.667460322,1.556887269,-3.027113914,-1.564564705,-73.98858,45.041888,6.911483,-29.144356,59.273456,-77.374301
635,2293948133,61.87866592,80.56593323,155.1707306,-9.755502701,2.24207139,0.622644901,1.528841496,-3.040945053,-2.167987347,-74.151172,45.079256,6.92186,-29.118875,59.222774,-77.410434
636,2293964800,61.57817078,80.585495,154.8476715,-9.758904457,2.248576641,0.606331766,1.648388624,-3.152513504,-2.411179543,-74.31382,45.116732,6.931966,-29.091402,59.170232,-77.45062
637,2293981467,61.33571243,80.59807587,154.5797577,-9.703142166,2.26900816,0.558552623,2.387789011,-3.036680222,-1.892407179,-74.475539,45.154549,6.941275,-29.051606,59.119621,-77.48216
638,2293998134,61.13795471,80.60679626,154.3171387,-9.576078415,2.288690805,0.563483238,3.021971703,-2.535810947,-1.323702574,-74.63514,45.192694,6.950666,-29.00124,59.077357,-77.504222
639,2294014801,61.08499146,80.61782837,154.2510071,-9.532454491,2.3044734,0.570878923,2.48669219,-1.559928656,-1.006899476,-74.794014,45.231102,6.960181,-28.959795,59.051358,-77.521004
640,2294031468,61.10159683,80.63470459,154.2876129,-9.537703514,2.321377277,0.610788465,1.378174305,-0.767317951,-0.989162326,-74.952976,45.269792,6.970361,-28.936825,59.038569,-77.53749
641,2294048135,61.09220505,80.65582275,154.2820892,-9.547550201,2.261746168,0.58566767,0.66401571,-0.476216972,-1.074504018,-75.112102,45.307488,6.980122,-28.925758,59.030632,-77.555398
642,2294064802,61.07141495,80.67584229,154.2564087,-9.534401894,2.189754486,0.549588442,0.871670663,-0.583457351,-1.060890794,-75.271009,45.343984,6.989282,-28.91123,59.020908,-77.57308
643,2294081469,61.07260895,80.69012451,154.2350159,-9.466099739,2.189244032,0.542169213,1.834720731,-0.684998751,-0.713159978,-75.428777,45.380471,6.998318,-28.880651,59.009491,-77.584966
644,2294098136,61.12325287,80.70343781,154.2847748,-9.47328949,2.261796236,0.551155746,2.094587564,-0.591089845,-0.633991241,-75.586665,45.418168,7.007504,-28.845741,58.99964,-77.595533
645,2294114803,61.15684509,80.71917725,154.3093872,-9.552988052,2.276443005,0.55829525,1.63697803,-0.441498905,-0.692080736,-75.745881,45.456109,7.016809,-28.818458,58.992282,-77.607068
646,2294131470,61.1835289,80.73256683,154.3374786,-9.623143196,2.314347744,0.586543322,1.075125098,-0.501931965,-0.565553963,-75.906267,45.494681,7.026585,-28.800539,58.983916,-77.616494
647,2294148137,61.20319366,80.73661804,154.3509827,-9.612411499,2.27315855,0.562718332,1.041303396,-0.74664855,-0.052544449,-76.066474,45.532567,7.035964,-28.783184,58.971472,-77.61737
648,2294164804,61.28474808,80.72650909,154.4171295,-9.588710785,2.261668205,0.549334645,1.750506401,-0.749491632,0.919451177,-76.226286,45.570261,7.04512,-28.754009,58.95898,-77.602046
649,2294181471,61.42156219,80.70458221,154.5280609,-9.594463348,2.253385544,0.556462765,2.379989862,-0.69528234,1.7411834,-76.386194,45.607817,7.054394,-28.714343,58.947392,-77.573026
650,2294198138,61.55340576,80.67854309,154.6159668,-9.645557404,2.254833221,0.584091008,2.460023165,-0.696313202,2.056020975,-76.546953,45.645398,7.064129,-28.673343,58.935787,-77.538759
