PacketCounter,SampleTimeFine,Euler_X,Euler_Y,Euler_Z,Acc_X,Acc_Y,Acc_Z,Gyr_X,Gyr_Y,Gyr_Z,
0,488271656,-68.15639496,74.90955353,-127.3750687,0,0,0,0,0,0, 
1,488288323,-67.73899078,74.88005829,-126.9721375,-9.358736992,-2.344453096,1.00513339,0.300366521,-2.111971855,1.416593552, 
2,488304990,-67.34276581,74.85328674,-126.5546265,-9.366325378,-2.355592489,1.027114272,0.091226026,-2.076562405,1.272611737, 
3,488321657,-66.98756409,74.82553864,-126.1784973,-9.358433723,-2.389789581,1.025468588,0.030395873,-2.169114113,1.234205604, 
4,488338324,-66.71984863,74.79202271,-125.890686,-9.353351593,-2.419284821,1.014021516,0.07895755,-2.087204695,1.280795217, 
5,488354991,-66.52139282,74.75844574,-125.651001,-9.394054413,-2.428047895,1.016523242,0.003963565,-2.193535566,1.540021181, 
6,488371658,-66.36468506,74.72939301,-125.4708099,-9.389842033,-2.382605791,1.009596705,0.031228285,-2.163248777,1.600582361, 
7,488388325,-66.22653198,74.71167755,-125.3117599,-9.367481232,-2.380130053,1.008126616,0.015604538,-2.127992868,1.561279893, 
8,488404992,-66.08950043,74.69953156,-125.1485367,-9.369882584,-2.386149406,0.996502817,0.014375127,-2.289455175,1.550688863, 
9,488421659,-65.95085907,74.68993378,-124.9866333,-9.394804001,-2.379854918,1.026311636,0.05471513,-2.514962435,1.523590684, 
10,488438326,-65.80438232,74.68225861,-124.8203049,-9.428011894,-2.369189739,1.031693935,0.182151094,-2.590750217,1.470674753, 
11,488454993,-65.65618134,74.67501831,-124.6602325,-9.411067963,-2.356234312,1.000506401,0.275599062,-2.613238335,1.294062495, 
12,488471660,-65.50964355,74.66913605,-124.5033112,-9.384811401,-2.381314039,1.004894376,0.279043972,-2.69197154,1.205583215, 
13,488488327,-65.35591888,74.66575623,-124.3383102,-9.358493805,-2.406199932,1.017117381,0.401600748,-2.786559582,1.357479572, 
14,488504994,-65.19881439,74.66291809,-124.1652603,-9.348877907,-2.409520864,1.004120946,0.264355093,-2.879443884,1.497606635, 
15,488521661,-65.06053162,74.65930939,-124.0089035,-9.333090782,-2.388303041,1.035263896,-0.098685741,-2.756835699,1.428337097, 
16,488538328,-64.93477631,74.65483093,-123.8639679,-9.338697433,-2.382797241,1.043326139,-0.196308568,-2.58442378,1.305908442, 
17,488554995,-64.82041168,74.65164948,-123.731514,-9.341479301,-2.375664234,1.055392981,-0.122518361,-2.331473112,1.274123192, 
18,488571662,-64.69974518,74.65036774,-123.5941696,-9.344842911,-2.362119675,1.025813818,-0.157787025,-2.345201492,1.398165226, 
19,488588329,-64.58116913,74.64996338,-123.4584274,-9.341418266,-2.371127605,1.042204499,-0.062584639,-2.284166098,1.37859714, 
20,488604996,-64.4551239,74.65109253,-123.3192444,-9.3702631,-2.394533396,1.053344488,0.108540215,-2.303785563,1.474017262, 
21,488621663,-64.32019043,74.65325928,-123.1781158,-9.38272953,-2.407371283,1.058534503,0.273883015,-2.352923632,1.578478694, 
22,488638330,-64.16658783,74.65346527,-123.0174026,-9.404033661,-2.41566658,1.024612665,0.253700197,-2.674926758,1.61897254, 
23,488654997,-64.01322937,74.652565,-122.8507614,-9.388279915,-2.406823397,1.057460666,0.217804015,-2.734603882,1.580015302, 
24,488671664,-63.86240768,74.65275574,-122.6866989,-9.380799294,-2.411598682,1.045701146,0.193228632,-2.667242765,1.630177975, 
25,488688331,-63.7169075,74.65168762,-122.532814,-9.364138603,-2.401802778,1.07487464,0.142528296,-2.639132738,1.540508151, 
26,488704998,-63.56853867,74.65090942,-122.370842,-9.358183861,-2.407682896,1.078358412,0.212553442,-2.639555454,1.575879097, 
27,488721665,-63.41874313,74.65113831,-122.2073441,-9.360198021,-2.427978754,1.062798738,0.23395279,-2.611790895,1.647773862, 
28,488738332,-63.26871109,74.65345001,-122.0482712,-9.342432976,-2.426264286,1.064993024,0.288174897,-2.546491861,1.772584558, 
29,488754999,-63.12514877,74.65692902,-121.8908844,-9.323005676,-2.428736448,1.108287096,0.200080022,-2.438495874,1.81937933, 
30,488771666,-62.98806763,74.66111755,-121.7411575,-9.321593285,-2.438715219,1.08699286,0.045404915,-2.333304167,1.847271204, 
31,488788333,-62.86727524,74.66845703,-121.6070251,-9.328180313,-2.420314074,1.107147455,-0.019363202,-2.013107061,1.924813509, 
32,488805000,-62.75846863,74.67713928,-121.4752426,-9.343431473,-2.427925348,1.124311924,-0.158004731,-1.82024312,1.928796172, 
33,488821667,-62.65814972,74.68972015,-121.3607407,-9.366110802,-2.414762497,1.094640732,-0.08687827,-1.547736883,2.072816372, 
34,488838334,-62.56009293,74.70303345,-121.2422256,-9.366709709,-2.410897255,1.115211248,-0.108303294,-1.495102763,2.095995903, 
35,488855001,-62.46916962,74.71755981,-121.1370239,-9.371879578,-2.413863897,1.101416945,-0.12003392,-1.347471476,2.105050325, 
36,488871668,-62.3852272,74.73298645,-121.0329742,-9.371753693,-2.402485609,1.113166451,-0.047639623,-1.198930502,2.089260101, 
37,488888335,-62.30085373,74.74874115,-120.9300003,-9.367690086,-2.388628483,1.131803751,-0.043221433,-1.185048461,2.10232234, 
38,488905002,-62.22116089,74.76554871,-120.8300095,-9.361791611,-2.386705875,1.090742707,-0.112555012,-1.089282393,2.122850895, 
39,488921669,-62.14151382,74.78523254,-120.734169,-9.355545044,-2.38031435,1.061152339,-0.169645727,-1.020614862,2.278499603, 
40,488938336,-62.0687294,74.80605316,-120.64431,-9.343959808,-2.386161804,1.07528162,-0.102796569,-0.881115317,2.268497705, 
41,488955003,-61.99489594,74.82785797,-120.5557327,-9.323477745,-2.394288301,1.047671437,-0.057615768,-0.860266507,2.319530964, 
42,488971670,-61.93334198,74.85089874,-120.4805374,-9.337569237,-2.403960228,1.068475604,0.048388794,-0.631903768,2.279396057, 
43,488988337,-61.88963699,74.87687683,-120.4239655,-9.343654633,-2.412120819,1.080912948,0.078663006,-0.288770407,2.298426151, 
44,489005004,-61.85573578,74.9019165,-120.3768845,-9.353414536,-2.410006285,1.07903266,-0.001293441,-0.193683252,2.188009739, 
45,489021671,-61.82051468,74.92611694,-120.3288116,-9.364836693,-2.416615248,1.094555736,-0.067041241,-0.251145333,2.166021109, 
46,489038338,-61.78799438,74.95053864,-120.2836761,-9.366353035,-2.406166553,1.088723779,-0.100952461,-0.209742412,2.166456699, 
47,489055005,-61.76144791,74.97805023,-120.2442627,-9.352728844,-2.409062624,1.087681055,0.013645167,-0.007811874,2.26967597, 
48,489071672,-61.75225449,75.00707245,-120.2211533,-9.356446266,-2.395529509,1.103804469,-0.155622765,0.244325951,2.246509552, 
49,489088339,-61.75566864,75.03910828,-120.2094345,-9.351892471,-2.393574238,1.064985633,-0.216837123,0.500107229,2.321003675, 
50,489105006,-61.76626205,75.07230377,-120.2085876,-9.359932899,-2.405536175,1.053431988,-0.082857095,0.663055241,2.308389664, 
51,489121673,-61.78001785,75.10434723,-120.216095,-9.398900032,-2.407320738,1.042448759,0.083657488,0.709093988,2.210997105, 
52,489138340,-61.79145813,75.13560486,-120.218338,-9.425649643,-2.401400805,1.032150745,0.071875647,0.646112382,2.193977594, 
53,489155007,-61.77706909,75.1614151,-120.1936569,-9.413226128,-2.34674859,1.053707838,0.159125313,0.140645742,2.088145971, 
54,489171674,-61.75043488,75.18572998,-120.1594467,-9.394150734,-2.358025074,1.085225105,0.328514934,-0.034820464,2.073649168, 
55,489188341,-61.72172165,75.20998383,-120.1261826,-9.378834724,-2.374815226,1.051252365,0.344753355,-0.054747149,2.084098816, 
56,489205008,-61.70215988,75.23638916,-120.0989761,-9.352667809,-2.397461653,1.0204494,0.230840862,0.108527422,2.1445961, 
57,489221675,-61.70231628,75.26181793,-120.0884857,-9.357374191,-2.381181717,1.029179335,0.074987583,0.312468499,1.9662292, 
58,489238342,-61.71651077,75.28907776,-120.0895996,-9.350705147,-2.391853571,1.007716417,-0.133045167,0.508431256,1.991867542, 
59,489255009,-61.73163223,75.31684875,-120.0895615,-9.332335472,-2.373396158,1.014849305,-0.106113404,0.534236073,2.013625622, 
60,489271676,-61.73191452,75.34496307,-120.0754623,-9.367635727,-2.374281168,0.990725577,-0.13953799,0.328284383,2.156877518, 
61,489288343,-61.72072601,75.37453461,-120.0468903,-9.363419533,-2.358974218,0.994263172,-0.430357426,0.135664076,2.35189271, 
62,489305010,-61.71393585,75.40550995,-120.0166321,-9.389256477,-2.364845514,0.99414891,-0.569395959,0.200374559,2.416846514, 
63,489321677,-61.70750809,75.43575287,-119.988121,-9.413292885,-2.355736732,0.978244483,-0.52844125,0.18815729,2.369590998, 
64,489338344,-61.69585037,75.46309662,-119.9550476,-9.405779839,-2.356038094,0.95350045,-0.547548294,0.022852933,2.26252985, 
65,489355011,-61.67496872,75.48993683,-119.9176712,-9.407758713,-2.372695446,0.969788373,-0.258841962,-0.062712699,2.264476538, 
66,489371678,-61.66079712,75.51695251,-119.8862534,-9.415060043,-2.360874176,0.952386498,-0.324961156,0.013901292,2.242411137, 
67,489388345,-61.64636612,75.54249573,-119.8538971,-9.386229515,-2.366791248,0.931269884,-0.294879019,-0.033424571,2.166610241, 
68,489405012,-61.62602997,75.56608582,-119.8168182,-9.379846573,-2.386777163,0.988828599,-0.227696925,-0.164254248,2.103436708, 
69,489421679,-61.60279465,75.59004974,-119.7807999,-9.386946678,-2.379971027,0.980154097,-0.091975212,-0.164420739,2.137719154, 
70,489438346,-61.57423019,75.61553192,-119.7393265,-9.374926567,-2.388634682,0.998570085,-0.051494334,-0.187344104,2.256062746, 
71,489455013,-61.55369949,75.64291382,-119.7039719,-9.36995697,-2.393870831,0.983967066,-0.153612167,-0.048382394,2.322207451, 
72,489471680,-61.54759979,75.66882324,-119.6818695,-9.359937668,-2.386901855,0.965182066,-0.249909535,0.080615975,2.15871501, 
73,489488347,-61.53753281,75.69287109,-119.6557922,-9.385633469,-2.395572901,0.940836251,-0.190532863,-0.019004622,2.091513634, 
74,489505014,-61.52472687,75.71718597,-119.6307373,-9.398628235,-2.373873949,0.963096976,-0.138884872,-0.043067753,2.131008863, 
75,489521681,-61.49425507,75.73838043,-119.5833359,-9.398147583,-2.364622355,0.958896935,-0.276245803,-0.404975206,2.120546103, 
76,489538348,-61.45340347,75.76039886,-119.5236664,-9.393740654,-2.368620396,0.957137525,-0.258982807,-0.519335926,2.247405529, 
77,489555015,-61.41421509,75.78076172,-119.4673996,-9.408194542,-2.353600502,0.936869144,-0.207437262,-0.537674606,2.147528887, 
78,489571682,-61.37061691,75.79880524,-119.4076462,-9.413226128,-2.348437786,0.895254016,-0.198370367,-0.667415738,2.06131649, 
79,489588349,-61.31203461,75.81643677,-119.3302536,-9.418931961,-2.331183434,0.885572076,-0.261223912,-0.902156174,2.167916298, 
80,489605016,-61.24132156,75.83286285,-119.242363,-9.422355652,-2.33545804,0.889944613,-0.176753253,-1.090217471,2.183117867, 
81,489621683,-61.15914154,75.84426117,-119.1442337,-9.402742386,-2.316916943,0.891764104,-0.057961538,-1.370894074,1.996106625, 
82,489638350,-61.06557846,75.85366058,-119.036644,-9.413692474,-2.340527534,0.913279235,0.068315476,-1.560773969,1.9639498, 
83,489655017,-60.96483612,75.86005402,-118.9246063,-9.396510124,-2.349332094,0.935185373,0.23449707,-1.711466074,1.851682901, 
84,489671684,-60.85751724,75.86470032,-118.8023071,-9.395934105,-2.359189749,0.946372807,0.09309575,-1.887655735,1.834887266, 
85,489688351,-60.74953461,75.86733246,-118.6777649,-9.392757416,-2.367321968,0.948775351,-0.017775213,-1.98417747,1.760290623, 
86,489705018,-60.64803696,75.87132263,-118.5601425,-9.387154579,-2.371826887,0.965841711,-0.036459681,-1.867319345,1.798325419, 
87,489721685,-60.56212616,75.87545776,-118.4602051,-9.391366959,-2.379864931,0.936691046,-0.058268897,-1.665888429,1.710185647, 
88,489738352,-60.47506332,75.87978363,-118.3550644,-9.388958931,-2.365389347,0.908024907,-0.19486782,-1.714161992,1.755789042, 
89,489755019,-60.39282608,75.88201141,-118.2548752,-9.389048576,-2.35243845,0.920064867,-0.179084003,-1.719457507,1.622724652, 
90,489771686,-60.31871414,75.88508606,-118.1662369,-9.376976967,-2.350238085,0.954576433,0.02647713,-1.55087471,1.59485817, 
91,489788353,-60.25267792,75.88977051,-118.0884705,-9.393954277,-2.368350983,0.969722152,0.192133665,-1.368192077,1.609425187, 
92,489805020,-60.18001938,75.8939743,-118.0030212,-9.414031029,-2.374961853,0.932063818,0.177598462,-1.478525043,1.646550894, 
93,489821687,-60.08587265,75.89675903,-117.8911972,-9.446697235,-2.387345314,0.944594264,-0.061380837,-1.860993266,1.781715631, 
94,489838354,-59.98364258,75.89784241,-117.7709427,-9.430878639,-2.343255997,0.967438877,-0.117152497,-2.039923429,1.771188736, 
95,489855021,-59.87980652,75.89772034,-117.6509247,-9.444767952,-2.33862114,0.987330258,0.117568687,-2.051128864,1.706427097, 
96,489871688,-59.7809906,75.8968277,-117.5356827,-9.410098076,-2.366081715,0.949667156,0.051551957,-2.028026104,1.647786617, 
97,489888355,-59.67770004,75.89240265,-117.4166336,-9.374722481,-2.339939117,0.975176752,0.083126001,-2.194528103,1.5127244, 
98,489905022,-59.5871582,75.88661957,-117.3132095,-9.359789848,-2.361758709,0.936308205,0.157466874,-2.062898159,1.344116092, 
99,489921689,-59.49203491,75.88066101,-117.2042999,-9.361950874,-2.348436832,0.930759668,0.186761394,-2.130156994,1.387869, 
100,489938356,-59.38488388,75.87524414,-117.0788803,-9.365064621,-2.352844,0.948370218,0.050924454,-2.311751127,1.540520668, 
101,489955023,-59.26792908,75.8698349,-116.9425507,-9.388890266,-2.372797489,0.954967856,-0.103641793,-2.484572887,1.644393086, 
102,489971690,-59.14244461,75.86289978,-116.7928772,-9.408685684,-2.365345001,0.955385089,-0.308965951,-2.695288181,1.682081938, 
103,489988357,-59.00889587,75.85523987,-116.6349487,-9.420264244,-2.363673925,0.963373244,-0.292151272,-2.827040195,1.726878524, 
104,490005024,-58.86438751,75.84426117,-116.4670639,-9.420872688,-2.345330477,0.989641309,-0.326549172,-3.091786146,1.660324097, 
105,490021691,-58.72441101,75.83197021,-116.3044662,-9.41054821,-2.349816799,0.97737062,-0.325537384,-3.081988811,1.577518106, 
106,490038358,-58.57608032,75.81716156,-116.134552,-9.410391808,-2.367839098,0.95898062,-0.166123971,-3.245769501,1.509350061, 
107,490055025,-58.42247391,75.79875946,-115.9607697,-9.397715569,-2.380161285,0.966770113,-0.024658626,-3.409901857,1.374236584, 
108,490071692,-58.26137161,75.7776947,-115.7788696,-9.386024475,-2.361582518,0.970371187,-0.064582437,-3.613786221,1.325911999, 
109,490088359,-58.07472229,75.75510406,-115.5733566,-9.364898682,-2.359976768,1.000752926,0.114764109,-3.968636751,1.455486536, 
110,490105026,-57.87114334,75.72921753,-115.3497238,-9.356451988,-2.365656614,1.023586988,0.080443092,-4.315433025,1.451363087, 
111,490121693,-57.65851974,75.69985962,-115.1135254,-9.378472328,-2.377892017,1.067659378,-0.120392516,-4.599772453,1.405388117, 
112,490138360,-57.43809509,75.66802979,-114.8715744,-9.444972992,-2.411340475,1.035102963,0.019817825,-4.75914669,1.367532492, 
113,490155027,-57.19932938,75.63111877,-114.60952,-9.458677292,-2.411394596,1.025739908,0.022968194,-5.180118561,1.290400147, 
114,490171694,-56.93516159,75.58766174,-114.3185272,-9.399903297,-2.375737906,1.023265362,-0.091808729,-5.766456604,1.232732892, 
115,490188361,-56.64616394,75.53881836,-113.9972458,-9.366707802,-2.350578308,1.033278823,-0.401146114,-6.353358269,1.267438054, 
116,490205028,-56.31617355,75.48200226,-113.6364059,-9.371379852,-2.3551898,1.037879348,-0.255179346,-7.146456242,1.242901087, 
117,490221695,-55.98783493,75.42098999,-113.2765656,-9.388361931,-2.373834848,1.064958572,-0.346693575,-7.315219879,1.098919511, 
118,490238362,-55.66820908,75.35895538,-112.9266129,-9.422485352,-2.377129793,1.018851161,-0.300232053,-7.258677959,1.029700994, 
119,490255029,-55.31752014,75.28184509,-112.5493927,-9.435238838,-2.360258818,1.057281375,-0.016212841,-8.156365395,0.579557836, 
120,490271696,-54.92274094,75.18874359,-112.129982,-9.423289299,-2.395460606,1.093487024,0.223528489,-9.271069527,0.236373261, 
121,490288363,-54.50167084,75.09009552,-111.6848221,-9.434205055,-2.409412622,1.093276978,0.286817461,-9.847073555,0.297766894, 
122,490305030,-54.06221008,74.99013519,-111.2197571,-9.412960052,-2.405903101,1.040771365,0.388346225,-10.17576218,0.497328341, 
123,490321697,-53.62023163,74.88880157,-110.7569122,-9.375354767,-2.417423487,1.127900839,0.662415087,-10.26302433,0.528832018, 
124,490338364,-53.16807175,74.78027344,-110.2883072,-9.358422279,-2.422260046,1.185268164,0.908835113,-10.66632366,0.357572675, 
125,490355031,-52.6659584,74.65673828,-109.7872925,-9.360895157,-2.454492331,1.268722177,2.073355675,-11.67462063,0.076895766, 
126,490371698,-52.18086624,74.53148651,-109.3190994,-9.402537346,-2.454648495,1.248737216,2.97563982,-11.39117622,-0.176574022, 
127,490388365,-51.71317291,74.40627289,-108.8642349,-9.32317543,-2.439531565,1.297362566,2.75927639,-11.28409004,-0.173334002, 
128,490405032,-51.32767868,74.30109406,-108.5005112,-9.278876305,-2.434813261,1.332093596,3.112180948,-9.445773125,-0.028263623, 
129,490421699,-50.95575714,74.19638824,-108.1609726,-9.249874115,-2.423511267,1.347093225,3.663775921,-9.177109718,-0.146479085, 
130,490438366,-50.60679245,74.09199524,-107.8375626,-9.224279404,-2.435336828,1.341593027,3.33020854,-8.987472534,-0.230117351, 
131,490455033,-50.28809357,73.98765564,-107.5267029,-9.321027756,-2.481151342,1.332686901,2.389824867,-8.842311859,-0.300308943, 
132,490471700,-49.996521,73.88301086,-107.2466965,-9.323787689,-2.510401011,1.431357384,2.413440704,-8.53745842,-0.534575641, 
133,490488367,-49.76844788,73.78895569,-107.0290298,-9.304121017,-2.45330596,1.456293464,2.12972188,-7.391237259,-0.636923909, 
134,490505034,-49.54020691,73.70569611,-106.7997665,-9.195689201,-2.391355753,1.464974403,1.457727671,-7.153665543,0.046019621, 
135,490521701,-49.27900314,73.6195755,-106.5334091,-9.279662132,-2.381822348,1.495186448,1.501358986,-7.729824066,0.332433701, 
136,490538368,-48.99451828,73.52084351,-106.2419281,-9.231404305,-2.377440453,1.554770231,1.447329164,-8.583892822,0.097616427, 
137,490555035,-48.70751953,73.42077637,-105.9429321,-9.188871384,-2.429978371,1.600825191,1.189537168,-8.763028145,0.18713282, 
138,490571702,-48.44049072,73.3155899,-105.663414,-9.226242065,-2.446727753,1.643600106,1.047860503,-8.765217781,-0.181440368, 
139,490588369,-48.19149017,73.20728302,-105.4031754,-9.23071003,-2.451392889,1.649466038,1.101800919,-8.670681,-0.479636282, 
140,490605036,-47.95615387,73.10056305,-105.1587677,-9.248383522,-2.442058086,1.644631028,1.13179338,-8.447390556,-0.511114359, 
141,490621703,-47.72586441,72.99481964,-104.9163208,-9.22865963,-2.427575827,1.649375796,0.99671191,-8.407971382,-0.443676084, 
142,490638370,-47.52329636,72.88976288,-104.6933899,-9.224498749,-2.41278863,1.573387384,0.500260949,-8.149680138,-0.595021546, 
143,490655037,-47.31846619,72.78491974,-104.4756699,-9.218157768,-2.428036451,1.590913057,0.884451509,-8.124682426,-0.587849975, 
144,490671704,-47.11553955,72.67224121,-104.2587585,-9.257428169,-2.429561615,1.619420409,0.955123305,-8.441971779,-0.918689251, 
145,490688371,-46.91831589,72.55927277,-104.0450439,-9.271157265,-2.468484879,1.619673967,0.666756272,-8.481006622,-0.886904001, 
146,490705038,-46.71678162,72.44036102,-103.8185654,-9.274006844,-2.494617224,1.666843176,0.258259356,-8.922186852,-0.951678634, 
147,490721705,-46.51013184,72.31574249,-103.5831299,-9.234194756,-2.494713306,1.693169355,0.036536526,-9.320912361,-1.020627975, 
148,490738372,-46.31056976,72.18909454,-103.354866,-9.159407616,-2.514191151,1.744778752,0.006063809,-9.360266685,-1.135385633, 
149,490755039,-46.12957001,72.0634079,-103.1433334,-9.143001556,-2.507954121,1.769529819,-0.114117429,-9.128100395,-1.252243638, 
150,490771706,-45.95772552,71.94013214,-102.9428558,-9.159449577,-2.536575079,1.793192506,-0.002202693,-8.912004471,-1.241729617, 
151,490788373,-45.78664398,71.82483673,-102.7455063,-9.207327843,-2.556432724,1.814628124,0.172098175,-8.563800812,-0.894856632, 
152,490805040,-45.6203804,71.71070099,-102.5501328,-9.233860016,-2.568080187,1.821981788,-0.043118995,-8.531093597,-0.807184517, 
153,490821707,-45.45088577,71.59091187,-102.3506851,-9.211688042,-2.576087713,1.842681289,-0.092705183,-8.860343933,-0.939691663, 
154,490838374,-45.27364349,71.46251678,-102.1439056,-9.143087387,-2.585262775,1.873989105,-0.008823577,-9.352313042,-1.164289594, 
155,490855041,-45.08752823,71.3307724,-101.9305649,-9.083439827,-2.578377008,1.911075711,0.118234672,-9.629302025,-1.148793936, 
156,490871708,-44.92013931,71.2032547,-101.7368164,-9.07130146,-2.5873487,1.929446459,0.095477767,-9.222687721,-1.175098181, 
157,490888375,-44.77910995,71.08318329,-101.5669937,-9.121183395,-2.610664368,1.971647382,-0.069243953,-8.594932556,-1.144644737, 
158,490905042,-44.66033173,70.96977997,-101.4157257,-9.138226509,-2.608071566,1.983624697,-0.409226984,-8.101361275,-1.064873934, 
159,490921709,-44.53433609,70.85565186,-101.2543411,-9.140303612,-2.595874786,2.004317284,-0.520795882,-8.288719177,-0.917254806, 
160,490938376,-44.40407944,70.73622131,-101.0947876,-9.074710846,-2.585932493,2.013106346,-0.25498727,-8.5406847,-1.103036761, 
161,490955043,-44.27799988,70.61978912,-100.9421005,-9.044540405,-2.603373528,2.019946575,0.021444235,-8.309875488,-1.068177819, 
162,490971710,-44.16211319,70.50588226,-100.802597,-9.049699783,-2.642564535,2.071623802,0.017986521,-8.076927185,-1.072621703, 
163,490988377,-44.05027008,70.39457703,-100.6621323,-9.057808876,-2.626663685,2.067055464,-0.296082824,-8.003278732,-0.906817734, 
164,491005044,-43.94948959,70.28888702,-100.529686,-9.080506325,-2.616237164,2.056993246,-0.450924456,-7.659453392,-0.770135581, 
165,491021711,-43.84014893,70.18347931,-100.3935013,-9.051671028,-2.63091588,2.108315229,-0.199510142,-7.733217239,-0.653841078, 
166,491038378,-43.74343491,70.08004761,-100.2742462,-8.995449066,-2.615224838,2.096007824,0.133986458,-7.398115158,-0.829236925, 
167,491055045,-43.67058563,69.98677826,-100.185318,-9.021107674,-2.650070906,2.130822182,0.276815683,-6.58067131,-0.790894687, 
168,491071712,-43.61607742,69.90274811,-100.1121979,-9.059966087,-2.709290743,2.182584047,0.08007171,-5.965787411,-0.623784542, 
169,491088379,-43.55305099,69.82191467,-100.0256348,-9.071327209,-2.739757299,2.160438776,-0.254116416,-6.049514771,-0.241233215, 
170,491105046,-43.49035645,69.74819946,-99.94007111,-9.045875549,-2.740500212,2.21536994,-0.145595402,-5.723029613,0.03921945, 
171,491121713,-43.43210602,69.67959595,-99.86430359,-8.983809471,-2.739324331,2.251969576,0.14708735,-5.366886139,0.126110554, 
172,491138380,-43.38164139,69.61483002,-99.80836487,-8.929546356,-2.756399155,2.259009361,0.763072729,-4.928152084,0.014247063, 
173,491155047,-43.35162354,69.56168365,-99.78572845,-8.933294296,-2.781049252,2.26890254,1.419782281,-3.945892096,0.003131152, 
174,491171714,-43.32178497,69.50978851,-99.76455688,-8.971381187,-2.754492044,2.256468773,1.487502337,-3.87187171,0.050284129, 
175,491188381,-43.29473495,69.46607208,-99.73770142,-9.025985718,-2.736650705,2.202886343,1.026768327,-3.59105444,0.484291375, 
176,491205048,-43.24080276,69.42139435,-99.68276978,-8.994228363,-2.765122652,2.254790068,0.990872204,-4.065427303,0.910589218, 
177,491221715,-43.2008934,69.3911438,-99.64803314,-8.895829201,-2.785861254,2.27922678,1.288286805,-3.146008253,1.209066868, 
178,491238382,-43.21710205,69.38725281,-99.67768097,-8.884860039,-2.796850443,2.31960988,1.573279381,-1.05439806,1.303654432, 
179,491255049,-43.26068115,69.4012146,-99.73430634,-8.870394707,-2.802617311,2.31700182,1.450690627,0.122377485,1.640813589, 
180,491271716,-43.30881882,69.42047119,-99.79139709,-8.89945507,-2.784000635,2.280874491,1.203342319,0.360658824,1.865507364, 
181,491288383,-43.36106873,69.44561768,-99.84425354,-8.907298088,-2.757653236,2.290755749,0.699105024,0.550653875,2.195642471, 
182,491305050,-43.42222977,69.48383331,-99.89676666,-8.930913925,-2.734315872,2.29029417,0.096771181,1.104528427,2.770391464, 
183,491321717,-43.51697159,69.53931427,-99.97676849,-8.986515999,-2.708723307,2.299988985,-0.321887672,2.26441288,3.063733816, 
184,491338384,-43.62231445,69.60386658,-100.0694809,-9.03574276,-2.688989639,2.284305811,-0.244575679,2.838111401,3.265792131, 
185,491355051,-43.72793198,69.67166138,-100.1670456,-9.023485184,-2.676796675,2.266261339,-0.067489468,3.020345449,3.365169048, 
186,491371718,-43.84415436,69.74277496,-100.2777481,-8.997179031,-2.635500431,2.242956161,0.00717796,3.340466499,3.335139036, 
187,491388385,-43.99117279,69.83044434,-100.4179306,-8.964199066,-2.659125805,2.237746954,-0.082831472,4.494702339,3.577601194, 
188,491405052,-44.18693924,69.94432068,-100.6075134,-8.982803345,-2.699542046,2.198295116,-0.322220653,6.295416832,4.002107143, 
189,491421719,-44.41911316,70.08470154,-100.8321991,-9.068615913,-2.749141455,2.199157476,-0.488959372,7.919710159,4.641195297, 
190,491438386,-44.67764664,70.24214935,-101.0798111,-9.05676651,-2.733185053,2.148910999,-0.817929089,8.930452347,5.11439085, 
191,491455053,-44.9707756,70.41879272,-101.3576584,-8.986158371,-2.710640669,2.116890192,-1.1236552,10.14342308,5.566277027, 
192,491471720,-45.34661484,70.62792969,-101.7163162,-8.999392509,-2.759084702,2.111291409,-1.571455359,12.58911705,5.942386627, 
193,491488387,-45.76822281,70.85814667,-102.1269455,-9.030946732,-2.817194939,2.065148115,-1.413104892,14.11111641,6.305063248, 
194,491505054,-46.19653702,71.10205841,-102.5558014,-9.027852058,-2.874091387,2.038642168,-0.659873366,14.86112213,6.817204475, 
195,491521721,-46.61259079,71.35887146,-102.9796982,-8.953994751,-2.846211672,2.006449461,-0.231449366,15.20315456,7.676267624, 
196,491538388,-47.03647232,71.63934326,-103.4073334,-8.850946426,-2.791796446,2.013699293,-0.426682442,16.11084938,8.868067741, 
197,491555055,-47.50749207,71.95613098,-103.8842087,-8.837506294,-2.710492849,2.010098219,-0.493852019,18.11157799,10.10789394, 
198,491571722,-48.05532074,72.3117218,-104.4421692,-8.973118782,-2.681401491,1.942226291,-0.445520878,20.59568977,11.12231636, 
199,491588389,-48.63596344,72.69263458,-105.0385056,-9.029943466,-2.613704205,1.902899384,-0.14460963,21.89639091,12.1596632, 
200,491605056,-49.27012253,73.10167694,-105.6808853,-9.005311966,-2.564164639,1.910229445,-0.651896179,23.34031868,13.30731106, 
201,491621723,-49.93861008,73.53460693,-106.3601913,-8.956205368,-2.510730743,1.868487835,-0.523768425,24.43235397,14.45252705, 
202,491638390,-50.68502808,73.99681091,-107.1231537,-8.912270546,-2.53795743,1.786843181,-0.335796356,26.25191689,15.42978477, 
203,491655057,-51.52630615,74.48577118,-107.9768448,-8.961596489,-2.545315504,1.699777126,-0.741592765,27.94735336,16.3843689, 
204,491671724,-52.49159622,75.00687408,-108.9509201,-9.054920197,-2.582896948,1.604387641,-1.047653437,30.08897209,17.45996094, 
205,491688391,-53.61602783,75.57227325,-110.0791397,-9.185425758,-2.549457788,1.503581762,-1.525756121,32.8645668,19.07806587, 
206,491705058,-54.91732025,76.17832184,-111.373085,-9.32015419,-2.47532177,1.373147488,-2.261364937,35.37777328,20.75538445, 
207,491721725,-56.36824417,76.81311798,-112.8110352,-9.331454277,-2.443181276,1.261608481,-2.608766556,36.90543747,22.38105011, 
208,491738392,-57.98517227,77.47303009,-114.4179306,-9.261957169,-2.34624052,1.179810762,-2.65044713,38.24051285,23.98694229, 
209,491755059,-59.88103485,78.16872406,-116.2861328,-9.243239403,-2.328562737,1.052494645,-3.633210421,40.58925247,25.87139511, 
210,491771726,-62.12348938,78.89517975,-118.4911575,-9.280777931,-2.284336567,0.831212759,-4.559659958,42.90025711,27.72988129, 
211,491788393,-64.71416473,79.63918304,-121.0329742,-9.270085335,-2.178081036,0.737507522,-5.277812481,44.14109039,29.58022499, 
212,491805060,-67.67047882,80.38629913,-123.9305496,-9.239691734,-2.070772409,0.639853835,-5.809321404,44.45839691,31.2087841, 
213,491821727,-71.27339935,81.14376831,-127.4578094,-9.220087051,-1.959995985,0.502446592,-6.967190266,46.52157974,33.0255928, 
214,491838394,-75.84145355,81.89237976,-131.919632,-9.435161591,-1.827287793,0.287769943,-9.004394531,49.35970306,34.26102829, 
215,491855061,-81.54321289,82.59377289,-137.5046387,-9.627234459,-1.791786551,0.195376188,-9.77776432,51.37253571,34.75866699, 
216,491871728,-88.42734528,83.22320557,-144.265976,-9.60830307,-1.770607591,-0.031730253,-10.27108955,51.94943237,35.57117081, 
217,491888395,-96.42962646,83.77789307,-152.1273499,-9.475071907,-1.853595734,-0.083138749,-11.36188698,50.67816925,37.84093857, 
218,491905062,-105.894165,84.21385956,-161.5092468,-9.096090317,-1.886503696,0.02954153,-7.498479843,51.49210358,39.3842926, 
219,491921729,-117.6467438,84.4648056,-173.2053223,-9.089179993,-1.766957402,-0.150847375,-6.280685902,57.46674728,41.99287415, 
220,491938396,-131.0331116,84.46685791,173.4784698,-9.519627571,-1.645617127,-0.419170141,-7.433520317,62.27900314,45.9442482, 
221,491955063,-144.2081299,84.23258209,160.396759,-9.919222832,-1.560594082,-0.656852663,-8.92334938,61.15595627,50.06095505, 
222,491971730,-156.4650269,83.77597046,148.2466278,-10.1903038,-1.391394019,-0.897636354,-9.952287674,60.17403412,55.08334351, 
223,491988397,-167.4271698,83.07672119,137.3650208,-10.43865681,-1.182157278,-1.146993279,-8.712769508,61.72666168,60.559021, 
224,492005064,-176.5826111,82.1634903,128.2805481,-10.84020519,-1.015928864,-1.451790333,-8.389864922,62.70888901,64.22480774, 
225,492021731,176.1351471,81.15280151,121.1169739,-11.27906895,-0.850149333,-1.796946764,-11.33057308,59.17512131,65.1294632, 
226,492038398,170.4033966,80.19741058,115.5274887,-11.36003113,-0.394132555,-2.092091322,-12.66831493,49.38837051,63.24909592, 
227,492055065,165.8655548,79.27068329,111.0644531,-11.21613121,-0.003090256,-2.172459602,-8.505090714,43.45039749,60.71443939, 
228,492071732,162.3234711,78.24738312,107.5366669,-11.40219021,0.460232764,-2.481538057,-4.674993515,46.60509109,59.08945465, 
229,492088399,159.6343842,77.12993622,104.8974457,-11.80160904,0.928781867,-2.903752327,-6.415427685,51.25001907,56.34098053, 
230,492105066,157.4740753,76.05947113,102.9088135,-11.98426914,1.348964214,-3.295761347,-13.35160065,48.52827454,51.77556229, 
231,492121733,155.6407776,75.13486481,101.3226852,-12.42217541,1.330886006,-3.349340439,-17.63885689,40.32136154,46.29650497, 
232,492138400,154.3329468,74.30786133,100.1955261,-12.85620403,1.544820428,-3.56345129,-13.06195736,36.25965881,39.61368179, 
233,492155067,153.3491211,73.552948,99.35774231,-12.73885345,1.613115311,-3.893547773,-10.56689739,33.34339905,34.91765976, 
234,492171734,152.3438416,72.89442444,98.4724884,-12.26884556,1.92747438,-3.786947489,-9.311849594,26.95975494,34.11067963, 
235,492188401,151.2176666,72.35129547,97.4737854,-11.94595623,2.234243155,-3.738484383,-10.23566723,19.03882027,33.58618546, 
236,492205068,150.0724487,71.99091339,96.48465729,-11.6199894,2.178869486,-3.958855391,-12.06311989,8.711577415,28.80433846, 
237,492221735,149.0105438,71.79046631,95.57439423,-11.39730453,2.020207167,-4.041804314,-11.64574242,0.507836938,23.06447983, 
238,492238402,148.030426,71.65190125,94.72612762,-11.27517414,1.797045231,-3.928025246,-10.3186388,-2.522925854,20.2693634, 
239,492255069,147.0417786,71.4955368,93.8526535,-11.43283367,1.578999758,-3.646643877,-9.432887077,-2.282281399,21.31779671, 
240,492271736,146.0001984,71.32646179,92.93943787,-11.35359859,1.434528708,-3.385289669,-10.39473915,-2.490424156,22.47236443, 
241,492288403,145.1119995,71.15786743,92.18578339,-11.05844498,1.203191638,-3.303367138,-10.31130028,-1.198951721,20.03553009, 
242,492305070,144.5120544,70.99623108,91.68377686,-10.89747715,1.331634879,-3.364844561,-7.342982769,0.979866087,15.91700268, 
243,492321737,144.1696472,70.86215973,91.40631866,-10.72148228,1.647049308,-3.392523289,-4.649212837,2.041909456,11.47268963, 
244,492338404,143.916275,70.79969025,91.20011902,-10.52534485,1.713906288,-3.255573511,-3.356346369,-0.678768754,7.860513687, 
245,492355071,143.6277618,70.822052,90.93127441,-10.31339359,1.576561332,-3.044968367,-1.910394073,-5.550010681,5.857638836, 
246,492371738,143.2937927,70.91195679,90.59477234,-10.11082172,1.445194364,-2.88147831,-0.791234255,-9.60283947,4.489139557, 
247,492388405,142.9368896,71.07743073,90.20664215,-9.989383698,1.337048411,-2.699908733,0.78290385,-13.81321335,2.503847599, 
248,492405072,142.6358032,71.32613373,89.86054993,-9.707306862,1.293848276,-2.53809166,1.784118295,-17.24789619,-1.284574151, 
249,492421739,142.4218292,71.64452362,89.60942078,-9.672795296,1.037536621,-2.290665627,1.651432514,-19.36885834,-5.394125462, 
250,492438406,142.3218384,72.04769135,89.45828247,-9.635137558,0.709263206,-2.130399466,2.833577633,-22.16027832,-10.07583332, 
251,492455073,142.3001251,72.58426666,89.33811188,-9.367788315,0.507422268,-2.02558279,5.793678761,-28.07077408,-15.45790482, 
252,492471740,142.5398712,73.24136353,89.40187836,-8.876929283,0.364668518,-1.947472692,10.9726572,-31.78933716,-22.39957619, 
253,492488407,142.9150238,74.02211761,89.54044342,-8.616638184,0.311024159,-1.862149596,14.79139423,-37.06932068,-27.658535, 
254,492505074,143.2125549,74.9431839,89.55250549,-8.206406593,0.273336142,-1.500903249,17.43576622,-45.25018311,-30.74863052, 
255,492521741,143.5762024,75.94039917,89.60733795,-8.06548214,0.296788663,-1.24058795,18.94478035,-48.70914459,-33.69569778, 
256,492538408,144.075882,77.00642395,89.78049469,-7.946881771,0.180508316,-1.275137663,20.21377754,-51.33086777,-37.03679657, 
257,492555075,144.8804779,78.14519501,90.21321106,-7.699829578,0.197966158,-1.220864177,23.28551483,-53.47997284,-41.54395676, 
258,492571742,146.0065765,79.32692719,90.96096039,-7.468596458,0.163385481,-0.981735051,23.95818901,-54.51482391,-44.71271133, 
259,492588409,147.811676,80.45858002,92.34487152,-7.485649586,0.105334662,-1.150134802,26.98405457,-49.99960709,-46.5426712, 
260,492605076,150.3351288,81.61437988,94.3164444,-7.594741821,0.004910433,-0.997541249,35.00661469,-51.06162643,-48.69891739, 
261,492621743,153.7805023,82.82250214,97.07270813,-7.505290031,-0.092477724,-0.725634992,43.34613419,-54.5658493,-50.97945023, 
262,492638410,158.310318,83.95993042,100.9067459,-6.921594143,-0.349032432,-0.848362505,43.77206802,-52.58256531,-49.11454391, 
263,492655077,163.9428711,84.88388824,105.9204178,-6.681750774,-0.442123592,-1.109374881,39.08766937,-43.93969345,-42.79738998, 
264,492671744,170.9456787,85.61863708,112.2812195,-6.580295563,-0.575526178,-1.242377877,40.37970734,-37.08731461,-37.60380554, 
265,492688411,179.190155,86.10997009,119.8171082,-6.785612583,-0.392597735,-1.099140286,44.27673721,-27.50852394,-32.19240952, 
266,492705078,-172.2065582,86.42007446,127.7026825,-7.008777142,-0.280064702,-1.157080173,44.64918518,-21.39102554,-26.80724907, 
267,492721745,-165.1472321,86.43927002,134.0864716,-7.671914101,0.039720666,-1.303440452,41.89247894,-6.816110611,-20.35227013, 
268,492738412,-159.3100891,86.28859711,139.3621826,-8.196621895,0.117008597,-1.968478918,34.94692993,1.446549177,-19.08561897, 
269,492755079,-152.6669769,86.29302979,145.2657166,-8.546912193,0.043069992,-2.418632984,45.7375946,-10.61537457,-18.06570053, 
270,492771746,-144.1993103,86.41996765,152.974411,-8.7348423,0.263016731,-1.905434489,47.1171608,-22.96432114,-18.3145256, 
271,492788413,-135.3570709,86.48509216,161.175766,-8.600846291,0.329543233,-1.497513175,40.03351212,-23.75581551,-18.02890587, 
272,492805080,-128.7108154,86.34194183,167.2752075,-8.864292145,0.427364856,-1.041953683,34.20552826,-12.42635059,-19.03363419, 
273,492821747,-123.4243088,86.09651184,171.95401,-9.088691711,-0.071661696,-1.693894029,37.75324249,-7.478068352,-20.17563438, 
274,492838414,-117.7558365,85.89673615,177.0519409,-9.243505478,-0.168516085,-1.761848688,35.66638947,-13.49325943,-18.59335709, 
275,492855081,-112.6288528,85.7177887,-178.3913269,-9.437932014,-0.586364448,-1.774534941,35.65147781,-14.76973629,-15.65232944, 
276,492871748,-108.5252151,85.54711151,-174.8621674,-9.662200928,-0.384117931,-1.536649227,35.79530716,-12.78442764,-12.71094418, 
277,492888415,-104.8752213,85.36769104,-171.8733978,-9.901368141,-0.534933686,-1.429420829,40.9731102,-11.83015823,-11.85865211, 
278,492905082,-100.8553391,85.20233154,-168.5490112,-10.02384567,-0.395967036,-1.265265942,43.14060974,-15.1179409,-10.81201649, 
279,492921749,-94.68782806,85.06159973,-162.9325562,-9.756889343,-0.562228799,-1.377809644,35.02297211,-28.54835129,-9.744174004, 
280,492938416,-87.46077728,84.85463715,-156.283905,-9.36011219,-0.75782311,-0.973979294,37.01641464,-36.19644547,-10.58564758, 
281,492955083,-82.34650421,84.60064697,-151.824707,-8.918000221,-0.732846856,-0.50205946,41.20800018,-27.24740028,-10.54030323, 
282,492971750,-81.35385895,84.40658569,-151.511322,-8.9535532,-0.657289565,-0.542186439,41.63245773,-4.847343445,-8.830285072, 
283,492988417,-82.70059204,84.27474976,-153.5397034,-9.427697182,-0.459818512,-0.850309968,41.09230423,9.368634224,-7.071115017, 
284,493005084,-84.1000824,84.1920166,-155.4640961,-9.840325356,-0.250604481,-1.299288273,31.6984787,9.514681816,-3.868986368, 
285,493021751,-84.0928421,84.10897827,-155.8378601,-9.889266968,-0.225209638,-1.318450212,23.53455734,0.285479724,-2.82313323, 
286,493038418,-83.87004089,84.01300049,-155.9684296,-9.718039513,-0.285047412,-1.211451769,21.95197678,-1.311340451,-3.485913515, 
287,493055085,-83.62569427,83.93431091,-155.9821625,-9.627960205,-0.333276689,-1.278635383,16.28339386,-1.976489186,-2.400981903, 
288,493071752,-83.05994415,83.88948822,-155.611557,-9.570670128,-0.444948673,-1.326357365,12.63384151,-4.240984917,-0.140748262, 
289,493088419,-82.5970459,83.87202454,-155.2719727,-9.445520401,-0.613359272,-1.27483201,8.324501038,-3.913832903,1.457875133, 
290,493105086,-82.43521118,83.86825562,-155.2376404,-9.334774017,-0.91696018,-1.171206594,8.476794243,-1.912558198,2.017935276, 
291,493121753,-83.034935,83.88983917,-155.9539642,-9.415408134,-0.979736507,-1.136826396,7.558348179,3.008417368,2.887640476, 
292,493138420,-84.0100174,83.94022369,-157.044754,-9.641348839,-1.011999249,-1.186966181,7.389714241,5.501340389,4.405539513, 
293,493155087,-85.0460434,84.02073669,-158.1746979,-9.670002937,-0.882419467,-1.071401477,6.077204227,5.770159245,6.295039654, 
294,493171754,-86.5265274,84.13178253,-159.7250366,-9.747610092,-0.841785789,-1.021182775,4.510270596,8.267295837,8.089633942, 
295,493188421,-88.34183502,84.27628326,-161.5787659,-9.872101784,-0.822892547,-1.013908267,2.551385403,9.785761833,10.29811859, 
296,493205088,-90.25567627,84.45903015,-163.4853516,-9.909410477,-0.76068151,-1.04546845,-0.177412912,9.511706352,12.94753647, 
297,493221755,-92.04268646,84.67910767,-165.2326508,-9.863170624,-0.583595276,-1.092010379,-2.040969133,7.781748295,15.50483036, 
298,493238422,-93.58540344,84.93492889,-166.6997528,-9.852194786,-0.412646949,-1.057862282,-4.104126453,5.306305408,17.79381943, 
299,493255089,-95.15784454,85.21504974,-168.2010956,-9.895709991,-0.354110301,-0.994954884,-3.797543049,4.506893635,19.39771652, 
300,493271756,-96.62893677,85.52617645,-169.5629578,-9.861925125,-0.266315907,-0.805556893,-6.039402008,2.700799942,21.25495338, 
301,493288423,-98.52059174,85.87355804,-171.3141785,-9.778001785,-0.269967824,-0.776488543,-7.912541866,3.102101564,23.71639824, 
302,493305090,-100.5749435,86.24271393,-173.1802521,-9.897625923,-0.096672222,-0.614588678,-10.79852867,1.951257467,25.06597328, 
303,493321757,-101.058548,86.6532135,-173.4712372,-9.795825005,-0.065652594,-0.350540251,-10.83277512,-5.5333004,26.32232094, 
304,493338424,-99.73664856,87.10559082,-171.9219666,-9.70098877,-0.105308354,0.213154659,-12.74805832,-11.84667969,27.68205261, 
305,493355091,-96.58231354,87.55447388,-168.5361786,-9.712977409,-0.400838435,0.828215539,-12.91820717,-15.13793945,27.18227577, 
306,493371758,-95.95586395,87.94358063,-167.7359467,-9.675507545,-0.646238148,1.323155522,-9.645978928,-6.336335659,24.8782196, 
307,493388425,-101.8151855,88.28034973,-173.4387817,-9.868380547,-0.817711353,1.291931033,-8.858230591,6.163454533,23.53805923, 
308,493405092,-111.9681702,88.57317352,176.5723572,-10.29596233,-0.917917669,1.064567208,-9.374624252,8.844356537,23.38396645, 
309,493421759,-122.1432343,88.84174347,166.5280914,-10.48705196,-0.909934163,0.951617122,-7.241985798,3.022125006,22.38791084, 
310,493438426,-131.8572693,89.12911987,156.9348602,-10.0826149,-0.858617425,0.960248351,-6.640264511,-3.929078817,21.75879669, 
311,493455093,-148.3765106,89.32189178,140.4379883,-9.861380577,-0.686643779,0.880880952,-0.767722428,-1.881184578,19.47352791, 
312,493471760,-170.6444855,89.38962555,118.1260757,-9.580779076,-0.370328188,0.685272157,3.179038525,-0.068456404,17.33811188, 
313,493488427,169.4020081,89.38962555,98.03874969,-9.352430344,-0.106160432,0.629260063,8.667871475,-1.712127447,14.74578476, 
314,493505094,151.8340149,89.40357208,80.27878571,-8.984255791,0.065643482,0.809830666,12.24398518,-6.181125641,12.17814732, 
315,493521761,138.9667053,89.37505341,67.20058441,-8.749004364,0.041432913,0.950989664,13.26213074,-4.824343204,9.799149513, 
316,493538428,135.2545776,89.29335022,63.25606918,-8.811766624,-0.047182158,0.899268866,14.61575985,0.239030764,7.290443897, 
317,493555095,139.0702362,89.17884827,66.84502411,-9.000614166,-0.144831732,0.782280266,14.33491611,5.537483215,4.49121666, 
318,493571762,146.2168732,89.0459137,73.79129791,-9.223027229,-0.171300799,0.565702856,12.71963692,8.812236786,1.619197845, 
319,493588429,153.3466797,88.96997833,80.74427032,-9.345695496,-0.173436508,0.455790132,11.36589813,6.171613693,-2.014484644, 
320,493605096,161.9941711,88.99712372,89.22809601,-9.25074482,-0.279345423,0.475280255,10.55281067,0.58723557,-7.013484955, 
321,493621763,175.8451691,88.98721313,102.8944931,-9.109199524,-0.277188748,0.513441861,11.85602665,2.027439117,-12.06448269, 
322,493638430,-168.987381,88.85295105,117.8648911,-9.367930412,-0.099147096,0.431947768,12.67739582,5.641500473,-15.38493824, 
323,493655097,-155.335907,88.69659424,131.3193817,-9.593560219,0.03475247,0.434993386,12.68638802,2.301292181,-17.30154037, 
324,493671764,-139.9394684,88.56932831,146.5441132,-9.41006279,-0.067779571,0.609802604,11.24202728,-6.505684853,-20.46404648, 
325,493688431,-126.7260056,88.30142212,159.550293,-9.010931969,-0.165086597,0.786839962,13.40952587,-5.742145538,-24.27108955, 
326,493705098,-121.7735062,87.86018372,164.3890228,-9.217744827,-0.313589394,0.638600826,7.681191444,5.649855614,-25.39661407, 
327,493721765,-122.1749115,87.34229279,164.0292969,-9.762042046,-0.620522261,-0.225331962,-1.840783596,16.04347038,-23.93918037, 
328,493738432,-129.4837341,86.64164734,156.8274841,-11.12290382,-0.98734051,-1.592627645,-6.319911003,41.76470184,-18.82053947, 
329,493755099,-139.0095978,85.7321701,147.2889099,-12.87374306,-1.309741378,-3.14749527,0.192277357,63.96955109,-10.48397541, 
330,493771766,-143.7229156,85.19364166,142.2616882,-13.1684618,-0.995923102,-3.897831202,18.57252693,38.8286438,0.436340779, 
331,493788433,-141.535202,85.49889374,144.1745911,-10.77494717,-0.210845828,-3.396187305,17.55271721,-21.56718063,5.671961784, 
332,493805100,-133.2436371,86.18115234,152.1426697,-7.728345394,0.4872832,-1.508393764,21.35921669,-54.94720078,4.086812019, 
333,493821767,-129.1619415,86.28490448,155.5826263,-6.774400711,0.818403184,0.301266938,39.61316299,-15.73373413,-2.359284401, 
334,493838434,-135.291687,85.72685242,149.0303345,-8.205874443,0.620445311,-0.369330376,25.11351967,41.3022728,-4.473326206, 
335,493855101,-142.1140594,84.95469666,142.1297913,-10.5230875,-0.09880273,-2.103460789,4.017255306,55.51440811,-3.425691128, 
336,493871768,-145.1314545,84.41152954,139.0792084,-10.98051262,-0.258145273,-2.730049372,1.89556551,34.83520126,-3.840007067, 
337,493888435,-146.7390137,84.06060028,137.5792389,-10.22423649,-0.407578319,-2.417140484,-6.212927818,21.0031414,-2.494610786, 
338,493905102,-148.4855347,83.70119476,135.8874969,-9.283098221,-0.402495146,-2.072170973,-3.184900045,22.47321129,-0.621640563, 
339,493921769,-150.3968658,83.26996613,134.0049744,-9.029229164,-0.245561108,-1.802113295,-1.756453037,27.2207489,-0.327337593, 
340,493938436,-152.1800232,82.81297302,132.3987579,-9.298301697,-0.131590888,-1.855430007,-10.64136028,28.07777977,-1.163095474, 
341,493955103,-153.3805542,82.41522217,131.486969,-9.735566139,-0.163966313,-2.047097683,-17.0764122,22.83438873,-2.904738188, 
342,493971770,-154.1092377,82.07739258,131.1578369,-9.882983208,-0.400802553,-2.168693304,-23.45887756,17.73756409,-4.843920231, 
343,493988437,-154.705246,81.7816925,131.0683441,-9.837841034,-0.630501747,-2.238706112,-29.75210381,14.69310284,-5.269750118, 
344,494005104,-155.1903076,81.52309418,131.1479645,-9.458752632,-0.951593578,-2.249041319,-33.12991333,12.10147762,-5.490829468, 
345,494021771,-155.947052,81.23142242,130.9559937,-9.117757797,-1.153717518,-2.139652252,-33.3201828,14.96960449,-3.963334322, 
346,494038438,-157.0662384,80.96230316,130.3939056,-9.210786819,-1.372917175,-2.102433681,-33.12906265,15.19229603,0.058461256, 
347,494055105,-158.8171387,80.70407867,129.2104492,-9.309117317,-1.408268571,-2.296114445,-34.2588501,16.893713,6.382487774, 
348,494071772,-161.2880249,80.44432831,127.2734299,-9.906596184,-1.517446518,-2.09130311,-32.90912628,19.41153145,14.30089664, 
349,494088439,-164.0464172,80.31578827,125.061554,-10.23775578,-1.29276216,-1.770169377,-33.96461487,12.22461987,20.61463547, 
350,494105106,-166.5525208,80.37108612,123.1256943,-9.972675323,-1.101398945,-1.326242566,-35.17963409,-0.00177369,21.43574524, 
351,494121773,-168.427597,80.4621582,121.6930695,-9.585562706,-1.200629115,-0.970835745,-27.0737915,-3.960384607,16.91011429, 
352,494138440,-170.1694336,80.47857666,120.3366623,-9.202641487,-1.223320723,-0.557900786,-23.58233833,-0.167641997,15.19261169, 
353,494155107,-172.4512482,80.36830139,118.516777,-9.509175301,-1.266408205,-0.816633284,-28.57767868,7.612190247,18.74378586, 
354,494171774,-175.1511536,80.29756927,116.3398285,-10.08234215,-1.174849391,-1.571603537,-32.57935333,4.934724808,23.14967155, 
355,494188441,-178.13974,80.28177643,113.837822,-10.42016602,-0.874346316,-2.572247267,-30.70716095,0.789528906,27.03751373, 
356,494205108,178.7753296,80.34534454,111.0927963,-10.59820271,-0.124446869,-3.46391201,-22.09812546,-5.326218605,29.55963135, 
357,494221775,176.286026,80.5514679,108.7425613,-11.01873016,0.646013737,-3.102612495,-9.665462494,-15.05182934,24.66485214, 
358,494238442,175.3045044,80.97324371,107.825264,-11.06620312,0.792578697,-1.538852215,-3.930747986,-27.60136986,8.756727219, 
359,494255109,175.7476044,81.182724,108.496788,-9.597138405,0.119641155,-1.022718787,-12.58050728,-13.74728298,-5.431276321, 
360,494271776,176.4896545,80.99169159,109.6417389,-9.054739952,-0.396901071,-1.577077746,-22.69762611,10.46502781,-8.069562912, 
361,494288443,177.0046844,80.71539307,110.5748672,-8.937888145,-0.606112003,-2.240735531,-23.73756599,15.37647343,-6.169739723, 
362,494305110,177.1414032,80.56752014,111.0879135,-8.966744423,-0.467955053,-2.139251471,-21.53015709,7.416798115,-2.76144433, 
363,494321777,176.8705139,80.5663681,111.1878662,-9.364025116,-0.246036604,-2.004232407,-21.5280304,-1.590954781,0.810515285, 
364,494338444,176.4665833,80.76576996,111.1219406,-9.674103737,-0.249496803,-1.867984056,-19.69325256,-13.69486141,1.733342767, 
365,494355111,176.1580811,81.00870514,111.0804291,-9.740463257,-0.375382394,-1.614123225,-15.41283417,-16.28443718,1.245061159, 
366,494371778,175.924408,81.13614655,111.0850677,-9.929787636,-0.426245093,-1.666295052,-13.6533308,-9.337226868,1.223020315, 
367,494388445,175.7084351,81.23908997,111.084343,-10.12924099,-0.325506657,-1.822855473,-12.27980614,-7.862034321,1.357166648, 
368,494405112,175.5365753,81.3657608,111.1148376,-9.959310532,-0.176267326,-1.916350842,-11.48186874,-9.263845444,0.949156165, 
369,494421779,175.5727844,81.48576355,111.2760468,-9.698799133,-0.057348061,-1.88543117,-6.749160767,-8.778993607,-0.188579977, 
370,494438446,175.7728577,81.58492279,111.5417328,-9.587710381,-0.080044821,-1.813472271,-3.117149591,-7.470938683,-0.982445776, 
371,494455113,175.9119568,81.67150116,111.7353516,-9.517350197,-0.170186967,-1.764379621,-2.504480362,-6.775629044,-0.258079976, 
372,494471780,175.9600372,81.74642944,111.8313675,-9.474675179,-0.245758086,-1.689285994,-2.174473763,-6.140140057,0.660359561, 
373,494488447,175.9356232,81.80518341,111.8327103,-9.445791245,-0.207631588,-1.634727955,-0.899742246,-5.234640598,1.55102849, 
374,494505114,175.8972626,81.85088348,111.8011093,-9.52904129,-0.068013869,-1.669665098,0.214634418,-4.4643507,1.888449788, 
375,494521781,175.9077454,81.89068604,111.7908401,-9.668497086,0.047949661,-1.638931751,1.881726742,-4.102495193,1.732020497, 
376,494538448,176.0104065,81.93691254,111.8465347,-9.740112305,0.103363849,-1.600326777,3.494225502,-4.448868752,1.148742437, 
377,494555115,176.1629944,81.98168945,111.9478149,-9.731060982,0.10237734,-1.569764972,3.782586098,-4.332650661,0.778715789, 
378,494571782,176.3306427,82.01771545,112.0746002,-9.673230171,0.133546516,-1.591050029,3.167983294,-3.795411587,0.60933882, 
379,494588449,176.4641266,82.04549408,112.1828918,-9.62135601,0.189238802,-1.63190937,2.218546629,-3.311895609,0.799180388, 
380,494605116,176.5540771,82.07888031,112.2631073,-9.614249229,0.176365539,-1.656502128,1.280980825,-3.666887045,1.012009144, 
381,494621783,176.6037292,82.10553741,112.3108749,-9.627552032,0.126011059,-1.642445803,0.780214071,-3.271695852,1.301944733, 
382,494638450,176.608017,82.12884521,112.3193054,-9.619774818,0.08929088,-1.669239283,0.401543081,-3.093354464,1.635242701, 
383,494655117,176.5765381,82.15467834,112.2926254,-9.628554344,0.049737833,-1.658247948,0.351150125,-3.27136302,1.910528183, 
384,494671784,176.5250854,82.18795013,112.2324142,-9.629306793,-0.001838112,-1.587001443,1.138830304,-3.728306532,2.152094364, 
385,494688451,176.4601288,82.20575714,112.1522369,-9.684922218,-0.029625583,-1.594929934,1.509036541,-2.801216602,2.366063356, 
386,494705118,176.4116516,82.22736359,112.0716324,-9.672140121,-0.031826399,-1.571785569,2.539179087,-3.045023918,2.353090286, 
387,494721785,176.382843,82.2339325,111.9971848,-9.700128555,0.005574747,-1.542761207,3.340613842,-2.130548,2.356727362, 
388,494738452,176.3790588,82.24207306,111.9492035,-9.734129906,0.015234891,-1.55088985,3.272842169,-2.209101677,2.135369301, 
389,494755119,176.3679352,82.24845886,111.8989944,-9.730834007,0.060898449,-1.537544012,2.955538988,-2.097327948,2.15881753, 
390,494771786,176.3555908,82.26924896,111.8491211,-9.719168663,0.118927017,-1.544602633,2.877254248,-2.970555067,2.098756313, 
391,494788453,176.361969,82.2989502,111.8222122,-9.701796532,0.12735635,-1.5448035,2.622318029,-3.477033138,1.874696136, 
392,494805120,176.3756104,82.33560944,111.8139725,-9.686493874,0.114368126,-1.524144173,1.96236825,-3.897593737,1.69499743, 
393,494821787,176.405899,82.37638855,111.8328171,-9.713717461,0.094046734,-1.52395618,1.340581656,-4.117440224,1.461576104, 
394,494838454,176.4644318,82.42798615,111.879364,-9.715455055,0.047358785,-1.485810995,1.391563773,-4.754044533,1.20092833, 
395,494855121,176.5057526,82.47433472,111.9141617,-9.708132744,-0.012994455,-1.417380452,1.054641366,-4.438354969,1.315583587, 
396,494871788,176.5162506,82.50548553,111.9252167,-9.70324707,-0.03018471,-1.466127038,0.618405938,-3.541897297,1.559352517, 
397,494888455,176.5222168,82.54128265,111.9201508,-9.739405632,-0.0110656,-1.476103425,1.301266074,-3.817630529,1.66738677, 
398,494905122,176.5785675,82.5953064,111.9476013,-9.70674324,-0.003811238,-1.427441239,2.403675318,-4.905478954,1.352081776, 
399,494921789,176.6976929,82.63350677,112.0222702,-9.711765289,-0.013561763,-1.423044682,3.345864773,-3.921708584,1.048135996, 
400,494938456,176.8216095,82.67378235,112.1110687,-9.725893021,-0.001768869,-1.474470854,2.801107407,-4.045455456,0.942137659, 
401,494955123,176.9381561,82.71684265,112.1904221,-9.674591064,0.027453724,-1.49667418,2.910191774,-4.207635403,1.011138201, 
402,494971790,177.0366821,82.75189209,112.2577744,-9.66308403,0.066669539,-1.460383773,2.554136992,-3.74509573,1.135462284, 
403,494988457,177.1277008,82.78794861,112.313591,-9.697195053,0.089290179,-1.467443347,2.786405325,-3.806168556,1.221636057, 
404,495005124,177.2261963,82.82756042,112.3848114,-9.685435295,0.111115009,-1.520913839,2.314133167,-4.007664204,1.099783897, 
405,495021791,177.3282928,82.87701416,112.4659653,-9.706962585,0.05648692,-1.518389463,1.945233583,-4.601341248,1.000893235, 
406,495038458,177.4264374,82.90998077,112.5482635,-9.674217224,0.042591549,-1.514227867,1.641582012,-3.614957094,1.045023799, 
407,495055125,177.5176392,82.9357605,112.6269608,-9.658316612,0.021103516,-1.503856778,1.430315733,-3.175264359,1.092957973, 
408,495071792,177.5801697,82.9549408,112.6902924,-9.677194595,0.013455774,-1.499079823,0.6278826,-2.792866707,1.225759983, 
409,495088459,177.6447601,82.96542358,112.7588654,-9.671985626,-0.00697507,-1.504721165,0.443432629,-2.276949644,1.209162712, 
410,495105126,177.6876831,82.9677124,112.807312,-9.684654236,-0.005049537,-1.532980204,0.305149734,-1.788643718,1.374710441, 
411,495121793,177.7094116,82.97789001,112.8358917,-9.677435875,-0.006705892,-1.50368166,0.190238312,-2.269560575,1.498253226, 
412,495138460,177.7042542,82.98474121,112.8425446,-9.678714752,-0.0110323,-1.489211679,-0.067431837,-2.07281661,1.669205427, 
413,495155127,177.6990967,82.98586273,112.8518066,-9.66050148,-0.044818159,-1.472526312,-0.303926706,-1.738020062,1.656206846, 
414,495171794,177.6744843,82.97231293,112.844101,-9.679701805,-0.043420035,-1.485161424,-0.388525397,-0.86049062,1.821203828, 
415,495188461,177.6256561,82.95939636,112.8130798,-9.708000183,-0.050038099,-1.492213726,-0.434013575,-0.897744358,1.991951108, 
416,495205128,177.5739594,82.94239807,112.7749786,-9.690969467,-0.019983128,-1.493905544,-0.163159311,-0.658073545,2.057557821, 
417,495221795,177.5177307,82.92871094,112.7288895,-9.703557968,-0.033541072,-1.493205428,0.011935518,-0.864524722,2.10535121, 
418,495238462,177.4459686,82.91933441,112.6695251,-9.705161095,-0.04225881,-1.493570209,-0.200412974,-1.123917341,2.18774724, 
419,495255129,177.3713074,82.9072113,112.6133423,-9.692638397,-0.035506677,-1.454338074,-0.47070384,-0.956282198,2.178501129, 
420,495271796,177.2791748,82.88925934,112.5418015,-9.705657959,-0.059627328,-1.436857462,-0.718660355,-0.619782507,2.303516626, 
421,495288463,177.2046051,82.87509155,112.486557,-9.713127136,-0.085652754,-1.43642354,-0.544647694,-0.832700908,2.18015337, 
422,495305130,177.1472473,82.85726929,112.4418335,-9.725427628,-0.106798515,-1.453427672,-0.169472829,-0.617157161,2.112868547, 
423,495321797,177.0890045,82.85131836,112.3903809,-9.727648735,-0.149348572,-1.463098526,0.170644626,-1.327871323,2.129427195, 
424,495338464,177.0167389,82.84317017,112.3215027,-9.694860458,-0.132602513,-1.459109306,0.397035271,-1.197861195,2.270476341, 
425,495355131,176.9321136,82.83379364,112.2368393,-9.684788704,-0.097322434,-1.434651375,0.440845817,-1.143920898,2.384081364, 
426,495371798,176.8606415,82.82944489,112.1683121,-9.714299202,-0.09813752,-1.404412985,0.497424275,-1.423457861,2.265455961, 
427,495388465,176.8005219,82.81913757,112.1061478,-9.718032837,-0.102554947,-1.400682807,0.738811135,-1.063458443,2.23564291, 
428,495405132,176.7475281,82.81108856,112.0547104,-9.750166893,-0.119136289,-1.434570432,0.377748907,-1.198680758,2.138673306, 
429,495421799,176.7209167,82.80625916,112.0329742,-9.738200188,-0.112343736,-1.443292737,0.331786931,-1.376484156,1.917853594, 
430,495438466,176.69664,82.80647278,112.0170746,-9.68944931,-0.089514107,-1.424761057,0.118381895,-1.675486803,1.856549382, 
431,495455133,176.6689758,82.79881287,112.0006943,-9.69510746,-0.048608199,-1.40484643,-0.040256757,-1.198437452,1.889525533, 
432,495471800,176.6451569,82.79290771,111.9944382,-9.748913765,-0.037945215,-1.425095081,-0.499044269,-1.30301404,1.802032709, 
433,495488467,176.6413269,82.80587769,112.0125656,-9.711910248,-0.059051599,-1.378470421,-0.686964691,-2.415668249,1.556752801, 
434,495505134,176.6639862,82.80516052,112.05867,-9.699778557,-0.092580378,-1.44651413,-0.709721565,-1.5911057,1.399465084, 
435,495521801,176.6867981,82.80098724,112.1002655,-9.757212639,-0.109523289,-1.480180025,-0.700167954,-1.385294914,1.427677512, 
436,495538468,176.7168884,82.80271149,112.1403427,-9.737041473,-0.104492053,-1.483657956,0.018415531,-1.72981143,1.431186438, 
437,495555135,176.7489777,82.8102951,112.1822968,-9.685786247,-0.077281937,-1.419873357,0.165867865,-2.073277712,1.40887785, 
438,495571802,176.7949066,82.80892944,112.243721,-9.672582626,-0.069876194,-1.401199698,-0.19837676,-1.540712714,1.290892839, 
439,495588469,176.8292999,82.80307007,112.3031769,-9.718450546,-0.094292872,-1.476414561,-0.846237123,-1.264735818,1.316351891, 
440,495605136,176.8366241,82.80458832,112.3383636,-9.726545334,-0.111104786,-1.48382318,-0.96689868,-1.716966629,1.478262544, 
441,495621803,176.8238983,82.80456543,112.3523788,-9.733388901,-0.103228092,-1.440883756,-0.933333218,-1.630882144,1.641684413, 
442,495638470,176.8152924,82.80979919,112.3688812,-9.708041191,-0.073746495,-1.421226621,-0.935369313,-1.943792462,1.598257899, 
443,495655137,176.8098907,82.81690216,112.3922806,-9.680027008,-0.089625426,-1.40893352,-1.110547423,-2.06273818,1.546520352, 
444,495671804,176.8233337,82.81695557,112.4397888,-9.664391518,-0.131257027,-1.432438016,-1.37261641,-1.619663715,1.389706612, 
445,495688471,176.8326721,82.80739594,112.483963,-9.696563721,-0.106640056,-1.455660224,-1.422394872,-1.044492245,1.447091937, 
446,495705138,176.8180847,82.8032074,112.5130463,-9.724225044,-0.095552757,-1.484970093,-1.793625236,-1.367084265,1.554690719, 
447,495721805,176.7917023,82.80336761,112.531929,-9.70015049,-0.088281132,-1.416476488,-1.873908281,-1.629959941,1.620669127, 
448,495738472,176.7637787,82.80170441,112.5514755,-9.693894386,-0.133137405,-1.425422907,-2.125924826,-1.524679422,1.610398769, 
449,495755139,176.7261963,82.79480743,112.5595856,-9.69792366,-0.136009991,-1.469912887,-2.173935652,-1.2232306,1.705805898, 
450,495771806,176.6895447,82.7901001,112.5702896,-9.715331078,-0.141580731,-1.47512567,-2.254846096,-1.344865322,1.681653261, 
451,495788473,176.664505,82.7844696,112.5838242,-9.715434074,-0.13860254,-1.447632432,-1.951002598,-1.297865868,1.648535728, 
452,495805140,176.6280823,82.77762604,112.5946655,-9.739213943,-0.127274513,-1.403631806,-2.156301022,-1.22375536,1.696700454, 
453,495821807,176.5865173,82.77555847,112.6045074,-9.728720665,-0.104233474,-1.419185042,-2.515775442,-1.507505774,1.68334341, 
454,495838474,176.5467834,82.77944183,112.622261,-9.713359833,-0.138136119,-1.389678121,-2.830043077,-1.858041167,1.6075809, 
455,495855141,176.5248718,82.78368378,112.6562119,-9.702834129,-0.164229289,-1.408985019,-2.890015125,-1.876392603,1.471654415, 
456,495871808,176.5115662,82.794487,112.6988373,-9.722445488,-0.162422761,-1.406418324,-2.742883205,-2.250619888,1.392703295, 
457,495888475,176.5085297,82.80052948,112.750061,-9.709815979,-0.179773107,-1.392924309,-2.544512749,-1.966190577,1.352273583, 
458,495905142,176.5161743,82.80958557,112.8126755,-9.741640091,-0.205353975,-1.383296847,-2.582573414,-2.135695696,1.260452271, 
459,495921809,176.5193634,82.82110596,112.8688202,-9.713805199,-0.24637489,-1.40117681,-2.621133089,-2.292074203,1.292749763, 
460,495938476,176.5330505,82.83150482,112.9313965,-9.721849442,-0.223694086,-1.381971478,-2.299296856,-2.219372272,1.25993979, 
461,495955143,176.5375366,82.84508514,112.9805298,-9.705405235,-0.18979311,-1.350862384,-2.095803976,-2.415616751,1.346152186, 
462,495971810,176.5511627,82.85864258,113.0362473,-9.715770721,-0.216522351,-1.368044972,-1.947340131,-2.411723852,1.300677061, 
463,495988477,176.5661621,82.87445831,113.0979156,-9.729825974,-0.212900355,-1.416293859,-2.060150862,-2.536816359,1.26125896, 
464,496005144,176.5812988,82.88986206,113.1576614,-9.735151291,-0.197952658,-1.415941834,-2.083164215,-2.518451929,1.272707939, 
465,496021811,176.6246033,82.91319275,113.2467041,-9.763898849,-0.176255137,-1.413598776,-2.160886288,-2.975024462,1.030296564, 
466,496038478,176.6702118,82.94940186,113.3403244,-9.731333733,-0.179635972,-1.383662701,-2.333195686,-3.752305746,0.952894986, 
467,496055145,176.7220154,82.97468567,113.4431686,-9.687894821,-0.193770185,-1.358529329,-2.598389149,-3.100231409,0.924413502, 
468,496071812,176.7789764,82.99140167,113.554657,-9.702204704,-0.206067532,-1.409785986,-2.673997879,-2.573339701,0.905050457, 
469,496088479,176.8171234,83.019104,113.6513062,-9.693862915,-0.195764691,-1.334570527,-2.884701014,-3.234749556,0.981453061, 
470,496105146,176.871933,83.03829956,113.7583694,-9.713640213,-0.205646053,-1.348816752,-2.455290556,-2.722469568,0.943469405, 
471,496121813,176.917923,83.05867004,113.8568573,-9.742346764,-0.216986135,-1.389730811,-2.406652927,-2.788730145,1.010408401, 
472,496138480,176.9810791,83.08959198,113.9582443,-9.757535934,-0.226377279,-1.424553514,-1.599366188,-3.429713964,0.958094418, 
473,496155147,177.0577545,83.13236237,114.0695877,-9.71740818,-0.218610674,-1.371727467,-1.373231173,-4.125866413,0.858742654, 
474,496171814,177.144104,83.17758179,114.190033,-9.678841591,-0.191681251,-1.318177462,-1.350705147,-4.270783901,0.795863509, 
475,496188481,177.2332001,83.21840668,114.316246,-9.695222855,-0.195251346,-1.34989202,-1.47358191,-4.014541149,0.782660127, 
476,496205148,177.2973328,83.25460052,114.4267273,-9.714496613,-0.224479273,-1.344994187,-2.183501959,-3.741829634,0.908520818, 
477,496221815,177.3387909,83.28875732,114.5256729,-9.704949379,-0.217663899,-1.364693284,-2.602474451,-3.620208263,1.016068816, 
478,496238482,177.3621674,83.32032776,114.5992508,-9.725842476,-0.23572509,-1.354498863,-2.24191165,-3.473050356,1.20183754, 
479,496255149,177.3766785,83.35755157,114.6567764,-9.736484528,-0.22728771,-1.355417132,-1.915836334,-3.810420036,1.29897356, 
480,496271816,177.4136047,83.40501404,114.7294083,-9.723906517,-0.223279238,-1.323920369,-1.636247873,-4.440274715,1.164135575, 
481,496288483,177.4481201,83.44665527,114.8043518,-9.710617065,-0.184775576,-1.3277632,-1.868068695,-4.083042145,1.17339468, 
482,496305150,177.509964,83.48741913,114.9045181,-9.703079224,-0.182876453,-1.284314036,-1.647312999,-4.016154766,1.014506221, 
483,496321817,177.5387878,83.52976227,114.9749374,-9.712801933,-0.184015781,-1.278558731,-1.876277804,-4.131450653,1.218396425, 
484,496338484,177.53685,83.57209015,115.0165176,-9.750524521,-0.192771032,-1.292286277,-2.054811001,-4.134344578,1.414102793, 
485,496355151,177.5124664,83.63049316,115.0415726,-9.784586906,-0.186583728,-1.258807898,-2.34974122,-5.096716404,1.489160895, 
486,496371818,177.5009613,83.69739532,115.0802307,-9.741991997,-0.167856395,-1.206296563,-2.367503405,-5.599326611,1.37916708, 
487,496388485,177.5318909,83.76438904,115.1631393,-9.742787361,-0.191813797,-1.18063426,-2.469160557,-5.597099304,1.093495965, 
488,496405152,177.6179962,83.84234619,115.3038559,-9.749729156,-0.210487396,-1.154879689,-2.718154669,-6.243692398,0.698945045, 
489,496421819,177.7530823,83.93169403,115.4939117,-9.80290699,-0.214539334,-1.168157101,-2.6904037,-6.902349472,0.379272997, 
490,496438486,177.8934174,84.04286957,115.691658,-9.826891899,-0.214808077,-1.078920603,-2.734777927,-8.220085144,0.319889873, 
491,496455153,178.0740662,84.17708588,115.9300613,-9.800426483,-0.226440132,-1.039303303,-2.76378417,-9.593951225,0.065440476, 
492,496471820,178.3402557,84.32691193,116.253891,-9.782933235,-0.290346324,-0.980358183,-2.786950827,-10.51530361,-0.411372125, 
493,496488487,178.7342834,84.47483063,116.6926804,-9.747356415,-0.366544306,-0.941952944,-1.989383936,-10.39977741,-0.976964772, 
494,496505154,179.2357635,84.61453247,117.2231903,-9.802159309,-0.370656818,-0.95348084,-0.940914929,-9.907757759,-1.350359559, 
495,496521821,179.7257538,84.77119446,117.7442245,-9.77701664,-0.395461679,-0.89022547,-1.144228578,-10.94817066,-1.151925206, 
496,496538488,-179.7709656,84.93167877,118.2647934,-9.723383904,-0.442183584,-0.910996974,-0.309997022,-11.21249485,-0.977489948, 
497,496555155,-179.2760162,85.0880127,118.7606125,-9.699771881,-0.454292774,-0.919279337,0.658912599,-10.97976589,-0.676361263, 
498,496571822,-178.6963959,85.26322937,119.3150482,-9.712956429,-0.445870668,-0.965714097,2.23204565,-12.13738441,-0.773561656, 
499,496588489,-178.0308228,85.42744446,119.9406815,-9.72082901,-0.435990095,-0.949819207,3.116669893,-11.50622177,-0.922128081, 
500,496605156,-177.2359619,85.56951141,120.6654129,-9.749539375,-0.423379242,-0.928776622,4.936324596,-10.22339535,-1.213062763, 
501,496621823,-176.3371887,85.70235443,121.4802551,-9.702264786,-0.387946218,-0.891135097,5.778624058,-9.741262436,-1.417426467, 
502,496638490,-175.2843323,85.82608032,122.4325104,-9.605186462,-0.480440885,-0.886887312,6.786664486,-9.282693863,-1.813309789, 
503,496655157,-174.2076416,85.90825653,123.3884583,-9.606128693,-0.550280213,-0.897526026,7.989244938,-6.853878021,-1.808404684, 
504,496671824,-173.1688995,85.97415924,124.3062515,-9.737704277,-0.516375065,-0.984683394,7.993406296,-5.933356285,-1.576135635, 
505,496688491,-171.9549866,86.061203,125.4029007,-9.82981205,-0.493126392,-0.981424809,7.787173271,-7.345961571,-1.987834334, 
506,496705158,-170.5856628,86.16549683,126.6756439,-9.769883156,-0.45925951,-0.88917917,6.568109989,-8.54162693,-2.29539156, 
507,496721825,-169.1496124,86.27311707,128.0114136,-9.728884697,-0.472738922,-0.875473619,6.778608322,-8.847327232,-2.194823503, 
508,496738492,-167.7969208,86.36466217,129.2698364,-9.810665131,-0.531351686,-0.825371683,6.401921749,-7.922836781,-1.775338531, 
509,496755159,-166.4369659,86.44355774,130.5340118,-9.796825409,-0.513937771,-0.884029567,6.489657879,-7.244983196,-1.701151133, 
510,496771826,-164.8362732,86.52441406,132.0350494,-9.778120041,-0.480078876,-0.931517422,6.748667717,-7.652239323,-2.259572506, 
511,496788493,-163.0391235,86.60961914,133.7293701,-9.709396362,-0.391984016,-0.883563936,6.943170547,-8.167336464,-2.549700499, 
512,496805160,-161.3836365,86.67457581,135.2732239,-9.761311531,-0.312031716,-0.889042616,7.437264919,-6.933007717,-2.091578484, 
513,496821827,-160.0778046,86.73997498,136.4905396,-9.851508141,-0.113600843,-0.936686993,6.028283596,-6.665675163,-0.776634872, 
514,496838494,-158.9694519,86.83467865,137.564682,-9.818624496,0.022889525,-0.953322053,2.737089157,-8.158857346,0.48598823, 
515,496855161,-157.9406891,86.94469452,138.6024628,-9.757962227,0.098298684,-0.872693062,0.152011409,-8.962302208,1.162291765, 
516,496871828,-156.7692566,87.07444,139.8208466,-9.771952629,0.129485995,-0.693970799,-2.123927355,-10.23793125,1.351403356, 
517,496888495,-155.412796,87.21857452,141.2721863,-9.933725357,0.033597261,-0.568005085,-4.998609543,-11.23675251,1.402398586, 
518,496905162,-153.7994537,87.39015961,143.0319824,-10.06957722,-0.146316379,-0.399999112,-8.061187744,-13.02201176,1.794567943, 
519,496921829,-152.6087799,87.5535202,144.4157257,-10.09567547,-0.377480865,-0.316749036,-10.91226864,-11.97144413,3.002400398, 
520,496938496,-152.6130371,87.69200134,144.6542816,-10.09474754,-0.514534712,-0.392847955,-13.94237137,-9.24474144,5.160222054, 
521,496955163,-153.7018585,87.82022095,143.8219452,-10.00605297,-0.466765225,-0.558441281,-14.85313416,-7.533259869,7.063209057, 
522,496971830,-154.7568512,87.9681778,142.9828796,-9.853829384,-0.456497967,-0.555169642,-12.38698578,-8.779408455,7.389014721, 
523,496988497,-155.1450653,88.14945221,142.7256775,-9.601802826,-0.440241367,-0.298580736,-7.28915596,-11.19059944,6.926766872, 
524,497005164,-155.6277771,88.31786346,142.2821655,-9.333153725,-0.399538308,-0.045607269,-1.798274875,-10.39405441,6.801110268, 
525,497021831,-157.0229645,88.42567444,140.8639984,-9.213873863,-0.399351507,0.117634401,1.965173244,-6.544974804,6.683123112, 
526,497038498,-160.2400055,88.44304657,137.6231842,-9.361960411,-0.487496555,0.136153251,1.937729359,-0.591493428,7.186861515, 
527,497055165,-164.4440155,88.43077087,133.4680786,-9.556142807,-0.445779055,0.141157061,-2.440858841,1.21390152,8.120944023, 
528,497071832,-167.8953094,88.44178772,130.0862732,-9.488524437,-0.469596475,0.183285967,-3.658602476,-0.865165114,7.401456833, 
529,497088499,-170.7205048,88.40787506,127.2675476,-9.48582077,-0.374103129,0.393063843,0.128575772,1.341593266,6.057865143, 
530,497105166,-173.40625,88.31101227,124.5469055,-9.699676514,-0.347826838,0.396934122,2.620103121,4.873969555,5.698647976, 
531,497121833,-176.4283447,88.20039368,121.508728,-9.833315849,-0.361960322,0.219831198,1.470489621,5.581431866,6.813774109, 
532,497138500,-179.9582367,88.06983948,117.9650345,-9.736377716,-0.222130433,0.018296704,1.327583432,6.516871452,8.545859337, 
533,497155167,176.6318359,87.97184753,114.5680695,-9.703398705,-0.137829155,-0.091422811,-0.332420975,4.184796333,9.081728935, 
534,497171834,173.5858154,87.91568756,111.5020447,-9.604556084,-0.257467389,0.077824347,1.671856642,1.299844861,8.739093781, 
535,497188501,171.0055847,87.80982971,108.862915,-9.517203331,-0.38972944,0.295317978,4.011168003,4.006378174,8.579706192, 
536,497205168,169.006073,87.64749146,106.7960434,-9.38926506,-0.524723053,0.316697091,4.515789986,7.268157959,8.411714554, 
537,497221835,167.5999146,87.45071411,105.312233,-9.214342117,-0.571690619,0.110850364,5.175970554,9.304880142,8.003933907, 
538,497238502,166.5133362,87.2507782,104.1173019,-9.104828835,-0.576555312,0.070813365,7.006012917,9.499526024,7.809393406, 
539,497255169,165.3326569,87.06175232,102.7802658,-9.002557755,-0.627364874,0.082142524,9.867211342,8.582989693,8.514948845, 
540,497271836,164.2234955,86.84055328,101.4710541,-9.074988365,-0.611061037,0.089461274,12.49134159,10.28722477,9.422706604, 
541,497288503,163.8427124,86.56191254,100.8386002,-9.356799126,-0.626368523,0.019490566,15.34282875,14.00722599,8.607457161, 
542,497305170,163.9286652,86.32006836,100.6478653,-9.638526917,-0.621498883,-0.028976468,17.15319824,12.33627415,6.631472111, 
543,497321837,164.2597961,86.10328674,100.728035,-9.659564018,-0.53971833,-0.082021892,15.69571304,11.19486523,5.186284542, 
544,497338504,164.7150116,85.88858032,100.9359589,-9.72161293,-0.515166104,-0.04670389,15.43767548,11.23808575,4.537910461, 
545,497355171,165.1671143,85.69297791,101.1376724,-9.687807083,-0.646332145,-0.020748267,15.60118675,10.15542221,4.127107143, 
546,497371838,165.5401764,85.46331024,101.2689514,-9.638009071,-0.716592729,-0.097378694,15.09672165,12.10719109,4.844199657, 
547,497388505,165.8479767,85.26683044,101.306778,-9.461924553,-0.672108591,-0.150026247,16.76502037,10.09502888,4.689154148, 
548,497405172,166.2899933,85.08917236,101.4456635,-9.347608566,-0.664444387,-0.020231158,18.76892281,9.155989647,3.849798918, 
549,497421839,166.9043884,84.8815155,101.7417068,-9.257871628,-0.614052355,0.09534622,19.73140335,11.12019634,3.346035957, 
550,497438506,167.4585114,84.68323517,101.955162,-9.485351563,-0.608354032,0.178275123,21.05182457,10.51243305,3.479274511, 
551,497455173,167.7960052,84.50545502,101.9527435,-9.635037422,-0.769753695,0.283926576,20.93691063,9.103782654,4.283373356, 
552,497471840,167.9460297,84.32732391,101.7880325,-9.638205528,-0.978322148,0.30897674,19.3867588,8.939973831,5.176898479, 
553,497488507,168.2108154,84.11750031,101.7416534,-9.589107513,-1.035342693,0.232188851,19.20396423,10.97197533,4.878484726, 
554,497505174,168.7168121,83.89789581,101.8787613,-9.63901329,-0.974627674,0.184552774,22.72110367,11.81004333,3.806952715, 
555,497521841,169.2515106,83.66374207,101.993721,-9.894693375,-0.903132379,0.386070937,25.76738167,12.67367268,3.974589586, 
556,497538508,169.5940247,83.43239594,101.8971863,-10.08674049,-0.807682395,0.421673298,26.84793282,12.28342915,5.220012665, 
557,497555175,169.6691437,83.20701599,101.5322723,-10.33550262,-0.589802444,0.435740501,26.78956795,11.62738132,6.980762482, 
558,497571842,169.345459,83.02377319,100.8096924,-10.43459797,-0.097011916,0.285309851,24.15838242,8.666770935,9.157870293, 
559,497588509,168.7782135,82.72184753,99.92327881,-10.74430847,0.313828617,-0.237511814,19.27615738,15.35818386,11.96179104, 
560,497605176,167.6937256,82.17632294,98.67012787,-11.60423946,1.000490069,-0.995186567,10.01238251,28.85700989,18.38505745, 
561,497621843,165.6887817,81.51010895,96.66088104,-13.05706692,1.302656889,-1.498527408,-0.422503591,33.80124283,27.87273407, 
562,497638510,162.7918701,80.98336792,94.13328552,-13.37549877,1.889178753,-2.429672003,-23.37818718,22.98547173,32.8064537, 
563,497655177,159.6318359,80.90992737,91.59893036,-13.63613033,2.294579506,-2.346572161,-38.89014435,-4.694274902,26.0678997, 
564,497671844,155.999527,81.95523834,88.50740814,-11.06336784,1.927963972,-0.827592134,-33.9471283,-69.66146851,3.88926816, 
565,497688511,155.0063477,83.04021454,87.42987061,-8.465762138,0.972768664,1.625528455,5.0808568,-63.89850998,-17.34565544, 
566,497705178,159.3807678,83.32730103,91.31755066,-6.822276592,0.605227232,1.15940547,31.43140411,-6.277235031,-30.23207474, 
567,497721845,165.1637878,83.19801331,96.78948212,-7.4970994,0.300108463,-0.478650421,21.50270081,18.00603294,-32.36258698, 
568,497738512,169.679306,82.87192535,101.1734924,-8.179891586,-0.25501591,-1.584711313,10.41322613,24.91142654,-24.92125511, 
569,497755179,172.0710602,82.18887329,103.5931396,-9.020605087,-0.080677755,-2.753354311,0.131791025,42.32867813,-10.18878078, 
570,497771846,172.4997559,81.69163513,104.4031143,-10.2853756,0.370337903,-4.015919685,-21.8289299,29.34246826,-0.800893724, 
571,497788513,172.3241119,81.97221375,104.7505722,-10.44792175,0.941579819,-2.766141653,-30.61348915,-17.46256638,-3.21710372, 
572,497805180,172.9609833,82.46381378,105.6944962,-9.554434776,1.305911779,-1.166780591,-17.32667923,-29.4629631,-9.449687958, 
573,497821847,174.8544922,82.76134491,107.8324585,-9.787272453,1.644331574,-1.171641231,-13.03346062,-17.18082237,-16.37583733, 
574,497838514,177.6434479,83.06228638,110.9593506,-10.12452221,0.89155376,-1.573227048,-18.26695442,-17.67974091,-22.37887001, 
575,497855181,-179.1774139,83.36667633,114.6476059,-10.02183914,0.356824934,-1.588898182,-28.41301918,-19.09783936,-24.49480247, 
576,497871848,-175.7252655,83.59825897,118.7188416,-9.429937363,0.118999906,-1.732057929,-34.98410034,-16.30322266,-25.19094849, 
577,497888515,-172.1750183,83.75013733,122.9002838,-8.826464653,0.09940587,-1.721775532,-35.75656509,-13.18339157,-24.6404438, 
578,497905182,-168.9910736,83.78249359,126.7621078,-8.312849045,-0.167200103,-1.653680444,-38.72566223,-7.24660778,-22.6216011, 
579,497921849,-166.3926239,83.70225525,130.0344849,-8.457243919,-0.644507349,-1.889022112,-38.67948914,-1.094610929,-20.05565262, 
580,497938516,-163.824585,83.74079132,133.2892456,-9.146119118,-1.103764415,-2.013267994,-39.4479599,-8.974873543,-18.161623, 
581,497955183,-161.4988861,83.87730408,136.3296204,-9.305012703,-1.432405591,-1.359041452,-41.23856354,-14.94372177,-14.45094204, 
582,497971850,-159.949707,83.93053436,138.5642242,-9.272968292,-1.503072977,-0.960526705,-39.80143356,-8.979234695,-10.49226379, 
583,497988517,-159.0657043,83.93563843,140.1318665,-9.286679268,-1.643933177,-0.726763606,-39.90933228,-5.05150032,-7.294981956, 
584,498005184,-158.7868195,83.88054657,141.0281067,-9.180756569,-1.658153415,-0.882058084,-36.17529678,-0.240869343,-4.598058701, 
585,498021851,-158.822998,83.83000946,141.4959106,-9.040495872,-1.569432855,-1.013263106,-29.5179882,0.460620224,-1.969782829, 
586,498038518,-159.0379639,83.8004303,141.6444855,-9.007225037,-1.455412626,-0.930939794,-21.19627571,0.025484676,0.404604435, 
587,498055185,-159.516983,83.78924561,141.4340515,-9.036077499,-1.409186244,-0.814490318,-15.63390923,-0.176145092,2.985546827, 
588,498071852,-160.5135345,83.76410675,140.6652832,-9.067984581,-1.250175953,-0.704711258,-13.39398575,1.847202301,6.135603905, 
589,498088519,-161.8937531,83.73193359,139.4847412,-9.03507328,-0.992670953,-0.474133134,-11.844697,3.020623207,8.644932747, 
590,498105186,-163.2751617,83.67950439,138.3247223,-9.10973835,-0.909766614,-0.081241421,-13.15477753,4.004049301,8.30518055, 
591,498121853,-164.6863251,83.52364349,137.1863098,-9.214113235,-0.813329875,-0.110389344,-16.24085045,9.810830116,6.706092834, 
592,498138520,-165.6458435,83.37125397,136.6475677,-9.489622116,-0.791531146,-0.063499808,-24.91188812,8.517882347,3.196549416, 
593,498155187,-166.3642731,83.12713623,136.4342499,-9.798909187,-0.774995625,-0.440478235,-29.84171867,13.31181622,-0.106184244, 
594,498171854,-167.0879669,82.88964081,136.3473816,-10.39505768,-0.825580776,-1.101277471,-37.70681,12.76299381,-0.678413689, 
595,498188521,-167.2077332,82.91535187,136.9723206,-10.44207764,-0.945139766,-1.565791011,-43.84934616,-3.792978287,-2.194491625, 
596,498205188,-166.6385956,83.14871216,138.3054657,-10.09835434,-1.127465487,-1.409654617,-44.71124268,-17.09472656,-4.301898956, 
597,498221855,-165.4759979,83.4703598,140.2307129,-9.965126038,-1.082332492,-1.172077179,-44.42741394,-23.24500656,-6.421539307, 
598,498238522,-164.1265717,83.76741028,142.2552185,-10.36895752,-0.388187021,-1.149052978,-39.21017838,-22.0165329,-6.360172272, 
599,498255189,-163.3174591,83.97618103,143.7088013,-11.95422935,0.480772406,-1.317434669,-37.62680054,-15.91311455,-3.432537794, 
600,498271856,-161.3652344,84.29360962,146.4427338,-12.99851131,0.026105341,-1.290570855,-45.49966431,-24.5092392,-8.214500427, 
601,498288523,-158.4992981,84.34893036,150.2522125,-12.19206142,-1.62726748,-1.480103731,-54.94151688,-12.16278076,-18.12869263, 
602,498305190,-157.7371063,83.61104584,151.9923096,-11.98658371,-2.929298162,-2.561947107,-57.54627609,35.68980026,-24.67159653, 
603,498321857,-158.2172699,82.5402832,152.3769684,-12.889328,-2.334433556,-3.467644453,-51.19447708,57.19869995,-24.67063141, 
604,498338524,-158.6418304,81.81098938,152.7902985,-11.80520153,-1.171018243,-3.492215395,-49.52202988,38.10065842,-17.21272278, 
605,498355191,-158.3490753,81.80063629,153.8998108,-9.848996162,0.688431501,-3.491396189,-47.81316757,-4.274570942,-7.042429924, 
606,498371858,-157.0844727,82.41320038,155.8738251,-7.541472435,2.273755312,-3.119524717,-40.93553162,-41.56987762,0.880844116, 
607,498388525,-154.5603485,83.35692596,158.9692841,-6.203533173,3.050920248,-1.520830274,-32.33761978,-62.47777557,4.164544582, 
608,498405192,-149.8582764,84.34410858,164.102478,-7.2649827,2.882104874,0.731327832,-23.57496643,-69.15174866,0.342128038, 
609,498421859,-145.865448,84.91157532,168.6019592,-8.896224976,1.019725204,1.281189322,-28.67315865,-43.65765381,-1.404518008, 
610,498438526,-147.1066589,84.98499298,168.2576599,-10.76979923,-1.287658811,-0.044344082,-53.31814957,-4.078255177,5.843378544, 
611,498455193,-149.2604065,85.14833069,167.1101379,-12.19413471,-2.495741844,-1.754480362,-60.07427979,-6.586502075,12.07867527, 
612,498471860,-150.0196228,85.64616394,167.0437317,-12.02353764,-2.582160473,-2.017005682,-41.02850723,-27.0108757,17.2749958, 
613,498488527,-153.1238708,86.07953644,164.4593048,-10.57644176,-0.68497324,-1.107517242,-31.05015373,-18.94398499,24.12944412, 
614,498505194,-157.4951019,86.21307373,160.2159882,-10.03751755,0.887670934,-0.844951391,-7.699344635,-1.557933569,20.81369591, 
615,498521861,-158.1186676,86.61071777,159.6197052,-9.029356003,1.571011782,-0.824384034,-1.160520673,-22.66361237,12.99257278, 
616,498538528,-156.4921417,87.13816833,161.3522034,-7.918985844,1.644233823,0.134839833,-5.663741112,-32.78396606,8.861737251, 
617,498555195,-156.5507813,87.44235992,161.4703522,-7.856364727,0.979159355,0.998572886,-10.0488224,-18.27554703,8.828457832, 
618,498571862,-161.905426,87.46186829,156.4133606,-8.439809799,0.285153359,0.849852502,-17.57971001,2.275346756,14.88715267, 
619,498588529,-169.8849182,87.27688599,148.8177338,-8.97443676,-0.00746138,0.117189325,-22.94444084,14.45093346,19.42253304, 
620,498605196,-176.7779541,87.00846863,142.3059998,-9.146130562,-0.276276469,-0.49025628,-22.80278015,16.86859322,19.31291389, 
621,498621863,177.8366241,86.7888031,137.2870026,-9.012670517,-0.562937856,-0.810028076,-21.84878922,11.92400646,18.01246071, 
622,498638530,173.9931793,86.5623703,133.6937714,-8.669143677,-0.438189477,-0.925431967,-14.81927586,11.28228855,15.28611374, 
623,498655197,171.6966553,86.32086945,131.5588226,-8.840267181,-0.155315503,-0.792826474,-9.380752563,11.99296284,11.54438114, 
624,498671864,170.3943481,86.16207123,130.3309631,-9.010659218,-0.016413016,-0.506027102,-4.058372498,7.262349129,8.104675293, 
625,498688531,169.9371185,85.99855804,129.9290314,-9.285736084,-0.363301098,-0.065130182,-2.82606101,8.014484406,5.152853966, 
626,498705198,170.1656647,85.75084686,130.1770325,-9.65792942,-0.519828975,-0.017279204,-0.568154097,13.43751335,3.367284536, 
627,498721865,170.4343414,85.56876373,130.4433289,-10.06030083,-0.785411954,-0.122570902,0.747961402,9.606526375,2.508463621, 
628,498738532,170.649704,85.51589966,130.5719757,-9.656851768,-0.803157151,0.038760856,5.775242329,1.872083783,1.796142101, 
629,498755199,170.9971313,85.52696991,130.7541199,-8.981245041,-0.836580515,0.261526793,10.50911999,-1.876003027,0.925355315, 
630,498771866,171.7970276,85.47585297,131.2194061,-8.466828346,-0.790779233,0.25736773,20.71882248,2.024686813,0.175434455, 
631,498788533,172.9391479,85.28328705,131.8749237,-8.262495995,-0.406494379,0.317946523,29.88465691,10.54034138,0.283495158, 
632,498805200,174.1326752,84.95495605,132.5339355,-8.349292755,0.192308411,0.04214365,32.7747345,18.63521385,0.767296255, 
633,498821867,175.4502411,84.57003784,133.2995605,-8.597079277,0.697352648,-0.122835517,33.87752533,22.05918312,-0.189976916, 
634,498838534,176.87146,84.12570953,134.2190857,-9.038749695,1.115818501,-0.142471954,30.94001961,25.65719032,-1.753128529, 
635,498855201,178.3177948,83.69024658,135.275589,-9.290716171,1.082847595,-0.390258551,24.31191444,25.10344124,-3.754146576, 
636,498871868,179.7643585,83.28434753,136.4064484,-9.470199585,0.944972515,-0.532150269,19.94574547,23.20800781,-5.428924084, 
637,498888535,-178.782547,82.89383698,137.6230469,-9.572173119,1.180042982,-0.592342317,15.30379677,22.0709343,-7.134353161, 
638,498905202,-177.4603271,82.62520599,138.8267059,-9.815875053,1.248435497,-0.297833771,8.273500443,14.54076958,-7.788952351, 
639,498921869,-176.4131165,82.38815308,139.8815765,-9.587568283,1.047478557,-0.269985348,0.673524797,12.49613762,-7.178303719, 
640,498938536,-175.6634521,82.12702942,140.6376038,-9.686404228,0.685782731,-0.09718506,0.623567224,13.96688461,-5.368969917, 
641,498955203,-175.2631531,81.7896347,141.0512543,-9.672734261,0.512140989,-0.208100349,0.046346232,18.66604424,-3.258957386, 
642,498971870,-175.2905884,81.2695694,141.1357117,-9.653144836,0.400366604,-0.76200217,-6.050833702,29.81332779,-1.516744018, 
643,498988537,-176.2365875,80.25424194,140.5119171,-10.90635872,0.569427848,-2.092419147,-19.20355606,59.97359085,3.282799959, 
644,499005204,-178.1159058,79.03385925,139.1793365,-12.94624138,0.847762764,-3.868030071,-33.48891068,72.61328125,12.53054523, 
645,499021871,179.4413605,78.00862122,137.4741821,-13.62622929,1.335651994,-5.227035522,-45.68671417,60.49860764,21.41962624, 
646,499038538,176.7202148,77.09494019,135.6012421,-13.68433094,1.52402389,-6.085468292,-52.92527771,52.70726776,27.80169106, 
647,499055205,174.163208,76.80123901,133.7365723,-13.5027771,0.955315888,-5.136327267,-43.83328629,14.26332092,28.3282299, 
648,499071872,172.5432892,76.94039917,132.2773285,-10.68278217,-0.647325635,-2.258402109,-11.3353672,-11.90684128,20.52059746, 
649,499088539,173.1260071,76.46778107,132.3595581,-7.365862846,-1.616460204,-0.620156705,30.74610329,26.96906281,4.152509212, 
650,499105206,174.6088104,75.68442535,133.2751312,-6.667547226,-1.710576415,-1.485807419,36.23066711,46.84391403,-6.364765644, 
651,499121873,176.0496674,74.76841736,134.2613525,-5.038612366,-1.331471205,-2.817610979,29.80497932,54.71036911,-8.791329384, 
652,499138540,176.7496185,73.19707489,134.5512848,-6.665097237,-0.530531287,-4.457164288,25.83555031,93.08509064,2.911875725, 
653,499155207,176.3219452,71.46979523,133.8071136,-9.851961136,1.407090425,-6.760255814,17.43258858,101.2976837,21.57074928, 
654,499171874,175.1670074,70.18772125,132.7263336,-12.25047684,3.16550231,-7.346299648,-7.508945942,73.77019501,28.71009254, 
655,499188541,174.3267365,69.83415222,132.1460419,-12.25398064,3.294291496,-5.754482746,-17.15892792,18.64441109,15.53313828, 
656,499205208,174.5994873,70.09947205,132.5993958,-9.384066582,2.164088249,-3.711197615,-8.641488075,-16.34532547,-9.097190857, 
657,499221875,175.5928192,70.12281036,133.8701172,-7.529178143,0.948472559,-2.817031145,-11.54034805,-0.574180424,-24.26444817, 
658,499238542,176.6136017,69.72779083,135.2710419,-7.567975521,-0.23573865,-3.847492933,-17.14075851,24.20177269,-25.4830246, 
659,499255209,177.1994934,69.1811676,136.3160248,-8.210847855,-1.025693417,-4.611802101,-23.00102043,32.52536774,-18.51075172, 
660,499271876,177.3648224,68.60020447,136.9784546,-8.676177025,-1.007368445,-4.733226299,-26.61573219,34.07400513,-10.9491024, 
661,499288543,177.2970734,68.02003479,137.4090576,-8.888465881,-0.77428335,-4.853462696,-27.53712273,33.78313828,-6.214739799, 
662,499305210,177.1907349,67.49552917,137.7506256,-8.556929588,-0.606656134,-4.967178345,-24.82327843,30.3592186,-4.529547215, 
663,499321877,177.1577759,66.9969101,138.072464,-8.132920265,-0.366182357,-5.12202692,-19.27011108,28.79260445,-4.276385307, 
664,499338544,177.1892395,66.52153015,138.3773041,-8.17949295,-0.132475063,-5.314015865,-14.41048908,27.36949921,-4.092980385, 
665,499355211,177.2445526,66.10637665,138.666153,-8.483016014,-0.053845141,-5.327019691,-12.055583,23.73525238,-4.039171219, 
666,499371878,177.2800293,65.72916412,138.9364777,-8.817016602,0.058606997,-5.307446957,-12.18862343,21.42522812,-3.82619977, 
667,499388545,177.2875214,65.42002869,139.207077,-8.881299019,0.059955023,-5.180387497,-13.84689522,17.33718872,-4.126257896, 
668,499405212,177.3025055,65.15516663,139.490448,-8.720991135,-0.166094407,-5.156797886,-14.06288433,14.69133568,-4.64998579, 
669,499421879,177.3213196,64.93900299,139.760498,-8.576294899,-0.367691457,-5.180009365,-13.08600426,11.75126648,-4.520505905, 
670,499438546,177.3600464,64.75571442,139.992691,-8.411279678,-0.296901107,-5.255074024,-9.817617416,9.730451584,-3.70468092, 
671,499455213,177.3873444,64.60888672,140.1961365,-8.486392021,-0.247472659,-5.196088314,-8.933606148,7.497736931,-3.110350132, 
672,499471880,177.4018555,64.49456024,140.3898163,-8.681237221,-0.149940878,-5.119230747,-9.16528511,5.528311729,-2.97483325, 
673,499488547,177.4235229,64.40061188,140.6083832,-8.793714523,-0.121110439,-5.084723473,-10.07956886,4.329175472,-3.694371223, 
674,499505214,177.4488831,64.35834503,140.8502045,-8.811396599,0.041975655,-5.066832066,-11.11291313,1.251974821,-4.453467846, 
675,499521881,177.4809723,64.37023163,141.1300812,-8.61207962,0.108958773,-5.073863029,-12.77075005,-1.956472278,-5.588624001, 
676,499538548,177.5188751,64.42786407,141.4224091,-8.376873016,-0.013966886,-4.982819557,-13.10018063,-4.697968006,-6.023106098, 
677,499555215,177.4996338,64.47280884,141.6888885,-8.467082977,-0.119800068,-5.245417118,-15.14071274,-3.974678278,-5.308359146, 
678,499571882,177.4365082,64.5224762,141.893692,-8.770576477,-0.173858121,-5.373194218,-14.44255161,-4.333799839,-3.718595743, 
679,499588549,177.3473663,64.58992004,142.0842896,-9.106556892,-0.276862532,-5.307582855,-15.24827957,-5.414261341,-3.394467354, 
680,499605216,177.2554474,64.69562531,142.2873993,-9.022000313,-0.22959742,-5.280951977,-16.10496902,-7.690202236,-3.814227819, 
681,499621883,177.1200714,64.78168488,142.477951,-8.820666313,-0.218464017,-5.225000858,-18.04540634,-6.525208473,-3.425798893, 
682,499638550,176.9672394,64.87038422,142.6429138,-8.634065628,-0.086879373,-5.325864792,-17.71650696,-6.709626675,-2.779263258, 
683,499655217,176.8082886,64.97407532,142.7925262,-8.470952034,0.000294736,-5.068236351,-17.26259613,-7.627727509,-2.438383102, 
684,499671884,176.6602325,65.06896973,142.9351349,-8.33907032,0.05252796,-4.992093563,-16.23709106,-7.110240459,-2.233384848, 
685,499688551,176.494812,65.10554504,143.0500793,-8.494194031,-0.073655561,-4.987729073,-15.78376865,-3.653661251,-1.334288239, 
686,499705218,176.3059998,65.15235901,143.1223755,-8.847660065,-0.232971281,-4.899103165,-14.8750267,-4.330528259,-0.300994277, 
687,499721885,176.1195984,65.23829651,143.1870575,-8.852910995,-0.278877288,-4.720398426,-14.31785488,-6.685560226,-0.266295433, 
688,499738552,175.9340668,65.35343933,143.2579956,-8.735801697,-0.222971559,-4.580330849,-14.61826324,-8.415669441,-0.553382099, 
689,499755219,175.7138214,65.48030853,143.3146515,-8.696081161,-0.218962789,-4.591958046,-15.92857361,-9.139907837,-0.262690544, 
690,499771886,175.4233093,65.58757782,143.3299713,-8.663203239,-0.214916602,-4.883542538,-17.89354324,-8.042449951,0.827605128, 
691,499788553,175.0796967,65.67537689,143.2963104,-8.731484413,-0.313978404,-5.19777441,-18.41000557,-6.976261616,2.098976612, 
692,499805220,174.763916,65.75719452,143.2509308,-8.751718521,-0.176759109,-5.431217194,-16.1072979,-6.65311718,2.38801527, 
693,499821887,174.5558167,65.9153595,143.2234497,-8.463277817,-0.039143544,-4.881290436,-10.63187885,-11.1880846,1.496986628, 
694,499838554,174.4436188,66.0485611,143.2599945,-8.407914162,-0.163438633,-4.377881527,-8.390641212,-9.549373627,0.055259433, 
695,499855221,174.3247375,66.17127991,143.3366547,-8.855618477,-0.336492151,-4.421737671,-11.00134659,-8.828094482,-0.86252743, 
696,499871888,174.1733704,66.26483917,143.3837891,-9.291828156,-0.49481523,-4.501587868,-11.3366375,-7.153657913,0.019350408, 
697,499888555,173.939209,66.37888336,143.3789978,-9.360518456,-0.601543248,-4.567819595,-13.45784187,-8.504313469,1.12693429, 
698,499905222,173.7506714,66.50041962,143.383606,-8.957713127,-0.630308151,-4.623609543,-11.24412918,-8.921798706,0.836972356, 
699,499921889,173.6405334,66.61817932,143.4127655,-8.804455757,-0.466386378,-4.666423798,-7.900310993,-8.635190964,0.26661551, 
700,499938556,173.5611725,66.74378204,143.4281616,-8.900276184,-0.264726281,-4.356362343,-5.305538177,-9.139811516,0.535997093, 
701,499955223,173.4703674,66.92056274,143.4369965,-9.238142967,-0.238292322,-3.952100515,-5.635828972,-12.20764256,0.33890751, 
702,499971890,173.367218,67.14383698,143.4670868,-9.368720055,-0.269868791,-3.732025623,-7.552981377,-14.91619205,-0.485290766, 
703,499988557,173.2489624,67.39619446,143.5148163,-9.262698174,-0.417402714,-3.689177513,-9.440917969,-16.59264565,-1.108583212, 
704,500005224,173.1099548,67.64226532,143.565979,-9.188999176,-0.500445127,-3.678653717,-10.8807373,-16.20407677,-1.15624845, 
705,500021891,172.9276123,67.87796021,143.5807343,-9.262871742,-0.515430033,-3.6884408,-11.47024632,-15.67261696,-0.283424079, 
706,500038558,172.6804352,68.13552856,143.5109253,-9.399335861,-0.634541631,-3.594480038,-10.65667057,-17.20221138,1.396995306, 
707,500055225,172.3530121,68.42530823,143.3419189,-9.449500084,-0.820165575,-3.445356369,-9.941221237,-19.39438629,3.240908146, 
708,500071892,171.9744415,68.72839355,143.0983734,-9.412730217,-0.928475916,-3.26722455,-8.830723763,-20.40603256,4.603704929, 
709,500088559,171.5604858,69.03994751,142.7961578,-9.352110863,-1.001890302,-3.29126358,-7.643779278,-21.09175301,5.595406055, 
710,500105226,171.1091156,69.35005951,142.4226074,-9.298875809,-0.956262708,-3.446500063,-5.857398033,-21.24342728,6.885513783, 
711,500121893,170.6161652,69.66590881,141.9688873,-9.244599342,-0.906873882,-3.464046955,-3.812310696,-21.86730194,8.231079102, 
712,500138560,170.0607147,70.00874329,141.4383545,-9.259085655,-0.738861501,-3.480126619,-3.187232733,-23.75782585,9.206289291, 
713,500155227,169.4501648,70.36065674,140.8471069,-9.326636314,-0.606862783,-3.377111197,-3.004998207,-24.55815125,9.933141708, 
714,500171894,168.7689819,70.72379303,140.1781769,-9.370810509,-0.610056639,-3.289471388,-2.780195713,-25.55518532,10.87555218, 
715,500188561,167.9801941,71.10093689,139.41008,-9.354166985,-0.713444233,-3.221456528,-3.531253099,-26.82880402,12.07669449, 
716,500205228,167.1099396,71.48756409,138.5214691,-9.212201118,-0.87889272,-3.252569914,-1.478005052,-27.96804237,13.58020687, 
717,500221895,166.1335144,71.86746979,137.5143585,-9.100808144,-0.836222947,-3.146647692,-0.99341774,-28.18897629,15.10591793, 
718,500238562,165.1046295,72.19790649,136.4280243,-9.123053551,-0.993823647,-3.297393084,0.49204722,-25.81829453,16.46520424, 
719,500255229,163.9468079,72.51585388,135.1896973,-9.297557831,-0.973749995,-3.336723566,1.549189687,-26.01216507,18.54008675, 
720,500271896,162.6829224,72.87273407,133.796051,-9.347985268,-0.914087474,-3.660537481,4.201743126,-29.26310158,19.62147522, 
721,500288563,161.3531036,73.23247528,132.2698517,-9.584792137,-0.629950345,-4.05975771,7.996587276,-30.38622856,20.68203354, 
722,500305230,160.0973206,73.69758606,130.733429,-9.883489609,-0.209391221,-4.202284336,13.20309925,-36.6217041,17.52425766, 
723,500321897,159.3493652,74.19722748,129.5775757,-10.11815357,0.165199876,-4.181633472,21.93521881,-36.39024734,9.583989143, 
724,500338564,159.2520599,74.77586365,128.9530182,-10.34593582,0.432496041,-3.575657368,30.42534828,-37.65069199,-0.899454951, 
725,500355231,159.8545074,75.40792084,129.0013123,-9.703453064,0.704381764,-2.559718609,33.49801254,-36.90343094,-11.93932343, 
726,500371898,161.0572815,75.87706757,129.7689362,-9.161149025,1.225772023,-1.751503944,27.70278549,-24.33858109,-18.16658783, 
727,500388565,162.2602081,76.29527283,130.7697906,-8.98643589,1.403407812,-1.54589951,14.0497036,-20.89853096,-19.58976936, 
728,500405232,163.2542267,76.75794983,131.7029724,-8.990246773,1.00416863,-1.813048482,5.368106842,-24.26307678,-18.67844963, 
729,500421899,163.9970093,77.3484726,132.4506836,-9.589291573,0.258066535,-2.150160551,1.027003646,-32.77562714,-17.62386131, 
730,500438566,164.5467682,78.04033661,132.9363251,-10.80532646,-0.677529752,-2.259365082,4.705652714,-39.89118195,-15.21707726, 
731,500455233,164.9533844,78.78263092,133.0891724,-11.99376488,-0.844238758,-2.376734972,15.60124683,-44.10106659,-11.46439552, 
732,500471900,165.0234985,79.75746918,132.6277008,-12.36864567,-0.350367278,-1.651770234,31.59669495,-59.43402481,-8.123103142, 
733,500488567,164.7438812,80.80410004,131.6587982,-10.80519485,-0.094025545,-0.605823934,40.71992111,-64.78276062,-4.83968401, 
734,500505234,164.6816711,81.45185852,130.8572083,-9.584591866,-0.400669307,-0.47159341,43.98979568,-41.02415085,-1.017259836, 
735,500521901,165.1003571,81.77467346,130.4326477,-9.605103493,-0.562897682,-1.054141998,50.5358429,-21.24124336,0.622318387, 
736,500538568,165.2774963,82.01092529,129.6665955,-10.05632782,-0.29240492,-1.354656696,56.3383522,-16.9120369,4.740482807, 
737,500555235,164.7076416,82.32604218,128.185791,-9.702402115,0.405970275,-1.697754145,54.03778076,-22.94381332,8.902802467, 
738,500571902,164.0042877,82.72131348,126.5364304,-8.9876194,1.035313845,-1.627954125,56.12690735,-27.8443203,8.115086555, 
739,500588569,163.5141144,83.12256622,125.0698471,-8.479120255,1.626408815,-1.245867133,58.12838745,-27.6879921,5.784861088, 
740,500605236,163.1103516,83.50961304,123.757782,-8.306632996,2.142719507,-0.698792994,54.18749237,-26.40979004,4.209052563, 
741,500621903,162.7447052,83.83175659,122.6568375,-8.164786339,2.200023174,-0.714698493,43.94689178,-22.13402557,3.377166033, 
742,500638570,162.2197723,84.07798004,121.6124191,-8.318059921,2.001736403,-0.989995599,31.06582451,-17.58501053,3.92444706, 
743,500655237,161.5673523,84.25141144,120.4916687,-8.624901772,1.654290438,-1.147793531,28.00663185,-13.52920055,5.32659626, 
744,500671904,160.6907196,84.39468384,119.2417297,-9.08664608,1.23356235,-1.265655756,22.29576683,-12.04701996,6.291185856, 
745,500688571,159.6690826,84.56873322,117.9223022,-9.652318001,0.813720107,-1.344237685,17.77285004,-13.92519665,5.663631439, 
746,500705238,158.8488159,84.78060913,116.7880402,-9.737399101,0.530448675,-1.197610855,18.80682945,-15.62129974,3.451189756, 
747,500721905,158.2107391,84.99590302,115.8506622,-9.635278702,0.224356547,-0.998921275,18.0040226,-15.37270832,1.974307656, 
748,500738572,157.7754669,85.17188263,115.0959549,-9.567777634,0.079033256,-0.76611495,19.26216888,-12.74090004,1.685869455, 
749,500755239,157.6549225,85.25583649,114.6353531,-9.498109818,-0.006986858,-0.557974994,20.57535362,-7.044393539,2.26539588, 
750,500771906,157.8384094,85.25051117,114.4552994,-9.823820114,0.058584031,-0.474887669,22.04901314,-1.54746449,2.993489742, 
751,500788573,157.96138,85.26455688,114.1704636,-9.822951317,0.033359576,-0.524359047,24.67860031,-2.81009078,3.038409233, 
752,500805240,157.9481201,85.29584503,113.742424,-9.660297394,0.060519759,-0.372821242,25.06260681,-4.011795998,3.305569649, 
753,500821907,157.702713,85.3123703,113.1047668,-9.412899017,0.054797083,-0.15739435,23.67537689,-3.581424713,4.575667381, 
754,500838574,157.4664001,85.26170349,112.4997253,-9.147824287,0.190107435,-0.05393431,22.27554703,0.19497703,5.965465069, 
755,500855241,157.4291534,85.12155151,112.0925369,-9.062344551,0.491524249,-0.180709213,22.38376236,5.519124985,7.165884495, 
756,500871908,157.4028931,84.94921875,111.7396317,-9.073609352,0.661242723,-0.400279492,19.80191803,7.377558708,7.704595089, 
757,500888575,157.2563629,84.75634003,111.312851,-9.072335243,0.485712588,-0.554484367,16.98957062,8.347883224,8.621209145, 
758,500905242,157.0464478,84.5297699,110.8584824,-9.129043579,-0.122808665,-0.531981647,14.83430672,10.08651352,9.658396721, 
759,500921909,157.3692627,84.19181824,110.8809052,-9.380639076,-0.462924719,-0.619883358,18.30752754,17.30987358,9.770936012, 
760,500938576,157.8745117,83.80717468,111.0666428,-9.843120575,-0.273816884,-1.063590527,19.50412941,20.35124779,9.749607086, 
761,500955243,157.8881683,83.5973053,110.7797546,-10.29811287,-0.048867956,-1.041756868,18.19679451,9.525034904,8.53338623, 
762,500971910,157.7379608,83.53119659,110.3051758,-10.23299408,0.014738998,-0.407657802,19.54893303,1.036432266,6.496183872, 
763,500988577,157.7753601,83.46430206,110.015625,-10.22034454,0.037893131,0.010563604,19.76827812,1.552285314,5.386153221, 
764,501005244,157.6721191,83.47199249,109.597023,-10.1392746,0.006228529,0.093208104,19.0271759,-2.914197683,4.515691757, 
765,501021911,157.5332489,83.51911163,109.1256027,-9.737298012,-0.086395957,0.400120288,20.0430069,-5.231818676,3.933861256, 
766,501038578,157.5962372,83.48958588,108.8470078,-9.402908325,-0.115955718,0.480243117,20.6668148,-0.466299087,4.47312355, 
767,501055245,157.8899231,83.39511871,108.782753,-9.43214035,0.046604469,0.40124017,21.73002243,3.715743303,4.607310772, 
768,501071912,158.2718506,83.31015778,108.795433,-9.567069054,0.246158287,0.235164776,22.44763756,3.40800643,3.870957136, 
769,501088579,158.8665314,83.18882751,108.9992599,-9.77148056,0.574033499,0.14022024,23.82473755,5.965043545,3.371150494, 
770,501105246,159.5141754,83.04782867,109.2882385,-10.16390324,0.855081856,-0.085848331,21.94233894,7.321967125,3.109746218, 
771,501121913,159.9841919,82.8812561,109.521492,-10.55039215,1.421559811,-0.596352279,14.61616993,8.653681755,3.889458418, 
772,501138580,159.8987885,82.70644379,109.3669891,-11.33352852,1.493357658,-0.988158703,4.388186932,8.146724701,6.718610764, 
773,501155247,159.2320099,82.62206268,108.8348999,-11.70865726,0.932959199,-1.369531393,-8.021881104,2.015348673,7.605002403, 
774,501171914,158.6843872,82.48918915,108.4879608,-11.58000851,0.232984021,-1.553379774,-11.88721657,5.157838821,7.390217781, 
775,501188581,158.4503021,82.36688995,108.3809967,-11.00412464,0.216832176,-1.712904453,-7.357294559,5.211789131,5.479915142, 
776,501205248,158.524231,82.41278839,108.437439,-10.13882637,0.422495961,-1.115710735,1.395469785,-3.706766844,0.584981322, 
777,501221915,159.4625854,82.54715729,109.2120438,-8.857618332,0.502874672,-0.239464507,10.54667568,-6.654881477,-6.555875778, 
778,501238582,161.9506989,82.49858093,111.4576721,-8.411952019,0.435509831,0.029475078,16.01685524,7.244514465,-13.57490253, 
779,501255249,165.1847534,82.28197479,114.4822083,-8.659329414,0.189310715,-0.511636078,14.49707127,17.96315956,-17.36770821, 
780,501271916,168.3434906,81.94612122,117.5333328,-9.012755394,-0.119200945,-1.448945642,8.514856339,24.07221794,-17.83315277, 
781,501288583,170.9380951,81.59066772,120.1189423,-9.514454842,-0.36547038,-2.324359655,2.465421677,23.67158127,-16.01103973, 
782,501305250,172.8319397,81.31472778,121.9764175,-9.889767647,-0.130225793,-2.619696379,3.737756491,17.42023659,-12.05882931, 
783,501321917,174.1595459,81.23003387,123.263237,-9.656881332,0.064596489,-2.403294802,3.645418406,5.065476894,-9.061027527, 
784,501338584,175.2101898,81.27561951,124.2015152,-9.000457764,0.000349358,-1.835669756,7.701191902,-3.248325825,-6.774466038, 
785,501355251,175.9693909,81.27019501,124.8214493,-8.703558922,-0.21776481,-1.702328801,9.08397007,-0.562474251,-3.600641012, 
786,501371918,176.5052032,81.24700928,125.1998825,-9.145180702,-0.464229196,-1.886875629,10.00169849,0.288552761,-1.350154638, 
787,501388585,176.9815369,81.23654938,125.4906464,-9.958367348,-0.678329706,-2.130109549,11.62873554,-0.549885809,-0.611202598, 
788,501405252,177.4844513,81.3087616,125.8070984,-10.5249958,-0.559423327,-2.377079487,11.69246006,-5.524758816,-1.078596234, 
789,501421919,178.3841248,81.51941681,126.5437927,-10.4867115,-0.082775213,-2.236451626,10.54698753,-13.72614861,-5.037338257, 
790,501438586,-179.9696808,81.74626923,128.0476685,-10.06206322,0.40409413,-1.922232032,9.772413254,-14.76777458,-11.30326843, 
791,501455253,-177.8167572,81.90570831,130.1602631,-9.784428596,0.438904136,-1.588946462,3.981326818,-11.25919151,-15.82269001, 
792,501471920,-175.4620972,81.95653534,132.5628204,-9.616066933,0.120760322,-1.803020716,-1.165360093,-5.579407215,-18.01436043, 
793,501488587,-173.2900391,81.95407104,134.8925781,-9.50965023,-0.229092553,-2.136486769,-7.807945251,-3.124951601,-17.47858238, 
794,501505254,-171.257309,81.97662354,137.1210785,-9.268615723,-0.527049482,-2.163437843,-10.15467358,-5.21723032,-16.33420563, 
795,501521921,-169.2574463,82.02277374,139.310791,-9.143370628,-0.713291943,-1.903805375,-9.841902733,-7.192471981,-15.55025101, 
796,501538588,-167.3152313,82.04586792,141.44133,-9.139915466,-0.915462971,-1.629577398,-9.795172691,-6.336544037,-15.05750084, 
797,501555255,-165.3925476,82.04946899,143.5499725,-9.131640434,-1.100044608,-1.533269763,-9.682283401,-5.719994068,-14.95088673, 
798,501571922,-163.6136475,81.9641037,145.4346771,-9.087617874,-1.421640635,-1.514715075,-4.990479469,-0.658624768,-14.50633812, 
799,501588589,-162.3868713,81.7905426,146.7474365,-9.414587975,-1.269768953,-1.570376754,-4.129557133,5.318967819,-11.67087555, 
800,501605256,-161.3495941,81.75014496,147.9275055,-9.607010841,-1.0511868,-1.636431932,-7.589194775,-2.255500317,-8.359483719, 
801,501621923,-160.4853058,81.80435181,148.9538116,-9.426084518,-1.062830448,-1.326106191,-8.8568964,-7.348460674,-5.235681057, 
802,501638590,-160.0130615,81.83427429,149.6192169,-9.25850296,-1.189155221,-1.136606812,-10.95654964,-5.007855415,-2.713186741, 
803,501655257,-159.7071533,81.85006714,150.1073151,-9.262359619,-1.411279798,-1.155052423,-10.41019058,-3.721699715,-1.544196725, 
804,501671924,-159.4743042,81.87520599,150.4873047,-9.251882553,-1.517306209,-1.039625049,-8.377423286,-3.938024521,-0.462495059, 
805,501688591,-159.4531708,81.87469482,150.6211243,-9.39351368,-1.539423585,-0.955268264,-6.472694397,-1.77436471,0.970875144, 
806,501705258,-159.4056702,81.92144012,150.7593536,-9.506790161,-1.472010612,-0.851096332,-5.14448452,-4.433693409,1.939406633, 
807,501721925,-159.4085236,81.99239349,150.8499908,-9.426082611,-1.447893858,-0.769384205,-5.3351717,-5.640167713,2.836645365, 
808,501738592,-159.4881592,82.05952454,150.8626404,-9.266324997,-1.466139674,-0.761399388,-5.351883411,-5.193853378,3.370554924, 
809,501755259,-159.5552063,82.11584473,150.8842316,-9.278790474,-1.378554583,-0.767976284,-5.116361618,-4.621178627,3.081246853, 
810,501771926,-159.6271973,82.14432526,150.9121704,-9.429869652,-1.324112773,-0.878643692,-5.802334785,-3.059892416,2.446577072, 
811,501788593,-159.7073364,82.15955353,150.9713593,-9.581884384,-1.157433748,-1.031116247,-8.129505157,-2.405910254,1.93697381, 
812,501805260,-159.6850739,82.23802948,151.1870728,-9.809862137,-1.091631413,-1.00889194,-11.30618858,-6.404183865,2.060555935, 
813,501821927,-159.540451,82.4009552,151.6255493,-9.841359138,-1.187514067,-0.900671184,-17.21117783,-11.76770401,2.189761162, 
814,501838594,-159.460907,82.57807159,152.0518951,-9.946847916,-1.378513217,-1.046490431,-20.40736198,-12.50630283,2.673471928, 
815,501855261,-159.2374268,82.84349823,152.6628876,-10.15758896,-1.615454555,-1.200967073,-22.78941154,-17.91163635,3.347833157, 
816,501871928,-158.1368103,83.27075195,154.1213837,-10.21588039,-2.014817715,-0.783453166,-20.66751289,-29.09962463,1.556606054, 
817,501888595,-156.0724335,83.70618439,156.5048676,-10.14623928,-2.291511297,-0.083154358,-18.06517792,-31.75200653,-2.668670177, 
818,501905262,-153.5643768,84.00965881,159.323288,-10.3647728,-2.428162098,0.229042053,-17.49761391,-25.54455185,-6.504181862, 
819,501921929,-150.8602448,84.19765472,162.3916931,-10.27805424,-2.690929413,0.242327869,-20.73916626,-20.15483284,-9.338261604, 
820,501938596,-149.7219086,84.10179901,163.8147125,-10.2764082,-2.943048477,-0.306359738,-16.5035553,-0.673198581,-8.261853218, 
821,501955263,-150.7144623,83.76850891,162.9828491,-11.60422421,-2.936857939,-1.202625394,-9.796265602,18.61474037,-3.190227032, 
822,501971930,-150.5272064,83.48434448,163.2407532,-12.39848518,-2.843945265,-1.775608659,-4.042500973,12.65027618,-7.683988571, 
823,501988597,-149.6612549,83.15791321,164.1604309,-12.01196384,-2.949980497,-1.893055916,-2.763965368,12.40727997,-13.13827324, 
824,502005264,-149.6187592,82.3870163,163.9225311,-11.69429493,-3.109592199,-2.424930096,16.76270676,39.44550323,-19.63344574, 
825,502021931,-150.8660583,81.3549881,162.444397,-11.41412067,-2.158895493,-2.994082451,12.9936924,58.58465195,-17.6367054, 
826,502038598,-151.5795898,80.61988831,161.5832672,-11.22511768,-1.35667944,-3.928426266,8.221674919,41.15420532,-11.93552208, 
827,502055265,-151.2359314,80.47476196,161.691803,-9.734565735,-0.275366485,-3.327269316,14.18177605,5.713391304,-2.907024622, 
828,502071932,-150.735199,80.76953888,162.1343536,-8.272527695,0.863238215,-2.892007113,3.830269814,-18.99881744,6.990510464, 
829,502088599,-149.1502533,81.4267807,163.6062622,-6.979850292,1.418796062,-2.480805635,7.838346481,-42.41698074,10.10882568, 
830,502105266,-146.9077148,81.98418427,165.6632233,-6.571677685,1.361727118,-1.13955152,12.43028831,-39.24237823,4.777206898, 
831,502121933,-145.0641937,82.24982452,167.4037781,-8.100769997,0.631163299,-0.441847295,7.191868305,-22.67246628,-0.792746663, 
832,502138600,-142.6647186,82.56620789,169.790741,-10.54341984,-0.006875292,-1.816321373,2.052850723,-27.93221664,-1.930133343, 
833,502155267,-138.5539093,83.0822525,173.9124603,-10.47273827,-0.826212466,-0.87681371,1.336352229,-44.96611404,-2.075930834, 
834,502171934,-137.1962128,83.34177399,175.4561005,-10.66036701,-1.793810368,-0.303645164,-10.4507494,-20.33547592,4.476570129, 
835,502188601,-136.5636597,83.55031586,176.135498,-11.04397106,-2.222197771,-1.212608457,-2.484824896,-13.75792027,7.319117069, 
836,502205268,-135.3054504,83.83947754,177.176712,-10.68861866,-2.38967061,-1.383135319,13.44917965,-18.68284607,9.308584213, 
837,502221935,-135.0870209,84.04885864,176.8489227,-9.991466522,-1.755367279,-1.286542892,32.69474411,-8.894761086,12.50636673, 
838,502238602,-133.7915649,84.32691193,177.3222809,-9.830322266,-1.340167761,-2.116732597,49.50533295,-15.18348026,12.09786987, 
839,502255269,-129.2008362,84.71776581,-179.1183777,-8.850113869,-0.775751054,-1.282351017,62.86599731,-32.23623657,6.244858265, 
840,502271936,-125.3432083,84.94464874,-176.3323517,-7.981223583,-0.418498278,-0.139773518,64.99629211,-21.66545486,3.91545248, 
841,502288603,-125.3728485,84.98331451,-177.2676544,-8.183941841,0.104925081,0.10793066,54.14328003,1.241486311,6.952293873, 
842,502305270,-127.3359299,84.99617767,179.9647675,-8.768260956,0.526869833,-0.127058879,47.66466522,9.808751106,11.40839386, 
843,502321937,-130.4505615,85.03504944,176.3115082,-9.094833374,0.420684397,-0.152603671,31.53961754,11.94286346,15.96282196, 
844,502338604,-135.3868713,85.02527618,171.0195313,-9.305787086,0.539440691,-0.435765564,20.20129204,19.13837433,20.46708679, 
845,502355271,-139.9473877,85.04860687,166.2586975,-9.202305794,0.092470393,-0.951769054,11.0071125,14.21512604,21.36074257, 
846,502371938,-142.0440216,85.21115875,164.0094757,-9.507336617,0.138141826,-1.094944,8.736977577,-1.757219195,17.19084358, 
847,502388605,-141.8728943,85.44943237,163.8638153,-9.043107986,-0.249754518,-0.695916295,19.04319954,-12.20516396,11.50882435, 
848,502405272,-142.1403656,85.57234192,163.4431305,-8.776391983,-0.415361404,-0.234236166,9.187781334,-5.980076313,8.235794067, 
849,502421939,-141.7631683,85.61948395,163.5078125,-8.738428116,-0.579931498,-0.488721758,18.85094643,-3.806237698,3.658829927, 
850,502438606,-140.5003052,85.6672287,164.4208221,-8.676745415,-0.611590385,-0.31778419,21.23255157,-6.219651222,0.696167171, 
851,502455273,-138.842804,85.69225311,165.704422,-8.671984673,-0.788575292,-0.142492026,22.73028946,-6.272004604,-1.314439774, 
852,502471940,-137.4041595,85.63614655,166.6485443,-8.764433861,-0.880615473,0.023241818,29.92292595,-1.732659698,-3.287419319, 
853,502488607,-136.345871,85.52171326,167.1512146,-8.980195999,-0.717688203,0.030624539,33.49246979,2.067773104,-4.25865984, 
854,502505274,-134.7546234,85.41456604,168.128891,-9.173429489,-0.461488366,0.023837097,37.08251953,-0.015719874,-5.666857243, 
855,502521941,-132.7653351,85.33851624,169.4574738,-9.391605377,-0.161610022,0.51549685,39.99239731,-2.839830637,-5.596951008, 
856,502538608,-130.2763519,85.31195068,171.3734283,-9.496562004,-0.239536658,0.600868106,34.84630203,-7.291129589,-5.276566505, 
857,502555275,-127.7322845,85.22013092,173.3979034,-9.284757614,-0.81358254,0.196480662,31.70138168,-5.652110577,-8.459413528, 
858,502571942,-126.9546661,84.95527649,173.6201935,-9.551810265,-1.037104607,-0.16429466,33.46979141,7.413399696,-11.20333385, 
859,502588609,-127.6945267,84.64105225,172.4149475,-10.1556406,-0.628895581,-0.703853548,27.72372627,15.32840157,-8.890516281, 
860,502605276,-127.1388931,84.51009369,172.6585541,-10.4256773,-0.703691125,-0.240163341,18.89812851,2.356640577,-4.953304291, 
861,502621943,-125.0764084,84.5198822,174.2987518,-10.40196323,-1.375463843,0.98727715,25.90045166,-9.262749672,-2.944591284, 
862,502638610,-122.3824463,84.5695343,176.4252014,-10.44588661,-2.544278145,1.316193461,34.73410034,-13.03758717,-2.13979125, 
863,502655277,-118.3616333,84.64393616,179.6638184,-10.19104004,-3.012294054,1.329624295,47.88358307,-19.28939438,-3.258677006, 
864,502671944,-113.3653717,84.66381073,-176.2742767,-9.655960083,-2.562563181,1.039000988,57.21359634,-22.21764183,-6.676877975, 
865,502688611,-109.7327499,84.49790192,-173.9347076,-9.528923035,-1.526742697,1.239054799,78.28173828,-9.923971176,-11.97033215, 
866,502705278,-109.7465591,84.16998291,-175.3312988,-10.18860435,-0.523687422,1.044280291,82.63571167,13.19802094,-13.56126308, 
867,502721945,-111.3559189,83.76602936,-178.1651459,-11.61453152,-0.251073748,-0.16086781,72.60964966,24.0184269,-14.2674818, 
868,502738612,-114.2501144,83.29571533,177.8682251,-12.41687393,0.01043833,-2.432397127,62.91832352,34.43542099,-13.47611237, 
869,502755279,-119.0270157,82.94226074,172.3995972,-14.08513927,0.758148551,-3.676477432,39.24557877,43.39966965,0.805170476, 
870,502771946,-127.0431213,82.83686066,164.5536346,-14.8639946,1.336552382,-3.677605152,-13.69504738,51.0097847,28.5512104, 
871,502788613,-133.7866669,83.22408295,158.2541962,-13.76381397,1.906015635,-2.331082344,-29.29193687,18.60835266,49.44481277, 
872,502805280,-133.2198639,84.11071014,159.3688049,-10.36975098,0.735465646,-1.811026096,-32.29007339,-43.22771835,35.5478096, 
873,502821947,-120.2708054,85.08889008,172.2072754,-6.411194324,-0.352744401,-1.678931236,10.18529034,-94.12437439,5.483994007, 
874,502838614,-106.9855881,85.24692535,-175.0119019,-4.370551109,-1.569987893,-0.845647037,33.17576218,-64.1145401,-15.15394592, 
875,502855281,-107.8680801,84.869133,-176.6513824,-5.151615143,-2.776017904,-1.590475917,45.24525833,13.59242058,-17.03330612, 
876,502871948,-120.6700745,84.30316162,169.6320343,-8.809811592,-1.733448625,-2.35636425,51.3999939,83.18769836,3.166745901, 
877,502888615,-130.2909393,83.88497162,159.8297577,-12.14108944,-1.279296517,-4.652619839,7.921523571,62.42775726,16.78733635, 
878,502905282,-128.5835876,84.25001526,161.4438782,-12.71581364,1.251564622,-3.345111847,6.238334656,-22.96725464,12.61108589, 
879,502921949,-115.8439713,84.96375275,174.5413666,-10.57787895,2.97719574,-0.769963324,-17.87605858,-86.38471222,-1.244561434, 
880,502938616,-104.8509293,85.00448608,-174.0424957,-8.430813789,2.249600649,0.991369247,-22.56488609,-58.25446701,-16.48046112, 
881,502955283,-108.5405731,84.44529724,-177.3568115,-8.765007973,1.021004319,0.151538119,-23.11460304,25.8028698,-24.86465263, 
882,502971950,-114.0306396,83.86330414,177.8937836,-9.243814468,-0.206720412,-2.446579695,-45.65514755,38.36210632,-19.99433899, 
883,502988617,-115.082489,83.53186035,177.7056885,-10.10941315,-1.575307727,-3.104589939,-51.62662506,8.030944824,-15.59566307, 
884,503005284,-110.6788788,83.5346756,-177.1512756,-9.247977257,-2.296386003,-2.548763275,-42.14183807,-33.46046448,-11.36646748, 
885,503021951,-106.7255859,83.51118469,-172.5021973,-8.809494019,-3.576879025,-1.246813655,-39.72656631,-30.74473763,-9.439398766, 
886,503038618,-102.1941757,83.3559494,-167.7202148,-9.653030396,-3.829140663,-1.407619238,-12.93501949,-30.85467339,-15.18396664, 
887,503055285,-95.77589417,83.29846954,-161.0996704,-8.087732315,-3.536833286,-0.300898254,-9.262657166,-46.45476532,-8.573618889, 
888,503071952,-95.98978424,83.21984863,-161.3713379,-7.131839275,-2.582326412,1.387721419,3.517981291,0.954444468,-2.441319466, 
889,503088619,-102.3859024,83.03092194,-167.7863464,-8.653003693,-2.705430746,0.292695731,-1.478241682,45.84218216,-1.760687709, 
890,503105286,-105.8574677,82.86699677,-171.4301147,-9.773159027,-2.60931468,-1.186632633,8.811727524,26.99954796,-0.918352365, 
891,503121953,-105.8299408,82.85112,-171.6198425,-9.462751389,-2.804979801,-0.890291631,13.06642914,0.192876548,1.550849915, 
892,503138620,-106.3338089,82.85147858,-172.4909363,-8.864905357,-2.422256231,-0.358944595,21.72323227,4.813441753,3.906404734, 
893,503155287,-108.2501221,82.81428528,-174.9075317,-8.99277401,-2.013207436,-0.535583198,28.96610451,16.50710487,5.334825993, 
894,503171954,-110.0516663,82.7849884,-177.2444458,-9.366188049,-1.711090207,-0.49298355,31.09527016,15.7458725,6.20973587, 
895,503188621,-111.213623,82.76863861,-178.8831024,-9.587321281,-1.540128231,-0.482843935,27.88765907,10.48826885,5.535511971, 
896,503205288,-111.8929214,82.77314758,179.997757,-9.743275642,-1.475260019,-0.453586876,25.92971039,6.333242416,5.463356018, 
897,503221955,-112.0661163,82.80620575,179.5131683,-9.690855026,-1.589578629,-0.224328727,18.51804352,1.2192173,5.306612015, 
898,503238622,-112.182785,82.85046387,179.1846313,-9.491293907,-1.769811749,0.023692559,12.6139164,-0.136458144,5.484040737, 
899,503255289,-112.5663376,82.85216522,178.6875916,-9.40171814,-2.008897066,0.020884439,6.630975246,1.979925871,3.611275911, 
900,503271956,-113.1620102,82.77534485,178.0180969,-9.430983543,-2.201598883,-0.327696502,4.161065578,5.011202335,-0.186876699, 
901,503288623,-113.7288513,82.66671753,177.4021149,-9.526538849,-2.050986767,-0.798511267,2.692765951,5.478019714,-2.001037359, 
902,503305290,-113.9987946,82.60697174,177.1235504,-9.715047836,-1.775252819,-1.420788169,0.402887732,1.997854471,-0.300801933, 
903,503321957,-112.934639,82.6574173,178.1982269,-10.06018829,-1.156361103,-1.22243607,-0.07784342,-10.20811749,1.598079324, 
904,503338624,-109.6245575,82.79816437,-178.428009,-9.784349442,-0.748241127,-0.403552562,-2.159086227,-28.36640549,0.697615087, 
905,503355291,-104.6078949,82.93109131,-173.2384949,-9.291288376,-0.714043319,0.70269978,-7.930221081,-40.71854401,-1.649000525, 
906,503371958,-100.7364044,82.93464661,-168.8928986,-8.833518028,-1.529672503,1.278571725,-26.42029953,-32.75572586,-4.708904743, 
907,503388625,-99.74694824,82.78909302,-167.1762238,-8.765698433,-2.779727936,0.693203092,-42.77933884,-12.45482159,-8.743720055, 
908,503405292,-100.9478989,82.5750351,-167.6620331,-9.084486961,-3.730082273,-0.437853366,-43.11349487,4.546938419,-9.840947151, 
909,503421959,-103.7553864,82.39315796,-169.9697876,-10.06819153,-3.649460793,-1.616885781,-31.16667175,18.60410118,-4.64603138, 
910,503438626,-105.9745712,82.30609131,-171.9281921,-11.54825306,-3.184253931,-2.073235512,-16.70978546,15.02015686,1.122632265, 
911,503455293,-107.1888809,82.24536896,-173.013916,-12.43764877,-2.881720066,-2.21821022,-8.347381592,7.978372097,1.168772221, 
912,503471960,-109.3531418,82.05789185,-175.1461182,-12.43518829,-3.189203739,-2.391001701,-3.178085089,18.64683723,-3.038957119, 
913,503488627,-113.3479004,81.65235138,-179.262146,-12.6924181,-3.277833462,-2.92923665,4.715696335,39.94897461,-7.740208626, 
914,503505294,-116.4686584,81.22414398,177.365921,-12.53318119,-2.453483582,-3.001321077,12.72104263,36.62808228,-8.433958054, 
915,503521961,-117.9110489,81.06893158,175.7317047,-10.63415432,-2.033718586,-3.215903759,10.22999477,16.16190338,0.78123951, 
916,503538628,-118.7705307,81.19439697,174.6454468,-8.428813934,-0.650488079,-2.882010937,12.70948601,3.736462355,13.56810093, 
917,503555295,-118.9446564,81.49224854,174.1789856,-6.79635191,0.800914168,-2.113430023,17.10892868,-6.47730732,19.84932709, 
918,503571962,-117.3859024,81.92474365,175.3523407,-6.584394455,1.420589328,-0.912572265,23.75998878,-22.7413311,20.23861885, 
919,503588629,-115.3808975,82.32532501,177.1077423,-7.380053043,1.951561928,0.636363208,15.90207863,-25.1454277,17.25897026, 
920,503605296,-114.0209427,82.5565567,178.4193878,-9.003109932,0.496944934,0.086283743,3.55758357,-16.7300415,10.40808105, 
921,503621963,-113.8343506,82.69770813,178.8836517,-10.59626389,-0.283461004,-0.54488188,-16.43437958,-8.217903137,8.403986931, 
922,503638630,-112.9744186,82.89328766,-179.7442627,-11.76452923,-0.875307918,-1.389897943,-30.07281113,-15.65067482,8.770812035, 
923,503655297,-110.3462677,83.29457092,-176.6779785,-11.37055397,-1.432043195,-1.404542923,-24.93386269,-30.96227264,16.30853081, 
924,503671964,-110.2261124,83.54104614,-176.6414642,-11.87142944,-1.880657196,-1.725928664,5.046834469,-6.885975838,15.88429642, 
925,503688631,-108.6097641,83.89774323,-175.3779907,-10.84041977,-1.66266036,-1.578797579,21.63199234,-16.46318436,19.52608299, 
926,503705298,-106.2258759,84.29601288,-173.5908508,-9.687251091,-0.994609058,-0.694370866,36.37353897,-19.2046051,21.60478401, 
927,503721965,-105.2863312,84.67211151,-173.2716827,-8.960416794,-0.901855767,-0.238543838,37.32114792,-9.427993774,23.33761597, 
928,503738632,-104.8936157,84.9777298,-173.6713104,-8.704838753,-0.69334805,-0.040714279,47.44189835,-4.202462673,20.37819481, 
929,503755299,-104.5234833,85.23815155,-174.0844269,-8.361616135,-0.435654253,0.389505059,46.90898514,-3.431779861,17.76151276, 
930,503771966,-105.6799698,85.39538574,-176.0049133,-8.480023384,-0.158638686,0.254037946,45.47489548,5.124028683,13.68196678, 
931,503788633,-107.5605698,85.47277832,-178.6304626,-8.672571182,0.186911896,0.06447757,44.21346664,9.200482368,10.13595486, 
932,503805300,-109.91082,85.46767426,178.3313599,-8.855128288,0.474931419,-0.180373758,40.72959137,12.25324631,6.427778721, 
933,503821967,-112.0518265,85.39878845,175.5618439,-8.982683182,0.594842434,-0.334624618,37.23048782,12.35450554,2.972792387, 
934,503838634,-113.6704483,85.29443359,173.3941345,-9.102331161,0.46635294,-0.48312965,32.58855438,10.67883587,0.419217557, 
935,503855301,-114.1938095,85.19657898,172.3859863,-9.213949203,0.208392531,-0.711842,28.94518852,5.498601437,-1.27357614, 
936,503871968,-113.7958603,85.12669373,172.3185577,-9.219620705,-0.125691622,-0.834443986,28.00650024,0.544092059,-1.621166706, 
937,503888635,-113.2748642,85.0716095,172.3891907,-9.30644989,-0.564709127,-0.903545499,27.12955284,-0.481359869,-1.11986053, 
