PacketCounter,SampleTimeFine,Euler_X,Euler_Y,Euler_Z,Acc_X,Acc_Y,Acc_Z,Gyr_X,Gyr_Y,Gyr_Z,
0,520441502,-109.3873749,-22.88563538,103.0638046,0,0,0,0,0,0, 
1,520458169,-109.488533,-22.84506607,103.0892258,3.903822899,-8.715400696,-3.140394688,-2.195123672,1.06165266,1.526203036, 
2,520474836,-109.5897903,-22.81535149,103.1031036,3.905447721,-8.733692169,-3.125078678,-1.926331043,1.069490314,1.632137418, 
3,520491503,-109.6520538,-22.79141235,103.151268,3.862907648,-8.719141006,-3.140344143,-1.717241764,1.23877728,1.723561764, 
4,520508170,-109.6998367,-22.75448608,103.1809311,3.855558157,-8.711541176,-3.119510889,-1.528309703,1.013718605,1.841328979, 
5,520524837,-109.7267227,-22.71599388,103.2228317,3.870143175,-8.685101509,-3.09506321,-1.151483059,0.905773938,1.847258449, 
6,520541504,-109.7485046,-22.68616295,103.2609024,3.848346949,-8.644805908,-3.063243389,-1.534200788,0.882812083,1.788541079, 
7,520558171,-109.7687302,-22.66194344,103.2713928,3.840881348,-8.672496796,-3.100802898,-1.928470016,0.801133215,1.690214038, 
8,520574838,-109.7892761,-22.6400547,103.2444305,3.867754936,-8.680778503,-3.128615856,-1.998648524,0.846749365,1.553365231, 
9,520591505,-109.8163986,-22.62037849,103.2431564,3.865625143,-8.650636673,-3.096097946,-2.342640162,0.988400519,1.619663954, 
10,520608172,-109.848175,-22.60779572,103.2431793,3.850758791,-8.612746239,-3.057401657,-2.718007088,1.150848985,1.402365685, 
11,520624839,-109.8897781,-22.60433006,103.2485657,3.829705238,-8.625610352,-3.095030785,-3.504278898,1.367776036,1.0287534, 
12,520641506,-109.9300232,-22.60434151,103.2429428,3.870459557,-8.716697693,-3.156701088,-3.414211273,1.446381092,0.801440537, 
13,520658173,-109.9713287,-22.60229874,103.2439957,3.884923935,-8.754838943,-3.165142059,-3.359003305,1.32383728,0.850975573, 
14,520674840,-110.0121002,-22.59650993,103.2200241,3.882855892,-8.735582352,-3.16002655,-3.332506657,1.317703009,1.056735158, 
15,520691507,-110.0449142,-22.58676147,103.2127762,3.919505835,-8.746260643,-3.167093515,-2.894631863,1.340907931,1.30972445, 
16,520708174,-110.0677261,-22.57300758,103.2017212,3.877766609,-8.722156525,-3.183394432,-2.301544666,1.263148069,1.59374404, 
17,520724841,-110.0852356,-22.55701065,103.1917267,3.860775232,-8.672322273,-3.199361086,-1.903958559,1.131575465,1.669531822, 
18,520741508,-110.1016541,-22.54108429,103.177803,3.847409964,-8.65275383,-3.16781497,-1.768582463,1.162169933,1.66446054, 
19,520758175,-110.1235046,-22.53038788,103.1740952,3.838270426,-8.649181366,-3.156554699,-2.053255081,1.224767327,1.344263315, 
20,520774842,-110.1491241,-22.52285385,103.1575928,3.817835808,-8.670819283,-3.189769745,-2.249243498,1.216648102,1.127093196, 
21,520791509,-110.1700821,-22.52033234,103.1509781,3.807501793,-8.673565865,-3.194368839,-1.936845303,1.317741513,0.796318114, 
22,520808176,-110.1979141,-22.52165031,103.1508713,3.81273675,-8.616374016,-3.1524086,-2.310073614,1.372603774,0.523978174, 
23,520824843,-110.2389832,-22.52533722,103.1474533,3.843995333,-8.619140625,-3.162217617,-3.160517454,1.524423003,0.42250067, 
24,520841510,-110.2867279,-22.52997017,103.1499023,3.868286848,-8.621906281,-3.184489012,-3.631919861,1.686474919,0.441543788, 
25,520858177,-110.3352814,-22.53118324,103.1520462,3.889233828,-8.683612823,-3.235606194,-3.732897043,1.741861939,0.708812177, 
26,520874844,-110.3805466,-22.52830696,103.1385727,3.881994963,-8.726446152,-3.259595633,-3.551585674,1.731617332,0.985826492, 
27,520891511,-110.4121246,-22.52367592,103.1235733,3.86999917,-8.719329834,-3.254392624,-2.65190053,1.559960604,1.028061867, 
28,520908178,-110.4268799,-22.5177021,103.1298676,3.872543573,-8.685986519,-3.237340212,-1.583914995,1.425942183,1.052854896, 
29,520924845,-110.4359665,-22.51568031,103.1535034,3.883799314,-8.622506142,-3.205650091,-1.21766603,1.451977372,0.81011045, 
30,520941512,-110.4501038,-22.51753235,103.141304,3.890791416,-8.59962368,-3.190278769,-1.471488118,1.400457621,0.567891181, 
31,520958179,-110.4716492,-22.52400589,103.1357651,3.889853239,-8.607023239,-3.182165384,-2.009034395,1.680916667,0.40312463, 
32,520974846,-110.4943314,-22.5336132,103.1251373,3.889619827,-8.642353058,-3.215460062,-2.094593763,1.744730711,0.248423994, 
33,520991513,-110.508934,-22.54449844,103.1243591,3.869905233,-8.652756691,-3.241788864,-1.56245172,1.654349923,0.140985116, 
34,521008180,-110.51474,-22.55363655,103.1200027,3.86325717,-8.654051781,-3.224903345,-0.984949231,1.516611338,0.196468636, 
35,521024847,-110.5160141,-22.5612793,103.1002884,3.876871109,-8.657355309,-3.22257781,-0.726555526,1.511539936,0.281822979, 
36,521041514,-110.510704,-22.56637573,103.1182175,3.876271248,-8.687191963,-3.233052731,-0.354799926,1.498298168,0.437625021, 
37,521058181,-110.5013046,-22.56954002,103.1173782,3.87641263,-8.652544022,-3.202733278,-0.156237453,1.56012702,0.574307203, 
38,521074848,-110.4972916,-22.57318115,103.1074448,3.881667137,-8.616932869,-3.212693214,-0.461925,1.509414077,0.522146881, 
39,521091515,-110.4932709,-22.58037376,103.0944366,3.89481473,-8.600132942,-3.196847916,-0.490867466,1.647850871,0.350733936, 
40,521108182,-110.4927673,-22.58949471,103.0851135,3.906722784,-8.659567833,-3.198703766,-0.715964556,1.709461927,0.258707464, 
41,521124849,-110.4926834,-22.59720612,103.0743866,3.911723375,-8.693671227,-3.247061253,-0.760236144,1.70445466,0.35173279, 
42,521141516,-110.4853363,-22.60340881,103.0668411,3.923885584,-8.672727585,-3.211763144,-0.37388137,1.78887403,0.478272378, 
43,521158183,-110.4751816,-22.61104012,103.0529633,3.920664549,-8.645524979,-3.24025774,-0.199305192,1.79543066,0.393033206, 
44,521174850,-110.4643326,-22.62214088,103.0373535,3.95018959,-8.632621765,-3.228286266,-0.156916201,1.879568577,0.20761013, 
45,521191517,-110.4508667,-22.6313839,103.0184631,3.938257694,-8.630989075,-3.221209526,-0.080641583,2.025842905,0.392239243, 
46,521208184,-110.4380112,-22.64129829,103.0035172,3.955245733,-8.638173103,-3.245477915,-0.080500707,1.959416032,0.331537157, 
47,521224851,-110.4275818,-22.65275002,102.9901886,3.936611414,-8.649585724,-3.225074768,-0.214800894,1.985131383,0.251856089, 
48,521241518,-110.4228516,-22.66293335,102.9791031,3.911696196,-8.636151314,-3.198382854,-0.57467854,1.998661518,0.340956271, 
49,521258185,-110.420723,-22.67234039,102.9632187,3.925586462,-8.620657921,-3.194325447,-0.734277666,1.982775092,0.384158462, 
50,521274852,-110.4155121,-22.68108749,102.9494858,3.943444967,-8.625590324,-3.217157841,-0.47213161,1.794444561,0.358251154, 
51,521291519,-110.4035416,-22.68741798,102.9356079,3.948185205,-8.622702599,-3.198317766,-0.012844769,1.626092792,0.453722596, 
52,521308186,-110.391571,-22.69247437,102.9217072,3.955855608,-8.618756294,-3.19712019,-0.015534103,1.601274014,0.532071829, 
53,521324853,-110.3852921,-22.69900703,102.918663,3.964238405,-8.610384941,-3.185250521,-0.36035791,1.6382972,0.457231551, 
54,521341520,-110.3786545,-22.70359993,102.91082,3.964257956,-8.646921158,-3.198025465,-0.315458834,1.54160285,0.553208709, 
55,521358187,-110.3684082,-22.70635033,102.8991623,3.986659288,-8.668916702,-3.194859266,-0.059895303,1.40600276,0.625775933, 
56,521374854,-110.3616028,-22.70484734,102.8853455,3.988523006,-8.635766983,-3.1268363,-0.257049054,1.292743444,0.861194968, 
57,521391521,-110.3655167,-22.7019062,102.873909,3.964009523,-8.63544178,-3.144002676,-0.953336656,1.351082563,0.98448813, 
58,521408188,-110.3655853,-22.69647026,102.8585205,3.96386838,-8.66332531,-3.213980675,-0.752923667,1.350628018,1.148518205, 
59,521424855,-110.3580856,-22.68895912,102.858963,3.957838058,-8.631485939,-3.199259996,-0.261505693,1.226809859,1.236734986, 
60,521441522,-110.3458023,-22.68278885,102.8527222,3.936271667,-8.609461784,-3.202585459,0.02331396,1.262456536,1.16715157, 
61,521458189,-110.3353271,-22.67965317,102.8408127,3.929503679,-8.6022892,-3.170833349,-0.102476403,1.372181058,1.012899041, 
62,521474856,-110.3329544,-22.6799469,102.8277512,3.931815624,-8.631361008,-3.173519135,-0.607488453,1.486919761,0.838047564, 
63,521491523,-110.3355942,-22.67900085,102.8114929,3.924954176,-8.662620544,-3.178486347,-0.885117233,1.403268456,0.886365831, 
64,521508190,-110.340477,-22.67936325,102.7973404,3.933623314,-8.646456718,-3.17566514,-0.984142303,1.344954729,0.778440356, 
65,521524857,-110.343956,-22.67832947,102.7867966,3.954257727,-8.648251534,-3.223601103,-0.923004687,1.364381909,0.874667168, 
66,521541524,-110.3427429,-22.67653847,102.7791443,3.970447063,-8.617547989,-3.197030544,-0.6620754,1.40465796,0.939620912, 
67,521558191,-110.3417816,-22.6734581,102.768692,3.968573809,-8.621408463,-3.208217382,-0.617163599,1.243182898,0.967436552, 
68,521574858,-110.3379364,-22.66922379,102.7586975,3.976220846,-8.625943184,-3.176797628,-0.41853714,1.170205832,1.018488884, 
69,521591525,-110.3370209,-22.66486549,102.7484131,3.982428789,-8.611095428,-3.181562424,-0.548662424,1.058656216,0.990334213, 
70,521608192,-110.3364563,-22.66123009,102.7445984,3.992099285,-8.618074417,-3.189827919,-0.570983887,1.077340603,0.959137976, 
71,521624859,-110.3383102,-22.65756035,102.7375031,3.990228176,-8.631552696,-3.186065197,-0.661742508,0.954950333,0.92231971, 
72,521641526,-110.3443222,-22.6505127,102.7306213,3.99252677,-8.623779297,-3.186537266,-0.905729115,0.864242911,1.112391591, 
73,521658193,-110.3504944,-22.64039803,102.7228622,3.988536358,-8.614181519,-3.191387177,-0.967609406,0.9221403,1.335311651, 
74,521674860,-110.3572845,-22.62747383,102.7162628,3.957643747,-8.604272842,-3.193381071,-0.962153733,0.765211403,1.465001464, 
75,521691527,-110.3596878,-22.61534691,102.7089081,3.961731195,-8.622896194,-3.214917183,-0.677865744,0.738638341,1.4083848, 
76,521708194,-110.3618317,-22.60015488,102.7052689,3.95694232,-8.630242348,-3.187571526,-0.66891408,0.693111658,1.590644598, 
77,521724861,-110.363739,-22.58608055,102.7135162,3.946029425,-8.637815475,-3.185216427,-0.656274199,0.716861129,1.532202959, 
78,521741528,-110.3690948,-22.57394028,102.7077713,3.940446377,-8.626002312,-3.155694723,-0.852659643,0.735500753,1.417861581, 
79,521758195,-110.3758774,-22.56186295,102.7007828,3.94618988,-8.632553101,-3.188385487,-0.955014229,0.760274529,1.425641179, 
80,521774862,-110.3839798,-22.54852676,102.6956329,3.943436861,-8.6340065,-3.168036222,-1.005195975,0.669022918,1.475041747, 
81,521791529,-110.3944397,-22.53302002,102.6922684,3.950367212,-8.622630119,-3.180979967,-1.189312935,0.713665903,1.634275794, 
82,521808196,-110.3996201,-22.51714897,102.6934204,3.950161457,-8.603300095,-3.217831135,-0.888747811,0.738330841,1.671567917, 
83,521824863,-110.4021149,-22.50344086,102.6887741,3.966154099,-8.632369041,-3.220196247,-0.740181386,0.815361023,1.566235662, 
84,521841530,-110.4057388,-22.49245262,102.6874084,3.968741179,-8.678395271,-3.216833591,-0.768675566,0.7907601,1.388278842, 
85,521858197,-110.4104538,-22.48291969,102.6829453,3.981461287,-8.661004066,-3.225039721,-0.854529381,0.862501323,1.327346206, 
86,521874864,-110.4170761,-22.47373962,102.6773758,3.975564957,-8.64525032,-3.222223759,-0.945492983,0.819113374,1.293140411, 
87,521891531,-110.4226532,-22.46326256,102.6738358,3.955324173,-8.665455818,-3.228475094,-0.909929574,0.854650915,1.396820426, 
88,521908198,-110.4230499,-22.45232391,102.6666412,3.942725658,-8.631842613,-3.214946747,-0.587696195,0.81824261,1.416491151, 
89,521924865,-110.423027,-22.43875885,102.672287,3.927163363,-8.605661392,-3.202175617,-0.506567955,0.639120102,1.522233129, 
90,521941532,-110.4194183,-22.42562103,102.6709442,3.939935684,-8.579317093,-3.16978097,-0.27677086,0.614480674,1.49055028, 
91,521958199,-110.4306488,-22.41361809,102.6705475,3.953926325,-8.5644207,-3.13747263,-1.116700768,0.520891786,1.389085293, 
92,521974866,-110.4600601,-22.40211868,102.6722641,3.953177929,-8.586977959,-3.208086014,-2.154393196,0.399314821,1.320501328, 
93,521991533,-110.4932022,-22.39092827,102.6743469,3.954095602,-8.631066322,-3.222643614,-2.361868858,0.367362976,1.296630263, 
94,522008200,-110.525795,-22.37892342,102.6797485,3.947762251,-8.635209084,-3.218550682,-2.260090113,0.193049327,1.290387034, 
95,522024867,-110.5522308,-22.36490059,102.6903305,3.967788696,-8.643832207,-3.26990056,-1.838197947,0.026694838,1.362858176, 
96,522041534,-110.5838165,-22.35031128,102.692688,3.982472658,-8.608433723,-3.125901222,-2.278633833,0.320472509,1.516342402, 
97,522058201,-110.6177444,-22.33151817,102.7020035,3.974076509,-8.677482605,-3.280388832,-2.282859802,-0.099108338,1.638758183, 
98,522074868,-110.6631927,-22.31513596,102.7093811,3.958505869,-8.597442627,-3.198182344,-2.968742132,-0.060881384,1.505226135, 
99,522091535,-110.7296524,-22.29990578,102.7195129,3.927886248,-8.602355957,-3.229441643,-4.220601559,-0.066836335,1.437173247, 
100,522108202,-110.8095322,-22.2846508,102.7315903,3.913849592,-8.514625549,-3.183182955,-4.927141666,-0.293009341,1.359535098, 
101,522124869,-110.9299316,-22.26937485,102.7459488,3.93530345,-8.501412392,-3.172518969,-7.301849842,-0.437926054,1.314885974, 
102,522141536,-111.0922852,-22.24886322,102.7639771,3.93930006,-8.601618767,-3.237285852,-9.788844109,-0.633248568,1.584638953, 
103,522158203,-111.2825394,-22.20504951,102.7959366,3.98369956,-8.990675926,-3.533414125,-11.16974163,-1.824380636,2.630322933, 
104,522174870,-111.4458923,-22.14891052,102.8320923,4.021157742,-8.660411835,-3.436399221,-9.422698021,-2.395800114,3.193175077, 
105,522191537,-111.6470642,-22.07546234,102.877327,3.997679234,-8.556965828,-3.340113878,-11.64348888,-2.895709515,4.119939327, 
106,522208204,-111.8748016,-21.99348259,102.9120636,3.963247538,-8.569543839,-3.324136734,-13.39456844,-2.748129368,4.737360954, 
107,522224871,-112.1356125,-21.91140938,102.9449844,3.948698759,-8.574644089,-3.408973932,-15.39726639,-2.755583048,4.749424458, 
108,522241538,-112.4261017,-21.8008976,102.9759369,4.01603508,-8.673715591,-3.409901857,-17.25949287,-3.248206139,6.396208763, 
109,522258205,-112.7619171,-21.65598869,102.9879532,4.018870831,-8.877644539,-3.501398563,-20.39648438,-3.14567399,8.684640884, 
110,522274872,-113.1053467,-21.46584702,103.008606,3.999794006,-8.978037834,-3.929166317,-20.71007538,-4.617236614,11.02132702, 
111,522291539,-113.4384232,-21.24791336,103.0437927,3.92190814,-8.559239388,-3.765910149,-19.74124527,-6.135559559,12.18455505, 
112,522308206,-114.0831146,-21.02486801,103.0538254,3.785404444,-7.846059799,-3.642464161,-38.96723557,-5.103629589,12.97840977, 
113,522324873,-115.2538834,-20.78117943,102.9923172,3.899406672,-8.305145264,-4.155778408,-72.01260376,-2.271095991,15.67713547, 
114,522341540,-116.7966309,-20.53113174,102.8828812,3.856985807,-8.326830864,-4.597168922,-94.99383545,-1.127463222,16.7978344, 
115,522358207,-118.7269287,-20.28791237,102.7450027,3.598321438,-8.450954437,-4.920842648,-118.7806931,-0.012179457,17.15436745, 
116,522374874,-120.9333344,-20.05753517,102.6267776,3.492618322,-8.428406715,-5.330133915,-134.8823853,-1.176980138,15.92285633, 
117,522391541,-123.1912308,-19.84053612,102.6059418,3.43432188,-8.290188789,-5.703394413,-135.9236755,-5.99197197,12.25874138, 
118,522408208,-125.5575638,-19.63786316,102.6167603,3.367733717,-8.022666931,-5.94162941,-141.7564087,-7.439701557,10.27332783, 
119,522424875,-127.924881,-19.4440937,102.674881,3.457811832,-8.211263657,-6.312977791,-140.8425446,-9.656013489,7.91291523, 
120,522441542,-130.5145111,-19.3619957,102.7703018,3.585488558,-7.644342422,-6.611690044,-153.4385223,-7.365313053,0.94133848, 
121,522458209,-133.4205322,-19.31355667,102.9517136,3.599000692,-6.680924892,-6.960681915,-170.6991272,-9.65370369,-4.175876617, 
122,522474876,-136.5854187,-19.24042511,103.1374817,3.597806692,-6.404767036,-7.212911129,-186.1098633,-10.62721729,-3.799865961, 
123,522491543,-139.4230652,-19.09212685,103.3005524,3.48465848,-6.857329845,-6.990789413,-166.9074249,-12.89430809,-0.372381359, 
124,522508210,-141.6764679,-18.86415672,103.4290924,3.325289011,-7.048638344,-6.833839417,-132.5856323,-15.3125906,3.585433245, 
125,522524877,-143.3352814,-18.61031532,103.527092,3.386926651,-7.457283497,-7.161848545,-97.60371399,-15.60911179,5.345574856, 
126,522541544,-144.4917145,-18.37624168,103.5930557,3.421430349,-6.591163635,-7.439110756,-68.19699097,-13.71442795,5.692424297, 
127,522558211,-145.4906311,-18.16026688,103.6246109,3.356625557,-5.561498165,-7.465055943,-59.47056198,-11.816432,6.398077965, 
128,522574878,-146.5085449,-17.9503479,103.6416702,3.25849247,-5.345425606,-7.342499256,-60.90376663,-11.17390919,6.672269821, 
129,522591545,-147.4681396,-17.75729942,103.633522,3.203091383,-5.453899384,-7.323980808,-57.89260101,-9.665646553,7.134626865, 
130,522608212,-148.2722473,-17.58130646,103.6168289,3.121831656,-5.275943279,-7.407578945,-48.75421143,-8.658654213,6.85381937, 
131,522624879,-148.9226227,-17.42186928,103.60392,3.135877371,-5.176334858,-7.551599503,-39.49234772,-8.019178391,6.038132668, 
132,522641546,-149.4085846,-17.29206085,103.5934296,3.231991053,-5.066587925,-7.681919575,-29.61274338,-6.631763935,4.929852486, 
133,522658213,-149.7567139,-17.17592049,103.5884552,3.210008621,-4.822593212,-7.737584591,-21.26888847,-6.136711597,4.199318409, 
134,522674880,-150.0551758,-17.08670044,103.5867386,3.308208942,-4.721325397,-7.817763805,-18.24324608,-4.871285439,3.201367617, 
135,522691547,-150.3266907,-17.02216911,103.5776291,3.335886717,-4.83486557,-7.936221123,-16.76470566,-3.410014153,2.823937416, 
136,522708214,-150.6047363,-16.98358345,103.5686493,3.373735428,-4.939603329,-8.218327522,-17.16836548,-2.093328238,2.045605183, 
137,522724881,-150.8879242,-16.98155785,103.5553818,3.357221127,-4.876997948,-8.407622337,-17.56588554,-0.087480262,1.18827045, 
138,522741548,-151.1154327,-17.00007439,103.5384521,3.309375048,-4.842775345,-8.455224991,-14.29662132,1.074651957,0.785010517, 
139,522758215,-151.2574158,-17.02474594,103.5174561,3.305194855,-4.861588001,-8.418099403,-9.242012978,1.49696672,0.823621392, 
140,522774882,-151.3179779,-17.04364014,103.4938507,3.282461643,-4.869327068,-8.388279915,-4.413849831,1.252967,1.131242633, 
141,522791549,-151.3421936,-17.05720329,103.4743652,3.282013416,-4.926390648,-8.46364212,-2.173634529,0.847197711,1.085280418, 
142,522808216,-151.3611145,-17.06434059,103.4736481,3.23553133,-4.906198978,-8.498336792,-1.539630651,-0.017365411,0.330807209, 
143,522824883,-151.4051819,-17.06555939,103.4804077,3.189134359,-4.870366096,-8.537707329,-2.928081989,-0.540312707,0.127788156, 
144,522841550,-151.4944611,-17.05999565,103.489296,3.125645399,-4.915555954,-8.557513237,-5.611140728,-0.959093273,0.218162581, 
145,522858217,-151.5873413,-17.04722786,103.4978409,3.112914085,-5.02959156,-8.554703712,-5.844370365,-1.328313112,0.439046502, 
146,522874884,-151.6526337,-17.02640915,103.4975128,3.075478315,-5.023979187,-8.562925339,-4.364366055,-1.512891293,1.110432267, 
147,522891551,-151.6741943,-16.99809837,103.4838943,3.113411427,-4.973357201,-8.60910511,-1.993077874,-1.544958115,1.989984989, 
148,522908218,-151.6692505,-16.96421623,103.4704742,3.073693275,-4.879360676,-8.622168541,-0.411006987,-1.841796637,2.139025211, 
149,522924885,-151.6691742,-16.9208889,103.4674683,3.043634892,-4.815486431,-8.566987038,-0.53064388,-2.622842789,1.879581451, 
150,522941552,-151.7152252,-16.87561798,103.478447,3.011854172,-4.663880348,-8.550888062,-3.060615778,-3.10397768,1.22563827, 
151,522958219,-151.7855225,-16.82938766,103.4900894,2.998187304,-4.721806526,-8.549368858,-4.504147053,-3.170621634,1.21719873, 
152,522974886,-151.8296356,-16.78152657,103.4972687,3.047748566,-4.897022247,-8.555150032,-3.013821125,-3.13049984,1.48852694, 
153,522991553,-151.7953033,-16.73345757,103.4944916,3.057331085,-4.974112511,-8.531310081,1.507608652,-2.871991158,1.995184898, 
154,523008220,-151.7037964,-16.68426132,103.4835968,3.064358473,-4.872627735,-8.552705765,4.779529095,-2.71079731,2.438912153, 
155,523024887,-151.6031189,-16.63793755,103.4695969,3.07699728,-4.752736568,-8.528456688,5.266516209,-2.471267223,2.519989014, 
156,523041554,-151.4949188,-16.59144402,103.4513702,3.082093239,-4.794735909,-8.527603149,5.642727852,-2.363040686,2.745393515, 
157,523058221,-151.3423615,-16.53839874,103.4339523,3.059012651,-4.911130905,-8.509995461,8.313034058,-2.726946592,2.902284622, 
158,523074888,-151.1602478,-16.49082184,103.4224243,3.05690217,-4.913984776,-8.501945496,10.17781734,-2.59676981,2.457520008, 
159,523091555,-150.9445038,-16.45421219,103.408783,3.011817217,-4.854268551,-8.472903252,12.15047169,-1.957605243,2.255564451, 
160,523108222,-150.6609192,-16.42233658,103.3907547,3.03095603,-5.015976906,-8.580658913,16.14197731,-1.579216599,2.348283529, 
161,523124889,-150.2747498,-16.39593506,103.373497,3.011878967,-5.099040031,-8.619368553,22.3044796,-1.302100778,2.159148216, 
162,523141556,-149.744812,-16.3685627,103.3576431,2.966768265,-5.183269501,-8.680395126,30.94708633,-1.378108621,2.127084255, 
163,523158223,-148.9781647,-16.32696342,103.3419189,2.874657154,-5.369378567,-8.646980286,45.14832306,-2.090677261,2.56972146, 
164,523174890,-147.8161774,-16.23563004,103.3472977,2.817070961,-6.12213707,-8.738002777,69.21611786,-5.222044468,3.127177954, 
165,523191557,-146.2912903,-16.07257843,103.461937,2.594080925,-5.985921383,-8.778793335,92.77977753,-12.18058395,0.289029002, 
166,523208224,-144.9915314,-15.88421631,103.696991,2.809809923,-4.616439819,-8.55526638,81.23343658,-17.33140945,-4.31078577, 
167,523224891,-144.1028748,-15.73547173,103.9381638,2.712140799,-4.859397888,-8.384935379,56.69371033,-15.67654419,-5.638460636, 
168,523241558,-143.0484772,-15.56086159,104.1525192,2.750804663,-6.157277584,-8.394997597,66.22174835,-16.0970192,-3.20254302, 
169,523258225,-141.7226105,-15.43068695,104.3371429,2.876218319,-6.400352478,-8.149272919,82.00667572,-13.00081062,-3.144445658, 
170,523274892,-140.1726074,-15.34676933,104.4898758,2.740142822,-6.583341122,-7.745380402,94.92754364,-9.766626358,-3.138705969, 
171,523291559,-138.596756,-15.28154945,104.6273193,2.684307814,-5.87549448,-7.436975479,96.21605682,-8.429134369,-2.935017109, 
172,523308226,-137.5257568,-15.24497032,104.744606,2.646393538,-5.117049217,-6.943935394,65.62514496,-6.441295147,-3.015595675, 
173,523324893,-137.2083588,-15.22362995,104.8492813,2.662203074,-4.906827927,-6.580809593,20.25833702,-5.312952995,-3.000045776, 
174,523341560,-137.7887268,-15.21664238,104.9373169,2.618331432,-4.992002487,-6.326936245,-33.81676483,-4.022887707,-2.861308813, 
175,523358227,-139.0664215,-15.21330261,104.9890823,2.720788717,-5.624992371,-6.550175667,-76.19160461,-2.418016434,-1.48112309, 
176,523374894,-140.6362152,-15.22807217,104.9872131,2.68412137,-6.70696497,-7.054892063,-94.55132294,0.45332703,0.14583689, 
177,523391561,-142.2428741,-15.2775898,104.9518433,2.705150604,-6.486052513,-7.368379593,-97.32350922,3.292180538,0.36552462, 
178,523408228,-143.9044189,-15.33514786,104.8899765,2.644479513,-6.255217075,-7.887331963,-101.0621872,4.593565941,1.387854815, 
179,523424895,-145.4976807,-15.41656017,104.8005981,2.64158082,-6.085247517,-7.949739456,-97.42094421,6.655842781,1.977795482, 
180,523441562,-146.9660339,-15.52831078,104.6972733,2.598459005,-5.968297005,-7.744185448,-90.17693329,8.57596302,1.800682545, 
181,523458229,-148.1334229,-15.6547718,104.5760117,2.575042009,-6.236181736,-7.929616928,-72.45684814,9.840500832,2.382326603, 
182,523474896,-148.880249,-15.78762341,104.4498978,2.688355207,-6.093697548,-8.314800262,-47.37137222,10.2799778,2.558390141, 
183,523491563,-149.2757568,-15.93422699,104.3278809,2.745362759,-5.591184616,-8.502943039,-26.28678322,10.84600449,2.011223793, 
184,523508230,-149.4520111,-16.09863853,104.2102585,2.686369896,-5.194239616,-8.517916679,-13.0988102,11.62995148,1.285893321, 
185,523524897,-149.4707031,-16.25902176,104.1029892,2.61890316,-4.81961441,-8.426800728,-3.492984533,11.12577057,0.901407301, 
186,523541564,-149.3463135,-16.43753433,103.9854202,2.609825134,-4.838467598,-8.31525135,4.909464359,12.37434101,0.836389542, 
187,523558231,-148.9315186,-16.6384182,103.8902206,2.560599089,-5.262290955,-8.409024239,22.70013428,12.87884426,-1.026354551, 
188,523574898,-148.1687469,-16.84345818,103.8078537,2.716367722,-5.051909924,-8.528445244,43.77477646,12.70466328,-1.939638376, 
189,523591565,-147.175766,-17.06429291,103.7185287,2.747225761,-5.254908562,-8.548335075,57.45837784,13.69483471,-2.316875935, 
190,523608232,-145.9664459,-17.30095863,103.6218567,2.757539749,-5.329043388,-8.492260933,70.29948425,14.67842293,-2.766644239, 
191,523624899,-144.6131592,-17.54415321,103.5096436,2.83001256,-5.336684227,-8.369853973,78.65104675,15.4485054,-2.600977421, 
192,523641566,-143.1796112,-17.78973198,103.3768768,2.925682306,-5.485929489,-8.070727348,83.087883,16.19148254,-2.123717785, 
193,523658233,-141.7073669,-18.03108406,103.2314835,2.960407734,-5.547953606,-7.724807739,85.16549683,16.36668587,-1.820458055, 
194,523674900,-140.2156372,-18.25967407,103.0647736,3.043284655,-5.886086464,-7.493659496,85.92169189,16.47892189,-0.828132212, 
195,523691567,-138.7550659,-18.49139977,102.8800278,3.055546522,-5.97879076,-7.239215374,83.68287659,17.24902725,-0.605525434, 
196,523708234,-137.4285583,-18.72253227,102.6888885,3.023389816,-6.107542515,-7.046782494,75.4857254,17.43404007,-0.742438138, 
197,523724901,-136.3201294,-18.97689819,102.4937973,2.99435997,-6.278306961,-6.942387104,62.28891373,18.57467651,-1.917369604, 
198,523741568,-135.4022217,-19.25486755,102.2894211,2.855417967,-6.287767887,-6.858298779,50.6362114,19.91134644,-2.874632835, 
199,523758235,-134.6010437,-19.54035187,102.0741577,2.862917423,-6.454857826,-6.862611294,43.37284851,20.61696243,-3.083486557, 
200,523774902,-133.8565216,-19.83844948,101.8526611,2.911638975,-6.685451984,-6.818468094,39.80291748,21.35186768,-3.687960625, 
201,523791569,-133.1596527,-20.16642761,101.6102829,3.013343096,-7.086858273,-6.637479305,36.46029282,23.38876915,-4.4807024, 
202,523808236,-132.5194092,-20.51835632,101.3521042,3.029644489,-7.112388134,-6.478669643,32.64935303,24.9522934,-5.244155884, 
203,523824903,-131.9895477,-20.89980125,101.0579605,3.083864689,-7.011679649,-6.24488306,25.16946411,27.56843758,-5.497601986, 
204,523841570,-131.5883484,-21.29965401,100.7328186,3.211338997,-6.981255531,-6.056053638,16.66468239,29.53046608,-5.436522007, 
205,523858237,-131.3391113,-21.70087051,100.3503876,3.732032776,-7.052834034,-6.007210255,6.155132771,31.91936302,-3.595716476, 
206,523874904,-131.2355957,-22.13980293,99.89328766,4.028090477,-7.227515221,-6.197912216,-4.421298504,36.47216415,-2.692663431, 
207,523891571,-131.1147156,-22.63088989,99.36616516,3.885618448,-7.071495056,-6.072840691,-5.18791008,41.38085938,-2.611563921, 
208,523908238,-130.8321686,-23.14038658,98.80582428,3.692693472,-6.854757309,-5.857642174,3.48043704,43.3971138,-2.458092928, 
209,523924905,-130.3488312,-23.65328026,98.21228027,3.773036242,-7.232644081,-5.845648766,14.45855427,44.81164932,-1.796553016, 
210,523941572,-129.6594849,-24.18422508,97.58556366,3.877438784,-7.262300491,-5.867789268,25.70407867,46.78075027,-2.011615992, 
211,523958239,-128.8813782,-24.73066139,96.94548798,3.767608881,-7.179563522,-6.015062809,30.37107468,47.79285812,-2.972688198, 
212,523974906,-128.0764771,-25.26548767,96.28944397,3.955770969,-7.652004242,-6.249784946,31.25316238,47.88526154,-2.659090042, 
213,523991573,-127.320694,-25.78204536,95.62531281,4.107152462,-8.129433632,-6.337418079,27.77935028,47.41719818,-2.292501688, 
214,524008240,-126.6142349,-26.27429199,94.97107697,4.111149311,-8.151026726,-6.259355068,24.76860809,45.97230911,-2.174231768, 
215,524024907,-125.9095154,-26.74956512,94.32950592,4.224704742,-7.86890316,-6.031749725,24.71492577,44.69543839,-2.439452648, 
216,524041574,-125.1721649,-27.21385384,93.73335266,4.518210888,-7.893271446,-6.062987328,27.63872528,42.20466995,-3.9807868, 
217,524058241,-124.4510651,-27.68162918,93.20453644,4.889001369,-7.726477623,-6.078810692,28.28676605,39.23166275,-6.827391624, 
218,524074908,-123.7733154,-28.14570427,92.72819519,5.087541103,-8.578912735,-6.227944374,26.95975494,36.62945557,-8.747380257, 
219,524091575,-123.0626907,-28.61402512,92.32131195,5.113170624,-8.771607399,-6.024853706,30.72539711,33.52357864,-11.49626637, 
220,524108242,-122.3957214,-29.04932785,91.97960663,5.123660564,-8.65865612,-5.755446911,29.83219719,29.36592674,-12.15135956, 
221,524124909,-121.8787155,-29.44843864,91.69051361,5.323691845,-8.918958664,-5.688348293,22.25457573,25.70298195,-12.13570023, 
222,524141576,-121.5563583,-29.83270264,91.4083786,5.586850643,-9.21833992,-5.647724628,10.68212223,24.79834747,-11.80387878, 
223,524158243,-121.4058075,-30.22194862,91.13713837,5.871773243,-9.443320274,-5.524820805,0.600177526,24.38373375,-12.50225639, 
224,524174910,-121.3953323,-30.62949944,90.90382385,6.209206581,-9.539751053,-5.441629887,-6.757686138,23.21894264,-14.53985786, 
225,524191577,-121.5051727,-31.04281807,90.71377563,6.771262169,-9.615885735,-5.650511742,-12.74667358,21.46365547,-16.0124054, 
226,524208244,-121.6947937,-31.43606567,90.57855225,7.318620205,-10.22765255,-6.269470215,-15.90211487,18.44009018,-16.42056847, 
227,524224911,-121.9533691,-31.78710938,90.5031662,7.818567753,-10.81445694,-6.82689333,-18.20290947,14.54662609,-15.81700039, 
228,524241578,-122.3010559,-32.06238556,90.47236633,8.018385887,-10.55743217,-6.800427914,-22.15195656,10.28122711,-13.10172462, 
229,524258245,-122.7061005,-32.22540665,90.47928619,7.813847065,-10.24262714,-6.349027157,-24.38858414,5.128859043,-8.373118401, 
230,524274912,-123.0353012,-32.2731514,90.53809357,7.501299858,-9.909111023,-6.022871494,-18.18214417,-0.789256275,-3.950059414, 
231,524291579,-123.1924744,-32.23329163,90.6571579,7.201652527,-9.568157196,-5.923683167,-5.944415092,-6.215435982,-1.214068055, 
232,524308246,-123.1312485,-32.10900497,90.82788086,6.939001083,-9.381843567,-6.055957317,8.790380478,-11.19248772,1.586214662, 
233,524324913,-122.9386826,-31.92964935,91.04647827,6.731188774,-9.30850029,-6.127563477,18.16788483,-15.0489521,3.047014713, 
234,524341580,-122.7193604,-31.70425606,91.31922913,6.547743797,-8.938808441,-6.063664436,21.44702339,-18.87143326,3.907138824, 
235,524358247,-122.6068954,-31.4315815,91.62119293,6.332360744,-8.627328873,-5.800794601,15.90218639,-21.67103767,5.527068615, 
236,524374914,-122.651825,-31.10603333,91.93848419,6.091505051,-8.378098488,-5.549813271,6.86383009,-24.07996941,7.765232563, 
237,524391581,-122.8179474,-30.72829056,92.25574493,5.821929455,-8.331553459,-5.385899544,-0.505980134,-25.83450699,10.32758617, 
238,524408248,-123.0430756,-30.31057739,92.56518555,5.535324097,-8.265007019,-5.302835941,-4.396062374,-26.88793564,12.43548393, 
239,524424915,-123.2589874,-29.83569145,92.8737793,5.316364765,-8.221713066,-5.332476616,-3.997939825,-28.8310318,15.1824131, 
240,524441582,-123.4693298,-29.31784248,93.19110107,5.135244846,-8.089396477,-5.403570652,-3.547656059,-30.7439003,16.92633438, 
241,524458249,-123.6943054,-28.75326347,93.5259552,5.006962776,-7.793277264,-5.341099262,-4.071466923,-33.19026184,18.57859421, 
242,524474916,-123.9825516,-28.140728,93.86946106,4.856467724,-7.524176121,-5.26942873,-7.798531532,-35.32779312,20.50950813, 
243,524491583,-124.342308,-27.48144341,94.2141571,4.704278946,-7.427898884,-5.180036545,-12.2520504,-37.15512466,22.5351162, 
244,524508250,-124.7868881,-26.77021217,94.55067444,4.513830662,-7.304192543,-5.100534916,-17.77996445,-38.80941391,25.02631378, 
245,524524917,-125.3161621,-26.00704193,94.87459564,4.289381981,-7.135770321,-4.977846146,-23.42924309,-40.34904861,27.57064819, 
246,524541584,-125.9107513,-25.18963432,95.17937469,4.037508965,-6.870062351,-4.882206917,-28.08750534,-41.76377487,30.3552742, 
247,524558251,-126.5436707,-24.31660843,95.46482086,3.774363995,-6.646898746,-4.775427341,-31.11763191,-43.30070877,33.15571976, 
248,524574918,-127.1977692,-23.39802933,95.72956848,3.543601513,-6.321958542,-4.689054489,-33.13966751,-44.48802185,35.47306442, 
249,524591585,-127.8602142,-22.43967247,95.96859741,3.323925257,-6.09837389,-4.664701462,-34.48146057,-45.30070496,37.65960312, 
250,524608252,-128.5319214,-21.45574188,96.18574524,3.15522337,-5.915296555,-4.608039856,-35.75494003,-45.80196381,39.03564835, 
251,524624919,-129.2241516,-20.46125984,96.3841629,2.921744347,-5.641818047,-4.522623062,-37.59835052,-45.90813446,39.59601593, 
252,524641586,-129.9406738,-19.45037842,96.56983185,2.71987772,-5.507205009,-4.598162174,-39.51278305,-46.52098465,40.20484161, 
253,524658253,-130.695282,-18.43264198,96.74202728,2.558401823,-5.413767815,-4.638976097,-42.24422836,-46.76867676,40.37695694, 
254,524674920,-131.5461884,-17.40611839,96.91793823,2.486543655,-5.221745014,-4.814963818,-48.1276207,-47.87878799,39.94265366, 
255,524691587,-132.4684601,-16.36353111,97.08339691,2.363458395,-5.298735619,-4.930844784,-52.76411438,-48.73231125,40.28624725, 
256,524708254,-133.4048157,-15.30475807,97.22935486,2.230420351,-5.270687103,-4.905357361,-54.0958252,-49.25365829,40.94028091, 
257,524724921,-134.3386688,-14.24064445,97.35919952,2.105441809,-5.118761063,-4.846140385,-54.35033798,-49.49578857,40.98753357, 
258,524741588,-135.2415924,-13.17718792,97.47280121,1.9562639,-5.073596001,-4.878997803,-52.8669014,-49.47660446,40.81006241, 
259,524758255,-136.0936127,-12.11919212,97.58305359,1.872744203,-4.973020077,-4.929328442,-49.98341751,-49.75012207,39.94514084, 
260,524774922,-136.9080658,-11.08184147,97.6936264,1.734242439,-4.91586113,-4.940135479,-47.84650803,-49.46141052,38.34392929, 
261,524791589,-137.6850586,-10.07991982,97.80323792,1.637643337,-5.093081951,-4.993180275,-45.73118591,-48.4127655,36.24291611, 
262,524808256,-138.4024811,-9.131184578,97.91571808,1.561582327,-5.236815929,-5.212884903,-42.25197601,-46.64246368,33.34133148, 
263,524824923,-139.0564117,-8.250109673,98.03099823,1.536083817,-5.424625397,-5.357497692,-38.54043961,-44.11698532,29.97423744, 
264,524841590,-139.6573944,-7.447753429,98.15235138,1.552565455,-5.649673462,-5.545479774,-35.4329834,-41.11503601,26.13657761, 
265,524858257,-140.2164612,-6.730712414,98.2692337,1.615769386,-5.823691845,-5.748998642,-33.07084656,-37.31135941,22.62953758, 
266,524874924,-140.7132416,-6.082924843,98.37043762,1.658932686,-6.035881996,-5.893583775,-29.55015182,-33.74464798,20.36738777, 
267,524891591,-141.1648102,-5.485017776,98.45387268,1.722420812,-6.103933811,-6.155832767,-27.0426445,-30.9475975,19.03495026, 
268,524908258,-141.5995941,-4.942016602,98.51786804,1.814701676,-6.313295364,-6.472033024,-26.22127914,-27.82528305,17.66316986, 
269,524924925,-142.0395203,-4.447698593,98.56088257,1.833495855,-6.368640423,-6.942326069,-26.69752121,-24.92186165,16.64904594, 
270,524941592,-142.4120026,-4.003147602,98.57386017,1.713734508,-6.582222462,-7.165668011,-22.82801819,-21.61376572,16.08436394, 
271,524958259,-142.6581879,-3.607625246,98.55918884,1.436057806,-6.433860779,-7.180217266,-15.39209652,-18.38959694,15.5124445, 
272,524974926,-142.7497864,-3.254217386,98.51174927,1.220308304,-6.484961033,-7.186304569,-6.252121925,-15.2612381,15.50565529, 
273,524991593,-142.7273865,-2.953525543,98.44392395,1.073906422,-6.320323467,-7.235662937,0.51040411,-12.03278351,14.56631279, 
274,525008260,-142.6738586,-2.709151983,98.35696411,0.903484046,-6.043011665,-7.336982727,2.322427511,-8.657548904,13.45027161, 
275,525024927,-142.6605682,-2.511461973,98.25713348,0.74856323,-5.913249969,-7.438913822,-0.11624331,-5.966968536,12.3773632, 
276,525041594,-142.6817474,-2.358351707,98.15260315,0.669896722,-5.972082615,-7.576484203,-2.181601048,-3.677037477,10.98491383, 
277,525058261,-142.7111053,-2.244514942,98.05382538,0.561718822,-6.111269474,-7.660721779,-2.643179893,-2.020240307,9.286545753, 
278,525074928,-142.7154846,-2.164222956,97.97146606,0.579612076,-6.010305405,-7.816295624,-1.099784017,-1.022984385,7.284746647, 
279,525091595,-142.7054138,-2.120270729,97.88013458,0.631003678,-6.172300816,-7.810118198,-0.24469094,1.034657121,6.393295288, 
280,525108262,-142.6842957,-2.109324694,97.7793808,0.624103546,-6.111604214,-7.665580273,0.398117483,2.948464155,5.64640379, 
281,525124929,-142.7225189,-2.133884192,97.66680145,0.673261464,-5.9759655,-7.510997295,-3.1914711,5.064623833,4.92143631, 
282,525141596,-142.822525,-2.183255434,97.54250336,0.746964991,-6.027447701,-7.397292614,-6.932220936,6.662243366,4.591020584, 
283,525158263,-142.9748688,-2.257864714,97.41886902,0.845663726,-6.140321732,-7.420890331,-10.08699226,7.825536728,3.664481401, 
284,525174930,-143.1359253,-2.368391991,97.30301666,0.890293062,-6.232477188,-7.533085346,-10.61147785,9.243637085,2.021835804, 
285,525191597,-143.2623596,-2.521910667,97.20251465,0.932077527,-6.236624718,-7.613098621,-8.522771835,10.74023819,-0.230271131, 
286,525208264,-143.3338165,-2.711109638,97.12885284,0.983793139,-6.237438202,-7.590328217,-5.178276062,11.47938251,-2.777212381, 
287,525224931,-143.3477631,-2.931178808,97.08522034,1.064187169,-6.313573837,-7.62548542,-1.664518833,11.87820816,-5.311038494, 
288,525241598,-143.3216705,-3.184078217,97.06700134,1.138919115,-6.211731911,-7.570257187,0.796203315,12.52979851,-7.704304695, 
289,525258265,-143.2814789,-3.472118616,97.0655365,1.175891757,-6.061157227,-7.455844879,1.685208321,13.59710979,-9.769806862, 
290,525274932,-143.2298889,-3.790510893,97.07876587,1.211936116,-6.069348812,-7.454678535,2.419628143,14.50487804,-11.56772041, 
291,525291599,-143.1431885,-4.140821934,97.10214233,1.291307211,-6.120820522,-7.526599407,4.564541817,15.64016819,-13.21266365, 
292,525308266,-143.0148926,-4.515276432,97.13265228,1.344178915,-6.185709476,-7.615424633,7.094865322,16.49871445,-14.447896, 
293,525324933,-142.8864746,-4.917204857,97.16822052,1.398820043,-6.131250858,-7.554867744,7.134887218,17.58232689,-15.71198845, 
294,525341600,-142.7573547,-5.327683449,97.21188354,1.458009124,-6.118839741,-7.630776882,7.232243061,17.64626122,-16.44077873, 
295,525358267,-142.6588745,-5.743825912,97.25678253,1.551864147,-6.101034641,-8.066679955,5.418436527,17.82274628,-16.73477364, 
296,525374934,-142.5592651,-6.161747456,97.29845428,1.518770218,-5.829463005,-8.349046707,5.495837688,17.98087883,-16.66974068, 
297,525391601,-142.4592285,-6.575621605,97.34063721,1.476209998,-5.723679543,-8.438755035,5.564800262,17.73138428,-16.57263184, 
298,525408268,-142.3381195,-6.994949341,97.38490295,1.496728659,-5.868993282,-8.471179962,6.889543533,17.87895584,-16.89970779, 
299,525424935,-142.1647339,-7.435482502,97.42897797,1.520257354,-5.908071518,-8.494210243,10.06979465,18.8453064,-17.71313858, 
300,525441602,-141.9478912,-7.888895035,97.46443176,1.536664009,-5.871156693,-8.565765381,12.65207577,19.70899773,-17.84677315, 
301,525458269,-141.72612,-8.351884842,97.48155212,1.496221304,-5.80610323,-8.680182457,12.83597946,20.76675987,-17.41891861, 
302,525474936,-141.5228882,-8.810577393,97.47651672,1.375270367,-5.702401161,-8.784800529,11.56597996,21.32107735,-16.30646133, 
303,525491603,-141.3411102,-9.257265091,97.43830872,1.238746762,-5.657056808,-8.914485931,10.00065327,21.94083786,-14.39744949, 
304,525508270,-141.1784668,-9.685283661,97.3624115,1.127282143,-5.632516384,-9.084657669,8.501600266,22.43831635,-12.03300571, 
305,525524937,-141.0381165,-10.08901215,97.24886322,1.016891837,-5.580195904,-9.150389671,6.787195206,22.69178391,-9.462121964, 
306,525541604,-140.9192505,-10.45078754,97.10735321,0.904043436,-5.416793823,-9.165623665,5.199957371,21.78256035,-6.664552212, 
307,525558271,-140.8244781,-10.77116108,96.9425354,0.871272802,-5.439049244,-9.114525795,3.495786667,20.74339294,-4.092775345, 
308,525574938,-140.733078,-11.0404644,96.76639557,0.889705479,-5.46573782,-9.01458168,3.162192822,18.8198452,-1.696062446, 
309,525591605,-140.6544647,-11.254076,96.57801056,0.925069749,-5.632261753,-8.781977654,2.250160933,16.7227459,0.928275645, 
310,525608272,-140.5865326,-11.41676426,96.36302185,1.022283077,-5.763513565,-8.527968407,1.29700911,15.39133072,4.03413868, 
311,525624939,-140.5458221,-11.52957726,96.11347961,1.084851265,-5.844388485,-8.251400948,-0.754064083,14.40401173,7.469610214, 
312,525641606,-140.5288239,-11.59374714,95.82427979,1.134707212,-5.948505878,-7.981049538,-2.656987429,13.66439533,11.09734631, 
313,525658273,-140.5511475,-11.58702564,95.525177,1.057082057,-5.829503059,-8.040546417,-5.133661747,10.77698421,14.23708344, 
314,525674940,-140.6735992,-11.50751019,95.25471497,1.161690235,-5.671985149,-8.643911362,-10.76912975,6.346637249,15.70905304, 
315,525691607,-140.6264648,-11.36898232,94.97156525,1.330644727,-5.827755928,-8.702037811,-0.685307026,4.108032703,18.52796173, 
316,525708274,-140.5059204,-11.18277931,94.65617371,1.436928272,-5.626967907,-8.23661232,3.415901184,3.160503387,21.80216026, 
317,525724941,-140.4044342,-10.9614954,94.33088684,1.50238812,-5.706701756,-7.829775333,2.247666359,1.976030111,23.58954239, 
318,525741608,-140.3191223,-10.70385838,94.01329041,1.643384695,-5.61999321,-7.685160637,1.459164858,0.06594643,24.63555527, 
319,525758275,-140.2823181,-10.44204617,93.71021271,1.925476193,-5.830119133,-7.70782423,-1.19407928,-0.632250845,24.14863014, 
320,525774942,-140.3013153,-10.22715759,93.42189789,2.257660627,-6.634466171,-8.024986267,-4.295423985,0.985251904,21.69147873, 
321,525791609,-140.3035126,-10.07466507,93.16092682,2.670306444,-7.423037052,-8.518850327,-2.94612956,2.824430704,18.07204628, 
322,525808276,-140.2202606,-9.952865601,92.91423035,2.807590008,-7.652102947,-8.215812683,2.356895208,3.698348522,16.25739098, 
323,525824943,-140.0098267,-9.82914257,92.65563965,2.453521729,-7.098444939,-7.081588745,9.876847267,4.078495026,16.87763977, 
324,525841610,-139.7238617,-9.70567131,92.36182404,1.970557809,-6.415079117,-6.173594952,14.05440807,5.484086514,18.45393562, 
325,525858277,-139.3814392,-9.638162613,92.05812073,1.682905674,-5.95412159,-5.943914413,17.34297371,8.504794121,16.69819832, 
326,525874944,-139.0440369,-9.642067909,91.77789307,1.806138039,-6.23943615,-6.51793766,17.26508522,10.92899132,12.80047607, 
327,525891611,-138.6973724,-9.712465286,91.53108978,2.077531338,-7.30180788,-7.457373142,18.13167,12.69892311,8.621860504, 
328,525908278,-138.3058167,-9.838451385,91.31477356,2.427569628,-7.683279514,-8.095520973,21.09411812,14.04206753,4.979543209, 
329,525924945,-137.9484406,-9.97360611,91.10575867,2.554735661,-7.470780849,-7.773720741,19.07672119,14.17537689,4.201182365, 
330,525941612,-137.6642303,-10.08078194,90.89914703,2.483169556,-7.178253651,-7.039135456,14.67657757,12.83754539,5.149319172, 
331,525958279,-137.3972321,-10.16036606,90.69343567,2.34129715,-6.951555252,-6.506412029,13.61666298,11.58041286,6.172821999, 
332,525974946,-137.1400299,-10.24592113,90.49234009,2.19681716,-6.817069054,-6.440736771,13.03822899,11.66395283,5.680755615, 
333,525991613,-136.9245148,-10.36819744,90.30332947,2.126137018,-6.850191116,-6.668673992,10.6306181,12.79605865,3.612015486, 
334,526008280,-136.7687073,-10.52309227,90.14246368,2.137551308,-7.131450653,-6.956185818,7.313935757,13.08303356,1.019559145, 
335,526024947,-136.6581879,-10.69429493,90.03298187,2.205267429,-7.395985126,-7.10458374,5.123625278,11.70764256,-1.890871763, 
336,526041614,-136.5641327,-10.86763382,89.99253845,2.2447052,-7.359906673,-6.993908882,4.879394054,8.992257118,-4.95617485, 
337,526058281,-136.464798,-11.0294075,90.03047943,2.26198554,-7.243091583,-6.742042065,6.070231438,5.292181492,-7.842867374, 
338,526074948,-136.3311615,-11.18574333,90.14830017,2.206634521,-7.039728642,-6.493855953,9.039938927,1.787774205,-11.0318327, 
339,526091615,-136.1804047,-11.35014439,90.34449005,2.210924625,-6.7708354,-6.30934,10.99159336,-1.087900639,-14.69829941, 
340,526108282,-136.0471191,-11.52800751,90.61228943,2.265869141,-6.726299286,-6.236640453,10.81948662,-3.464372635,-18.2815094, 
341,526124949,-135.9277039,-11.73233318,90.94651794,2.32167244,-7.019293308,-6.220473766,10.83165264,-5.080085754,-22.17346191, 
342,526141616,-135.7861023,-11.96557426,91.33332825,2.428519726,-7.370234966,-6.260303497,12.87113094,-6.037520409,-25.57125473, 
343,526158283,-135.6218109,-12.20991421,91.76456451,2.562595367,-7.589624405,-6.561269283,14.86511421,-7.449269295,-27.869133, 
344,526174950,-135.4647369,-12.45042706,92.23429108,2.58921051,-7.621766567,-6.884429932,15.01278019,-9.267001152,-29.27666092, 
345,526191617,-135.3520508,-12.67659569,92.75349426,2.6031394,-7.602863312,-7.08732748,13.09835339,-11.97768402,-30.69505119, 
346,526208284,-135.2949219,-12.88545704,93.32909393,2.556500435,-7.616707802,-7.18394804,10.62302876,-15.07284069,-32.27434921, 
347,526224951,-135.2905884,-13.09183502,93.97374725,2.61866045,-7.945181847,-7.318996906,8.503418922,-18.01417923,-35.0032692, 
348,526241618,-135.2731171,-13.31846619,94.6912384,2.748180628,-8.549413681,-7.499761105,10.43851185,-20.17208099,-38.8889122, 
349,526258285,-135.201828,-13.57709503,95.4697113,2.973478556,-9.154178619,-7.688209057,14.66075516,-21.26126289,-42.6727562, 
350,526274952,-134.9763489,-13.85546207,96.25566101,2.960012913,-9.625151634,-7.490875721,24.21315384,-20.82395172,-43.73736191, 
351,526291619,-134.523407,-14.1119976,96.98841095,2.670996189,-9.060367584,-7.016801834,37.27898026,-19.79784203,-40.48794174, 
352,526308286,-133.9444427,-14.3198328,97.61663818,2.189487457,-7.687720776,-6.532321453,43.43834686,-17.80475044,-33.93809891, 
353,526324953,-133.3990021,-14.46569061,98.12427521,1.757006049,-6.555362225,-6.356463909,39.72700119,-15.61243439,-26.22076988, 
354,526341620,-132.9679413,-14.56702614,98.49925995,1.472978115,-6.013001442,-6.48428154,30.93964386,-12.01973152,-18.86225128, 
355,526358287,-132.6906128,-14.64164639,98.7390976,1.326128244,-5.81955862,-6.818967819,19.72241402,-7.444935322,-12.28425884, 
356,526374954,-132.5813141,-14.69762802,98.86147308,1.362385154,-5.976770878,-7.27572155,7.899043083,-3.196018219,-6.827311039, 
357,526391621,-132.6217651,-14.74863052,98.89975739,1.523797989,-6.33360672,-7.680666447,-2.329987764,0.22023724,-3.317511082, 
358,526408288,-132.7625122,-14.79846382,98.90002441,1.667136788,-6.812246799,-7.819749355,-8.893255234,1.832339168,-1.782221556, 
359,526424955,-132.9208679,-14.85660458,98.90338898,1.85634613,-7.46062851,-7.694126606,-9.875555992,2.074200392,-2.27924943, 
360,526441622,-133.0642853,-14.90895462,98.93018341,2.040632486,-7.986361027,-7.407652855,-8.605498314,0.87439853,-2.95958662, 
361,526458289,-133.1996155,-14.9430418,98.97924042,2.235039711,-8.309168816,-6.919110775,-7.777886391,-0.785592794,-3.050370455, 
362,526474956,-133.3565826,-14.94099998,99.03120422,2.374950171,-8.177482605,-6.443758488,-9.047175407,-2.375206947,-1.602125883, 
363,526491623,-133.5511017,-14.90263462,99.0558548,2.496343136,-7.869127274,-6.159364223,-11.74470806,-2.711656094,1.055339694, 
364,526508290,-133.7597961,-14.8415947,99.04613495,2.586081982,-7.308571815,-6.028153419,-13.15079689,-2.208366394,3.402258396, 
365,526524957,-133.9758911,-14.77517796,99.00499725,2.670291185,-6.913400173,-6.171134472,-14.08921146,-1.134630561,4.888859749, 
366,526541624,-134.1660614,-14.71452045,98.94041443,2.717823744,-6.899492264,-6.410768986,-12.89409351,0.065037079,5.587203026, 
367,526558291,-134.2926331,-14.66474628,98.86160278,2.718921185,-6.985644817,-6.58464098,-9.29485321,1.092363,5.69866848, 
368,526574958,-134.3221893,-14.62646103,98.77389526,2.698260307,-7.112053394,-6.602228642,-3.605180025,1.933022976,5.570077896, 
369,526591625,-134.2784882,-14.59984398,98.68113708,2.655537128,-7.074557781,-6.50381422,0.712897539,2.629419327,5.275352001, 
370,526608292,-134.2123718,-14.579319,98.58404541,2.582526684,-7.076990128,-6.543588638,1.989806414,3.067153692,5.187603951, 
371,526624959,-134.1512451,-14.55873585,98.48226166,2.561903238,-7.072023869,-6.740701199,1.618063211,3.265856266,5.378430367, 
372,526641626,-134.1025543,-14.53673935,98.3794632,2.551299334,-7.015013695,-6.915795326,0.857212365,3.253139973,5.476387024, 
373,526658293,-134.0610657,-14.51015091,98.27131653,2.524353504,-6.952373505,-6.983705997,0.352065802,3.292186737,5.888520241, 
374,526674960,-134.0354767,-14.48207092,98.15892029,2.515925407,-6.825368881,-7.018659592,-0.655569971,3.412822723,6.122787952, 
375,526691627,-134.0478668,-14.45505714,98.04548645,2.516823769,-6.707057953,-7.048864365,-2.937841415,3.505015373,6.119700909, 
376,526708294,-134.1169739,-14.43377781,97.92384338,2.553019762,-6.670723438,-7.075472832,-6.451341152,4.084759235,6.206771374, 
377,526724961,-134.2508392,-14.42161369,97.7912674,2.606989861,-6.766369343,-7.12646389,-10.4831419,4.911897182,6.26598978, 
378,526741628,-134.4468689,-14.42296886,97.65034485,2.645514488,-6.844400406,-7.09152317,-14.32680988,5.808984756,6.040472507, 
379,526758295,-134.6687927,-14.43420506,97.50404358,2.660152435,-6.972947598,-7.055387974,-15.95312977,6.427584171,5.860980034, 
380,526774962,-134.8647156,-14.44680786,97.36213684,2.687979698,-6.929214954,-7.062580109,-14.32478523,6.280539513,5.645920753, 
381,526791629,-135.0409698,-14.45944881,97.22595215,2.685829401,-6.893548012,-7.112856865,-13.05595589,6.029265881,5.431695461, 
382,526808296,-135.2060699,-14.47498989,97.09792328,2.668326616,-6.933918476,-7.111936092,-12.26073265,5.800941944,4.993334293, 
383,526824963,-135.3743591,-14.49250412,96.97711182,2.644174576,-6.791029453,-7.114444733,-12.34313965,5.573077202,4.627558231, 
384,526841630,-135.5727234,-14.50898838,96.86191559,2.655626535,-6.761432648,-7.129841328,-14.05916882,5.288367271,4.4583745, 
385,526858297,-135.7964325,-14.52179813,96.75534821,2.648248196,-6.838251114,-7.135821342,-15.44556141,4.762667179,4.274014473, 
386,526874964,-136.0284119,-14.53247547,96.66362762,2.660933018,-6.854090214,-7.095722675,-15.71515942,4.052080154,3.761683226, 
387,526891631,-136.2360535,-14.54274845,96.58638,2.680397034,-6.896539211,-7.076462269,-14.03690338,3.437393427,3.188975334, 
388,526908298,-136.3844299,-14.5520668,96.5173111,2.723917246,-6.874746323,-7.171158314,-10.3607626,3.06221056,2.900901556, 
389,526924965,-136.459259,-14.56170368,96.44373322,2.737835884,-6.865389347,-7.2328825,-6.011481762,3.237093925,3.07365942, 
390,526941632,-136.4737549,-14.5650816,96.366745,2.71827364,-6.826435089,-7.093327045,-2.44400239,3.104598761,3.486176729, 
391,526958299,-136.4996796,-14.56295872,96.30738831,2.682000875,-6.699708462,-7.152815342,-2.86507535,2.157441139,2.974422455, 
392,526974966,-136.5294495,-14.56220627,96.26299286,2.682362795,-6.765398979,-7.210879326,-2.865920782,1.613658071,2.287848234, 
393,526991633,-136.5543823,-14.56066227,96.23188782,2.654937029,-6.845841408,-7.211645126,-2.371531248,1.042571545,1.757934093, 
394,527008300,-136.5699158,-14.55570698,96.20279694,2.600104094,-6.906900406,-7.214526176,-1.777431726,0.818357706,1.821389437, 
395,527024967,-136.6040039,-14.54767799,96.17215729,2.549971104,-6.869765282,-7.144828796,-2.915096521,0.747641146,2.013408184, 
396,527041634,-136.6732941,-14.53816414,96.14012146,2.523060322,-6.789406776,-7.174271584,-5.048224926,0.737447321,2.132981062, 
397,527058301,-136.8187103,-14.53606892,96.10019684,2.529942036,-6.697637081,-7.216788292,-9.731726646,1.365022659,2.15590477, 
398,527074968,-137.0396118,-14.53316879,96.05164337,2.507976532,-6.632371426,-7.276739597,-14.39065933,1.676653266,2.56561923, 
399,527091635,-137.3030701,-14.52776623,95.99978638,2.490839005,-6.588411331,-7.236709595,-16.98851204,1.684888363,2.812053204, 
400,527108302,-137.5778503,-14.51942825,95.95376587,2.47191453,-6.669304371,-7.207756042,-17.57592773,1.315181613,2.687204361, 
401,527124969,-137.8315125,-14.51613998,95.90423584,2.472836256,-6.860974789,-7.296929836,-16.36430168,1.670634627,2.641036749, 
402,527141636,-138.0613861,-14.51302052,95.85639191,2.481886864,-6.762217522,-7.243390083,-14.91409397,1.607998371,2.570434809, 
403,527158303,-138.3226471,-14.50755119,95.79607391,2.479018211,-6.68308115,-7.24916172,-16.98769188,1.978115439,3.209293604, 
404,527174970,-138.6112671,-14.49810791,95.72071075,2.47848177,-6.683912277,-7.252898216,-18.85786247,2.368505478,4.031283855, 
405,527191637,-138.9356079,-14.49134445,95.63239288,2.441283464,-6.568788052,-7.194159508,-21.19911385,2.967998028,4.503405094, 
406,527208304,-139.2398071,-14.4743576,95.56348419,2.378304482,-6.523837566,-7.21766758,-19.7001133,1.744848251,4.068525791, 
407,527224971,-139.5552521,-14.46078777,95.50218201,2.409018755,-6.53864193,-7.238430023,-20.26591301,1.596051574,3.607753038, 
408,527241638,-139.8683624,-14.45145988,95.45768738,2.321361542,-6.400218964,-7.297365189,-19.87637901,1.14531827,2.7073493, 
409,527258305,-140.2206268,-14.42621994,95.4276123,2.347737312,-6.111872673,-7.443880081,-22.01381493,-0.13351284,2.684177399, 
410,527274972,-140.6073151,-14.41268635,95.39304352,2.41713357,-6.232965469,-7.500288486,-24.14238548,0.561111331,2.43527317, 
411,527291639,-141.0468597,-14.41229057,95.35097504,2.484674215,-6.1278162,-7.566209793,-27.42579079,1.436370373,2.280093193, 
412,527308306,-141.4319305,-14.41230011,95.30766296,2.440678835,-6.350085735,-7.584716797,-24.17445564,1.486647487,2.332162857, 
413,527324973,-141.6688843,-14.400177,95.29264069,2.445895433,-6.240414143,-7.547902107,-14.86815739,-0.114053436,1.50343442, 
414,527341640,-141.7638397,-14.34827614,95.31957245,2.449771881,-5.933765411,-7.695188999,-5.72693634,-3.498477697,1.06890142, 
415,527358307,-141.8171387,-14.30913448,95.34783173,2.687904596,-6.109755993,-7.952709198,-3.20412302,-2.943462849,0.530010045, 
416,527374974,-141.8238068,-14.28151989,95.37612915,2.731668234,-6.048246384,-8.124800682,-0.404744685,-2.404661179,0.100190483, 
417,527391641,-141.8848419,-14.24279022,95.4151535,2.658980846,-5.821119785,-8.096940994,-3.500564337,-3.318329811,0.019267149, 
418,527408308,-141.9815521,-14.20606041,95.47127533,2.699318409,-5.884895325,-8.130665779,-5.380869865,-3.837025642,-0.839763641, 
419,527424975,-142.0568085,-14.17307472,95.52957916,2.704673529,-6.055236816,-8.125852585,-4.055950642,-3.740325689,-1.084108829, 
420,527441642,-142.0658112,-14.14511585,95.5802536,2.69182682,-5.968341827,-8.089371681,-0.185896963,-3.230542421,-0.920699716, 
421,527458309,-142.053772,-14.12598133,95.62503815,2.703547001,-6.010104656,-8.116451263,0.992607415,-2.604927063,-0.974947512, 
422,527474976,-142.0364075,-14.1091547,95.66135406,2.648509979,-6.161494732,-7.996494293,1.193775892,-2.196301699,-0.671436906, 
423,527491643,-142.0272827,-14.09285164,95.68234253,2.625852823,-6.104877949,-7.951770782,0.478771776,-1.624651909,0.01474651, 
424,527508310,-142.0377808,-14.07317829,95.68115997,2.579898119,-6.038837433,-7.920935631,-1.022958398,-0.991109014,1.157316208, 
425,527524977,-142.0598297,-14.05956745,95.66044617,2.462933302,-6.039816856,-7.83815527,-1.995587945,-0.007274007,1.829444647, 
426,527541644,-142.0771637,-14.05096245,95.63084412,2.415030956,-5.980494499,-7.812552452,-1.840989828,0.547605872,2.052083254, 
427,527558311,-142.0927582,-14.0470171,95.59700775,2.362430811,-6.028911114,-7.882200241,-1.796525836,0.921769142,2.075108767, 
428,527574978,-142.0981903,-14.03925896,95.56420898,2.369859219,-6.02501297,-7.947404861,-1.170615554,0.705725908,2.167212009, 
429,527591645,-142.0976257,-14.03464127,95.53845978,2.366354942,-6.043263435,-7.952866077,-0.703580737,0.606348515,1.727044821, 
430,527608312,-142.1016541,-14.03343391,95.52598572,2.359467506,-6.004378319,-7.901253223,-0.784946024,0.295493692,0.990148604, 
431,527624979,-142.0935974,-14.03221035,95.52371216,2.408993959,-6.12690115,-7.850129128,0.090950698,-0.066317685,0.522204518, 
432,527641646,-142.0796967,-14.03059864,95.52601624,2.437228203,-6.207437515,-7.768516541,0.507240295,-0.246573493,0.326978117, 
433,527658313,-142.0731506,-14.02920532,95.52624512,2.459236145,-6.211510658,-7.782535076,0.034020063,-0.160309881,0.412588537, 
434,527674980,-142.0813599,-14.02646351,95.52488708,2.465060234,-6.19949007,-7.784304142,-0.876709938,-0.167545483,0.53470993, 
435,527691647,-142.1095276,-14.02073383,95.52690125,2.420134306,-6.060233116,-7.80524683,-2.025682688,-0.429320097,0.489298642, 
436,527708314,-142.1489105,-14.01510525,95.52892303,2.465335131,-6.114065647,-7.837955952,-2.699604034,-0.422404617,0.485277414, 
437,527724981,-142.180191,-14.01501751,95.52991486,2.443852186,-6.150383949,-7.808571815,-2.227062702,-0.123568475,0.32886067, 
438,527741648,-142.1884613,-14.01503181,95.53179932,2.436173916,-6.108664989,-7.859128475,-0.834564149,-0.147695631,0.284384191, 
439,527758315,-142.1842957,-14.01603317,95.53443909,2.404949427,-6.052112103,-7.858139515,-0.078336447,-0.12801227,0.212438151, 
440,527774982,-142.1771698,-14.01946735,95.53960419,2.374712467,-6.004970551,-7.852417946,0.137674674,-0.100721948,0.006204677, 
441,527791649,-142.1728973,-14.02613258,95.54612732,2.355862379,-6.046318531,-7.899147987,-0.014240661,0.005756454,-0.175152436, 
442,527808316,-142.157486,-14.03799725,95.56064606,2.337835073,-6.114199162,-7.878312111,0.773509979,-0.029902829,-0.734841108, 
443,527824983,-142.1383667,-14.04764366,95.58084869,2.3174932,-6.106893539,-7.861428738,1.077775955,-0.336525261,-0.915846109, 
444,527841650,-142.1291962,-14.05601597,95.60527039,2.324008226,-6.108501434,-7.818564415,0.542957246,-0.543911278,-1.063938737, 
445,527858317,-142.1462402,-14.06143761,95.63641357,2.352836609,-6.144678593,-7.84440136,-0.932968199,-0.91941911,-1.262872696, 
446,527874984,-142.1812286,-14.06100559,95.67534637,2.338206291,-6.238341331,-7.850262165,-1.897132635,-1.471193671,-1.407238722, 
447,527891651,-142.2227936,-14.05803967,95.72460938,2.302148819,-6.21944809,-7.815657139,-2.141477823,-1.957091928,-1.791428924, 
448,527908318,-142.2675629,-14.04905415,95.78142548,2.29514575,-6.170451164,-7.831268787,-2.226883888,-2.505857229,-1.920683742, 
449,527924985,-142.3178711,-14.03403091,95.84657288,2.293467283,-6.16792202,-7.896996021,-2.442235231,-3.083986998,-2.08597517, 
450,527941652,-142.3962097,-14.0210886,95.9285202,2.290721416,-6.049539089,-7.897567272,-3.882373571,-3.569309711,-2.933947802, 
451,527958319,-142.499527,-14.00739098,96.01766205,2.336495399,-6.031599998,-7.893463135,-5.275140762,-3.856415033,-3.250636101, 
452,527974986,-142.592392,-13.99189091,96.10562134,2.350069523,-6.046774864,-7.862818241,-4.668491364,-3.890441656,-3.136057377, 
453,527991653,-142.6841736,-13.9736681,96.19047546,2.361679316,-6.045731068,-7.898071766,-4.649512291,-3.902722359,-2.900049448, 
454,528008320,-142.7897034,-13.95365906,96.27198792,2.372920036,-6.024791241,-7.937931061,-5.524634361,-3.864136934,-2.688411474, 
455,528024987,-142.910965,-13.93157101,96.34438324,2.38738656,-6.046809673,-8.028346062,-6.600848198,-3.634999752,-2.197729826, 
456,528041654,-143.0073395,-13.90778255,96.40704346,2.397034168,-6.157834053,-8.092418671,-5.2511549,-3.365727186,-1.68856883, 
457,528058321,-143.0534668,-13.88012314,96.45877075,2.384166479,-6.117264271,-8.175540924,-2.39544034,-3.167842627,-1.049032092, 
458,528074988,-143.0471954,-13.84876919,96.50485992,2.378209829,-6.030930996,-8.086688042,0.665193796,-3.143126488,-0.652726889, 
459,528091655,-143.0300293,-13.81176662,96.55045319,2.363950729,-5.950043678,-8.006851196,1.312503576,-3.393055439,-0.424697012, 
460,528108322,-143.009552,-13.77014637,96.59603882,2.320752144,-5.933607101,-7.943702221,1.509542346,-3.614708185,-0.257843077, 
461,528124989,-142.9910736,-13.72319984,96.63806915,2.300662994,-6.082698822,-7.907494068,1.337424994,-3.743604183,0.100587495, 
462,528141656,-142.9520874,-13.67242908,96.67390442,2.281427383,-6.085302353,-7.8842206,2.475678682,-3.708654881,0.526782811, 
463,528158323,-142.8938904,-13.62241077,96.70175934,2.248794794,-6.168408394,-7.900225163,3.511187553,-3.388893366,0.874577701, 
464,528174990,-142.8205109,-13.57201958,96.72963715,2.196805954,-6.154356956,-7.886679649,4.418837547,-3.404184103,0.889663577, 
465,528191657,-142.7594452,-13.51992416,96.76335907,2.224131107,-6.074602127,-7.834338188,3.759592295,-3.688677311,0.681931853, 
466,528208324,-142.6865387,-13.46668816,96.80234528,2.236794233,-6.055949688,-7.809184074,4.537079334,-3.922380447,0.486135513, 
467,528224991,-142.611908,-13.41489697,96.83879852,2.210368395,-6.072023392,-7.842551231,4.602993011,-3.764388323,0.553714633, 
468,528241658,-142.5355377,-13.36333179,96.87708282,2.211436272,-6.130078316,-7.892528534,4.727867126,-3.811938047,0.467771113, 
469,528258325,-142.4417877,-13.31652164,96.91942596,2.187582731,-6.20135355,-7.850138664,5.825424671,-3.732244968,0.106440008, 
470,528274992,-142.3609161,-13.27752781,96.96913147,2.19988656,-5.986412048,-7.877183437,5.149632931,-3.618268967,-0.512087643, 
471,528291659,-142.2889557,-13.23427677,97.0166626,2.177879095,-6.036018848,-7.815418243,4.582746029,-3.741874695,-0.251888096, 
472,528308326,-142.2384796,-13.19469738,97.07012939,2.213894367,-6.099419594,-7.81819725,3.374685049,-3.780678272,-0.65868187, 
473,528324993,-142.1980133,-13.14645958,97.12071228,2.195321321,-6.188756943,-7.905894279,2.731459856,-4.086083412,-0.204619855, 
474,528341660,-142.1678009,-13.09529495,97.17539978,2.192593098,-6.241244793,-7.914747238,2.166968584,-4.367848873,-0.280446231, 
475,528358327,-142.1561432,-13.03513527,97.23485565,2.200095654,-5.938287735,-7.879151344,1.11438942,-4.963472843,-0.170567796, 
476,528374994,-142.2214508,-12.97294617,97.29405212,2.180948734,-6.005898952,-8.09534359,-3.506775856,-5.053744316,-0.091091566, 
477,528391661,-142.2914581,-12.90797901,97.33328247,1.998270392,-6.255434513,-7.775092125,-4.057346821,-4.465228558,0.930874407, 
478,528408328,-142.4846039,-12.84644508,97.3815918,2.047228336,-5.96603775,-7.772937298,-11.33099937,-4.625680923,0.371403515, 
479,528424995,-142.6628571,-12.76611328,97.43386078,2.076973677,-6.248273849,-8.067984581,-10.3881321,-5.65732336,0.859197676, 
480,528441662,-142.6351624,-12.65468502,97.4681778,2.118218422,-6.596213341,-8.114465714,1.724407077,-6.498530865,2.818876266, 
481,528458329,-142.5082855,-12.53465176,97.51483154,2.216098785,-6.401240349,-8.039606094,7.823023796,-7.331380844,2.578565836, 
482,528474996,-142.4549561,-12.41355801,97.57776642,2.077070236,-6.277554989,-8.050093651,3.616571903,-7.970071793,1.860026836, 
483,528491663,-142.4510803,-12.31807327,97.64575958,2.271849871,-6.450576782,-8.038290024,0.705931008,-6.928160667,0.693483174, 
484,528508330,-142.4834137,-12.26773453,97.69794464,2.011093616,-6.039968967,-8.206074715,-1.674417853,-4.220563412,-0.229156852, 
485,528524997,-142.5897217,-12.22277451,97.76461029,1.940389752,-5.671175003,-8.329417229,-5.928880215,-4.474770546,-1.101807356, 
486,528541664,-142.7896576,-12.15843678,97.84450531,1.894141674,-5.739044666,-8.205723763,-11.37586117,-5.859740734,-1.023215055, 
487,528558331,-143.2115631,-12.06307888,97.9648056,1.794097185,-5.433851719,-8.267432213,-24.18310547,-8.765684128,-1.834795475, 
488,528574998,-144.136261,-11.94965839,98.15057373,1.777910113,-4.646176338,-8.428570747,-53.53489685,-11.89369011,-4.401704311, 
489,528591665,-145.3751221,-11.81564331,98.40546417,1.580732346,-4.988229275,-8.632256508,-71.53818512,-15.14501095,-7.223071098, 
490,528608332,-146.672821,-11.65263557,98.71150208,1.509001732,-5.008139133,-9.093081474,-74.46797943,-18.09283066,-9.084283829, 
491,528624999,-147.9184875,-11.46398449,99.04846191,1.46483326,-5.002635479,-9.38811779,-71.01889038,-20.1526432,-10.19206715, 
492,528641666,-149.0850677,-11.22205734,99.39729309,1.400273204,-5.118247032,-9.692542076,-66.19701385,-23.01467133,-9.555510521, 
493,528658333,-150.3110352,-10.95908451,99.78057861,1.434638262,-4.593019009,-9.589107513,-69.44417572,-24.91233444,-11.16347599, 
494,528675000,-151.6923218,-10.64816093,100.2019882,1.425619125,-4.288274765,-9.412433624,-78.43666077,-28.24979401,-12.31637955, 
495,528691667,-153.3071747,-10.29227734,100.6572113,1.284055114,-3.601420641,-9.365920067,-92.21627808,-31.22705078,-13.59823132, 
496,528708334,-155.1339722,-9.868909836,101.1365967,1.255861402,-3.639036179,-9.606383324,-104.8457718,-35.06957245,-14.08763885, 
497,528725001,-157.0696564,-9.381238937,101.6256256,1.213983297,-3.651882172,-9.84636879,-111.4967728,-38.34225845,-14.22475815, 
498,528741668,-158.9719391,-8.855156898,102.0999527,1.303508043,-4.054171085,-10.22548199,-109.8811111,-39.65154266,-13.87023544, 
499,528758335,-160.6967926,-8.333929062,102.5746765,1.266444087,-4.231553555,-10.30918217,-99.48936462,-38.9214325,-15.27455235, 
500,528775002,-162.2196655,-7.819624901,103.0414886,1.355592608,-3.790148497,-10.1372366,-87.70302582,-37.92676544,-16.09263039, 
501,528791669,-163.5608063,-7.31394577,103.5052643,1.284753561,-3.648521423,-9.821818352,-77.07751465,-36.96199799,-17.04177475, 
502,528808336,-164.7208252,-6.790895462,103.9663162,1.252726197,-3.535097361,-9.810933113,-66.48867798,-37.5392189,-17.43249512, 
503,528825003,-165.7503052,-6.24984169,104.4324951,1.254088402,-3.479952335,-9.934586525,-58.88778687,-38.32254791,-18.19316483, 
504,528841670,-166.6826172,-5.702600002,104.9009933,1.28532517,-3.244603157,-10.08286476,-53.3220253,-38.39994431,-18.91493034, 
505,528858337,-167.476944,-5.156625748,105.367897,1.256547213,-3.261493683,-10.13648129,-45.33065033,-38.01921463,-19.43657684, 
506,528875004,-168.0812683,-4.624256134,105.8245392,1.225608349,-3.071213961,-10.02995014,-34.26003647,-36.85678482,-19.4956398, 
507,528891671,-168.5332642,-4.117937565,106.2622681,1.141585231,-2.881203413,-9.705416679,-25.46696091,-34.92192078,-19.05877876, 
508,528908338,-168.8860626,-3.642926216,106.6733093,1.076999187,-2.636815071,-9.600990295,-19.85985184,-32.63931274,-18.11751175, 
509,528925005,-169.2097931,-3.210672617,107.0593338,1.031721711,-2.359619856,-9.634372711,-18.41038132,-29.73596573,-17.33862305, 
510,528941672,-169.5042114,-2.814818621,107.4174728,1.031733394,-2.326796055,-9.770905495,-16.91344833,-27.1940136,-16.26502228, 
511,528958339,-169.7605743,-2.467699766,107.7500992,1.007746458,-2.219109297,-9.917503357,-14.84459686,-23.97350693,-15.4284153, 
512,528975006,-169.9730988,-2.172890663,108.0551605,1.011841416,-2.136549473,-10.06579494,-12.39928341,-20.53869057,-14.45710087, 
513,528991673,-170.1279449,-1.929335952,108.3454895,0.911339462,-2.002715588,-10.20671558,-9.058872223,-17.31902313,-14.18741608, 
514,529008340,-170.2559052,-1.741076112,108.6267776,0.804339886,-1.824754477,-10.09821606,-7.531080246,-13.93257427,-14.26691055, 
515,529025007,-170.3583069,-1.595279813,108.8895416,0.670031428,-1.766390443,-9.835185051,-6.078413486,-11.21313953,-13.63214588, 
516,529041674,-170.4182281,-1.476014256,109.1287308,0.558533013,-1.637402654,-9.658740044,-3.604734421,-9.39477253,-12.52372456, 
517,529058341,-170.430191,-1.380054474,109.338089,0.425458312,-1.576697469,-9.592132568,-0.798463702,-7.715920448,-11.00098228, 
518,529075008,-170.348587,-1.319704056,109.520874,0.366189808,-1.625653505,-9.678134918,4.761434555,-5.354170322,-9.78405571, 
519,529091675,-170.1139221,-1.31137526,109.674736,0.295530409,-1.666320205,-9.895978928,13.9006319,-2.015016794,-8.590763092, 
520,529108342,-169.5641022,-1.382562876,109.7898178,0.384177417,-1.789435983,-10.31521797,32.75980759,3.02879715,-7.129771709, 
521,529125009,-168.4889526,-1.583321095,109.8575821,0.535982013,-1.596597433,-10.88847637,64.22328186,11.09159851,-5.866984367, 
522,529141676,-166.5114288,-1.901002765,109.8089218,0.524414241,-3.634006262,-11.49938011,118.1789551,19.27705765,-0.868365586, 
523,529158343,-163.2257385,-2.361432791,109.684845,0.452943891,-5.390479565,-11.059762,196.4612885,28.65085411,0.381073862, 
524,529175010,-158.7619171,-2.981862068,109.4624557,0.554956615,-5.142986298,-9.504430771,266.7702637,39.59331131,0.900536358, 
525,529191677,-153.4566803,-3.716666698,109.1204453,0.859351277,-3.382630587,-7.693519592,316.6496887,48.68199921,1.300859332, 
526,529208344,-148.0392761,-4.557498932,108.6152039,0.921567261,-2.218185902,-6.014283657,322.3898621,58.86592484,2.139207602, 
527,529225011,-142.7234955,-5.377053738,107.9237518,1.078023076,-3.605030298,-5.874127388,314.9002075,64.01702118,6.476910114, 
528,529241678,-137.4770508,-6.097039223,107.1308212,1.176355243,-5.937623501,-6.534593105,309.5848999,63.56445313,8.994270325, 
529,529258345,-132.7059326,-6.700242519,106.341774,0.885236263,-6.537247658,-6.118264198,280.5436707,58.90090942,8.153611183, 
530,529275012,-129.1827087,-7.043263435,105.7132187,0.409852892,-7.450462341,-6.787419796,206.4353027,41.81759644,9.365462303, 
531,529291679,-126.8664322,-7.088615417,105.3551865,-0.430606395,-8.787466049,-9.012735367,135.8943787,18.52696609,11.35375214, 
532,529308346,-125.2705765,-6.912741184,105.2867966,-1.03108716,-8.695795059,-10.3724823,94.83270264,-2.839028597,11.27483559, 
533,529325013,-123.986702,-6.591280937,105.4934998,-1.431086421,-8.528873444,-10.0961113,78.11270142,-20.98753548,9.193375587, 
534,529341680,-122.8315964,-6.209442616,105.8810272,-1.537405729,-8.056006432,-9.018285751,71.56242371,-31.76766014,6.693889618, 
535,529358347,-121.809761,-5.783093452,106.3671951,-1.570964456,-8.035319328,-8.217910767,64.05702972,-38.02784348,6.371315956, 
536,529375014,-121.0148468,-5.342279434,106.9006424,-1.432976842,-7.837557316,-8.037940025,50.5258522,-40.7796936,6.206748486, 
537,529391681,-120.4969864,-4.908080578,107.4690399,-1.296810746,-7.936903477,-7.866724491,33.87965012,-42.29665756,5.229931831, 
538,529408348,-120.141243,-4.477154255,108.0786209,-1.181400061,-8.205783844,-7.73789835,24.12687111,-44.28671646,4.105574131, 
539,529425015,-119.8363647,-4.037986755,108.7292938,-1.027104259,-8.114387512,-7.925930023,21.00823402,-46.64460754,3.528866768, 
540,529441682,-119.6759567,-3.595114946,109.3850403,-0.824443877,-7.804879189,-7.553020477,12.09383488,-47.0128479,3.729387522, 
541,529458349,-119.8513947,-3.16728735,110.0216599,-0.771026015,-7.144600868,-6.485361099,-8.394857407,-45.58323288,3.480658531, 
542,529475016,-120.5269699,-2.73973155,110.6463165,-0.689172208,-6.671149254,-5.655656815,-38.70155334,-44.98625946,3.464986563, 
543,529491683,-121.6694946,-2.326055288,111.2676392,-0.664848804,-6.584111691,-5.640099049,-66.98891449,-44.43567276,2.122284412, 
544,529508350,-123.194046,-1.901373386,111.8892517,-0.5900231,-6.60035944,-5.542146206,-90.16848755,-44.83728409,1.619651318, 
545,529525017,-125.1935272,-1.454101801,112.5053101,-0.579711795,-6.625448227,-5.739575386,-118.9476929,-45.34753418,1.534083366, 
546,529541684,-127.4755402,-0.965236783,113.086853,-0.477954686,-7.614315987,-6.315533161,-136.236969,-45.17507553,3.062495708, 
547,529558351,-130.0203857,-0.498611808,113.638092,-0.421223015,-7.198517323,-6.755450726,-152.3212585,-42.99557877,1.24859488, 
548,529575018,-132.7102661,-0.04621648,114.1462021,-0.454549372,-7.730831623,-6.820058346,-161.2949982,-40.48471832,0.346733689, 
549,529591685,-135.3553619,0.35581249,114.6068878,-0.524776459,-7.250082493,-6.640246391,-158.8347626,-36.28842163,-1.732643485, 
550,529608352,-137.8637848,0.698931754,115.0312347,-0.627876997,-7.168121815,-6.611381054,-150.8014526,-32.08367157,-4.203563213, 
551,529625019,-140.0570374,0.98053515,115.4281616,-0.573335826,-6.879645348,-7.349718094,-132.0193176,-27.99162483,-6.689712048, 
552,529641686,-141.871521,1.190671325,115.8009262,-0.63475275,-6.809768677,-7.881765842,-109.3795624,-23.47693825,-9.235850334, 
553,529658353,-143.532608,1.285516977,116.1930237,-0.594148159,-6.483085632,-8.012734413,-100.2682419,-18.36415863,-15.04798603, 
554,529675020,-145.0674896,1.218117595,116.6285172,-0.44050321,-7.087245464,-8.132514954,-92.76713562,-11.53824425,-23.34877396, 
555,529691687,-146.4058075,1.000743628,117.1197968,-0.185942575,-6.801852703,-8.264241219,-80.99188232,-5.379720211,-31.45285034, 
556,529708354,-147.7118073,0.643870711,117.6455841,0.087317146,-6.167054176,-8.189839363,-78.952034,1.257726312,-37.84701157, 
557,529725021,-149.1357117,0.21135129,118.1864777,0.369466126,-5.186095715,-8.204751015,-85.83040619,5.556103706,-40.95307541, 
558,529741688,-150.8206329,-0.254284531,118.7053986,0.46421501,-3.989718199,-8.114843369,-101.2464676,9.047216415,-40.63696671, 
559,529758355,-152.7079773,-0.709999263,119.185257,0.47796905,-3.151836634,-8.366418839,-113.156868,10.89329338,-37.99309921, 
560,529775022,-154.6097107,-1.13454628,119.5945206,0.688194871,-3.623314857,-8.611878395,-113.857605,12.34531784,-32.99407196, 
561,529791689,-156.3765106,-1.579681516,119.9576416,0.842797279,-3.431092739,-8.174546242,-105.6386032,15.66643715,-30.57925224, 
562,529808356,-157.9264374,-2.099589586,120.2802887,1.006168008,-3.591791868,-7.835725784,-92.51870728,21.62179756,-29.61375427, 
563,529825023,-159.1912537,-2.771457195,120.6114578,1.525447369,-3.845328331,-7.658360481,-75.19858551,30.64145088,-32.87622452, 
564,529841690,-160.1871033,-3.642264605,120.9939194,1.937169671,-3.830081701,-8.109724998,-58.63384247,41.40777206,-39.27310562, 
565,529858357,-160.9195251,-4.673166275,121.4332504,2.511183977,-4.430268288,-8.846266747,-42.21591187,49.91407776,-45.02483368, 
566,529875024,-161.5192566,-5.812842846,121.9501495,2.851494551,-4.437030315,-8.960412979,-33.34777069,55.11540985,-50.88831329, 
567,529891691,-162.0533295,-6.990415096,122.5230103,3.151710033,-4.06129837,-8.648924828,-28.43214607,56.73383713,-54.15466309, 
568,529908358,-162.6148682,-8.184193611,123.1431351,3.29899621,-3.018219233,-8.051027298,-29.01516342,57.32423401,-56.49999237, 
569,529925025,-163.103775,-9.357586861,123.7698593,3.249723673,-3.013162136,-8.078292847,-23.8434124,56.56239319,-55.88688278, 
570,529941692,-163.3306732,-10.50145054,124.3906174,3.307970762,-3.444503307,-8.461632729,-7.441071987,55.3277359,-54.5687027, 
571,529958359,-163.4069061,-11.64143848,124.9874649,3.531512976,-3.758576632,-8.765500069,2.039575338,55.67037964,-52.87789536, 
572,529975026,-163.4712982,-12.76741982,125.5580292,3.56527257,-4.044233799,-8.338490486,3.095286131,55.39072037,-50.9527359, 
573,529991693,-163.5852966,-13.87467194,126.1225586,3.538885593,-3.822821856,-8.358686447,0.666423321,54.51824188,-50.06333923, 
574,530008360,-163.6472321,-14.96604919,126.6762695,3.389599562,-3.459842205,-8.715669632,4.240152836,53.88734436,-48.95259857, 
575,530025027,-163.6177673,-16.04982376,127.2438202,3.154156923,-3.063882113,-8.959845543,10.54341698,53.27465057,-49.41873169, 
576,530041694,-163.4808807,-17.11542702,127.8409424,3.065787077,-3.108573675,-9.138898849,18.10203552,51.71617889,-50.64803314, 
577,530058361,-163.3119354,-18.18180656,128.4825745,3.096211433,-3.178230524,-8.912612915,21.46368599,50.95357895,-53.0472641, 
578,530075028,-163.1625519,-19.22937584,129.1522827,3.218931198,-3.728901148,-9.020430565,21.49430656,49.32622528,-54.17759323, 
579,530091695,-163.0324554,-20.25111008,129.8388672,3.266038179,-4.010045052,-9.034705162,21.34820747,47.5047493,-54.5237236, 
580,530108362,-162.9482422,-21.25725937,130.5317993,3.24922204,-3.608620405,-9.018981934,19.38962936,46.48345566,-54.42877197, 
581,530125029,-162.9370422,-22.24061966,131.2367706,3.35418272,-3.345614672,-9.340644836,15.93404961,45.01654053,-54.45312881, 
582,530141696,-162.9302063,-23.20373726,131.9645081,3.517558336,-3.474801064,-9.713610649,16.8536377,43.56343079,-55.04367828, 
583,530158363,-162.8560181,-24.12888145,132.72435,3.55907917,-3.384879351,-9.756142616,22.31511497,40.91932297,-55.81699371, 
584,530175030,-162.7754822,-25.01665878,133.5150299,3.671946287,-3.395487785,-9.683132172,24.11090088,38.30269623,-56.53328705, 
585,530191697,-162.7321014,-25.88659668,134.3441467,3.977768898,-3.457775116,-9.70686245,23.52077675,36.70185471,-57.9482193, 
586,530208364,-162.8030853,-26.75165749,135.224884,4.377964973,-3.0865345,-9.723091125,18.69703484,35.72074127,-60.18731308, 
587,530225031,-163.1170044,-27.5876255,136.1624146,4.663901329,-2.868775845,-9.764368057,6.370881081,33.47412872,-62.11851501, 
588,530241698,-163.5934601,-28.3578968,137.140625,4.926584721,-3.203424454,-10.01963806,-1.538478494,29.61705017,-62.47461319, 
589,530258365,-164.1274872,-29.06064224,138.1446381,5.219336033,-3.211433887,-10.04118824,-3.594863415,26.00499535,-62.04349899, 
590,530275032,-164.6045685,-29.75485802,139.1816254,6.039817333,-3.545723915,-9.565779686,1.427194953,25.69619942,-62.99101639, 
591,530291699,-165.0053253,-30.5306797,140.303299,7.020496845,-3.559668779,-9.146888733,9.233130455,29.8526535,-67.93270111, 
592,530308366,-165.4504089,-31.43783188,141.5421448,7.453966618,-3.610223055,-9.240938187,11.02725315,36.55133057,-75.05923462, 
593,530325033,-165.9227142,-32.48833084,142.8787079,7.609801769,-3.599792004,-9.457866669,13.56133461,44.40247345,-81.06799316, 
594,530341700,-166.3959198,-33.64438248,144.2719879,7.384625435,-3.155261993,-9.831177711,16.64772987,50.72395706,-84.17794037, 
595,530358367,-166.9068146,-34.7912178,145.6625824,6.397476673,-2.159644604,-10.34809399,15.68187904,51.14504623,-82.57820892, 
596,530375034,-167.5005798,-35.86211777,146.9681396,5.577168465,-0.802648246,-10.16829491,9.083045006,48.62828064,-76.11929321, 
597,530391701,-168.0838165,-36.79695129,148.1309204,5.351250648,-0.814342141,-8.974056244,5.77551651,43.0669899,-66.3717804, 
598,530408368,-168.7411499,-37.5658989,149.2015839,5.692223549,-0.384778798,-7.87989378,-1.162886977,35.05182266,-58.98966217, 
599,530425035,-169.6007233,-38.20273209,150.2457886,6.048690796,-0.909234166,-7.054950237,-13.62540817,28.37109947,-55.33769608, 
600,530441702,-170.4632263,-38.74807739,151.2936096,6.606044769,-1.777890325,-6.829626083,-13.1492424,23.82942009,-53.73426437, 
601,530458369,-171.190979,-39.24775314,152.3819122,7.160843372,-2.059988737,-6.817585468,-3.098572016,21.61915207,-54.47159576, 
602,530475036,-171.7446747,-39.74276733,153.5054169,7.431819916,-2.089138508,-7.021913052,9.107897758,21.75434494,-55.4384079, 
603,530491703,-172.0678864,-40.25046539,154.6213531,7.406875134,-1.874037027,-7.314864635,23.08169365,23.02064323,-54.65959549, 
604,530508370,-172.2445526,-40.78590012,155.6690369,7.254938602,-1.043513536,-7.395416737,29.66302299,25.37815666,-51.31010437, 
605,530525037,-172.3924255,-41.33885574,156.6055298,7.102898121,-0.297124535,-7.402371407,27.46066666,27.2811718,-46.00849915, 
606,530541704,-172.6320343,-41.91136169,157.4446716,6.883914948,-0.012881514,-7.347516537,18.50748444,29.20895195,-41.384655, 
607,530558371,-172.8905792,-42.45319748,158.2093201,6.518741608,-0.381799579,-7.406024456,14.7554512,28.0170517,-37.4229126, 
608,530575038,-173.0718842,-42.91963196,158.9117279,6.30638361,-0.515155792,-7.466928482,17.16759109,24.03936958,-33.77036285, 
609,530591705,-173.2746277,-43.33576584,159.5786285,6.267364979,-0.442034274,-7.262110233,14.66976643,21.37186813,-31.57029533, 
610,530608372,-173.5216522,-43.74915695,160.2338409,6.232644558,-0.44424811,-7.243601322,11.74975491,21.41610527,-30.76769447, 
611,530625039,-173.7636414,-44.16429138,160.8800507,6.087402344,-0.334426105,-7.352674007,11.891572,21.71967697,-30.11005592, 
612,530641706,-173.9957581,-44.574646,161.5222168,5.826619625,-0.273429126,-7.52978611,12.52500343,21.60727692,-29.6255455, 
613,530658373,-174.1951141,-44.95203018,162.1586151,5.618856907,-0.115841456,-7.925233841,14.4461422,19.80362892,-28.91532707, 
614,530675040,-174.3543396,-45.28030777,162.7896881,5.446787357,0.017082307,-8.209500313,16.80934334,17.01632118,-28.17460251, 
615,530691707,-174.5195007,-45.57788086,163.4180603,5.298341751,0.211451322,-8.260806084,16.49796295,15.30726147,-27.69192123, 
616,530708374,-174.717926,-45.85929871,164.0326233,5.246413708,0.275821865,-8.385346413,14.06535244,14.51471519,-26.84631157, 
617,530725041,-174.9695282,-46.13883591,164.6396637,5.31370306,0.455864012,-8.581774712,10.69659901,14.56908607,-26.34456062, 
618,530741708,-175.26474,-46.40999985,165.2585449,5.379215717,0.407298207,-8.847826004,8.739192009,14.18474007,-26.60067177, 
619,530758375,-175.5677795,-46.64865112,165.9119568,5.284893036,0.252636075,-8.891867638,9.911002159,12.29967785,-27.67866325, 
620,530775042,-175.8758087,-46.82133484,166.602417,5.198366642,0.301740706,-8.846829414,11.34598637,8.420006752,-28.73989677, 
621,530791709,-176.2099609,-46.91980743,167.3227844,5.122451305,0.450699627,-8.650159836,11.17438126,4.086885929,-29.54377556, 
622,530808376,-176.5979004,-46.95424271,168.0650177,5.034946918,0.575612545,-8.503565788,8.962677956,0.407774806,-30.14160538, 
623,530825043,-176.9869537,-46.91585541,168.817749,5.001711369,0.574611008,-8.536193848,9.375926971,-3.748662233,-30.32993698, 
624,530841710,-177.3641968,-46.85372925,169.5721436,5.063728333,0.544190049,-8.519061089,10.15056133,-4.946266174,-30.38865852, 
625,530858377,-177.7727051,-46.7810936,170.3436279,5.203778267,0.664644003,-8.638749123,9.005426407,-5.375689983,-31.14253426, 
626,530875044,-178.1898193,-46.70371628,171.1379395,5.378313541,0.669351578,-8.678208351,9.46501255,-5.445025444,-32.15994644, 
627,530891711,-178.6185913,-46.63529968,171.9557037,5.531134129,0.581352115,-8.677474022,9.767016411,-4.675490379,-33.23128891, 
628,530908378,-179.0951385,-46.57459259,172.7902985,5.603223801,0.82982713,-8.61171627,7.609149933,-3.941414595,-34.01634598, 
629,530925045,-179.5957336,-46.50699234,173.6196289,5.551961899,0.909616172,-8.525502205,5.918242455,-4.039754391,-33.87660217, 
630,530941712,179.7683868,-46.43110657,174.432312,5.628190041,1.196039796,-8.289960861,-2.949774981,-4.181263924,-33.27915955, 
631,530958379,179.0558014,-46.31893921,175.2142334,5.626806259,1.224600554,-8.292208672,-8.918275833,-5.957269192,-32.14151764, 
632,530975046,178.269928,-46.18188858,175.975647,5.833776474,1.234648347,-7.950301647,-14.25470543,-7.027745247,-31.48456955, 
633,530991713,177.4706421,-46.05165482,176.7213593,6.134369373,0.936439097,-7.380828381,-15.79522896,-6.185263634,-30.99456215, 
634,531008380,176.7025299,-45.96578217,177.4708099,6.744237423,0.68187654,-7.035041809,-13.81307602,-3.081822634,-31.16424179, 
635,531025047,175.9839478,-45.95422363,178.2837982,7.624375343,0.41714108,-7.003294468,-8.127378464,1.947117448,-33.59192657, 
636,531041714,175.3610077,-46.05341721,179.2153015,8.157125473,0.147194833,-7.063912868,2.740797997,9.334464073,-37.96548843, 
637,531058381,174.8950806,-46.28481293,-179.7523651,8.413402557,0.331853628,-6.976836681,16.62060738,17.93914604,-41.26185608, 
638,531075048,174.4770813,-46.65523529,-178.647583,8.652933121,0.71162492,-6.621817589,22.85410881,26.80937958,-43.09489059, 
639,531091715,173.8955078,-47.15047836,-177.4937592,8.92848587,1.487265587,-6.384161949,15.52380085,34.79217911,-43.74121094, 
640,531108382,173.0690918,-47.70091629,-176.3415833,8.505810738,1.385689259,-5.972045422,1.193994403,38.54281235,-42.41110611, 
641,531125049,172.1598969,-48.20799637,-175.2827759,8.192840576,1.293159962,-5.61948061,-7.502085209,36.04943085,-37.97028351, 
642,531141716,171.1645966,-48.66123199,-174.345047,8.156720161,1.3533988,-5.168012619,-17.74815369,32.71366119,-32.6751976, 
643,531158383,170.1086121,-49.05833054,-173.5241547,8.479045868,1.284810066,-4.630515099,-26.39469147,29.15693474,-27.77467537, 
644,531175050,169.0167694,-49.42338943,-172.7746429,9.24813652,1.12093091,-4.335310936,-31.57943535,27.21603966,-24.5779705, 
645,531191717,167.885498,-49.77905273,-172.0637665,9.963457108,0.80617547,-4.304867744,-35.53753281,26.77104187,-22.47649002, 
646,531208384,166.7726288,-50.1189537,-171.3707886,10.46173096,0.437721074,-4.584240437,-35.10694885,26.06316757,-21.28706932, 
647,531225051,165.8157654,-50.43422699,-170.7013245,10.48405075,0.281930864,-4.646605492,-26.7124939,24.72554207,-20.10796165, 
648,531241718,164.9661865,-50.75643539,-170.0499268,10.70218182,0.371388137,-4.586589336,-21.00523376,25.19668007,-18.77667427, 
649,531258385,164.2070007,-51.12089157,-169.44133,10.51583958,0.853785336,-4.713749409,-17.46407318,27.39875221,-16.00994301, 
650,531275052,163.4931946,-51.50386047,-168.917099,10.19817638,1.42377162,-4.670741558,-18.56559753,27.7113266,-12.13055992, 
651,531291719,162.8379059,-51.89949036,-168.543335,9.940406799,1.671720982,-4.804046154,-22.02166367,26.8927536,-6.06499815, 
652,531308386,162.2180176,-52.33646393,-168.2804413,9.851159096,2.05257535,-4.771635532,-25.05382538,28.04169655,-1.002229929, 
653,531325053,161.59935,-52.80942535,-168.094223,9.627306938,1.720457911,-4.213118553,-28.55935287,29.18962669,2.721384287, 
654,531341720,161.0590973,-53.27233124,-167.975708,9.161879539,1.662264466,-3.564558744,-27.05068016,27.76595306,5.203433514, 
655,531358387,160.5414429,-53.71235275,-167.9076233,9.030603409,2.156315804,-3.664420843,-28.09683228,25.79403877,6.748002529, 
656,531375054,160.0080566,-54.11434555,-167.8409729,8.899781227,2.497965097,-3.641314745,-29.08696556,23.54185867,6.282474518, 
657,531391721,159.533783,-54.48616409,-167.7022705,8.962677002,1.378134489,-3.658705473,-21.99885178,22.63696098,3.511225224, 
658,531408388,159.1892548,-54.80633163,-167.4825439,9.153868675,1.922914505,-4.040687561,-10.23156166,20.67328453,-0.014266301, 
659,531425055,158.7420959,-55.09310532,-167.2224274,9.236505508,1.999587536,-4.626200199,-14.36397552,19.26968193,-1.840417147, 
660,531441722,158.3274231,-55.34507751,-167.0054321,9.201021194,1.939884424,-4.94784832,-14.5002718,16.76872253,-1.031643033, 
661,531458389,157.9400635,-55.57310104,-166.8290253,9.075570107,2.258197784,-4.678646088,-14.83940601,14.90640163,-0.128217354, 
662,531475056,157.546875,-55.7870369,-166.6763153,8.981027603,2.252381802,-4.779118061,-16.33784103,13.80551624,0.424486369, 
663,531491723,157.3154602,-55.97639465,-166.5503235,8.91699028,2.049671173,-5.08335638,-7.937444687,12.08066654,0.786713839, 
664,531508390,157.204361,-56.14500809,-166.4306793,8.725540161,1.966955066,-5.22901392,-1.023829579,10.83820343,0.554406285, 
665,531525057,157.1973419,-56.29771042,-166.3476257,8.733366966,1.498270988,-5.261684895,3.40288496,9.477425575,1.336759329, 
666,531541724,157.2958374,-56.47328568,-166.2712097,8.657530785,1.09004426,-5.273841858,9.397325516,10.65032482,2.073291779, 
667,531558391,157.4817352,-56.65602875,-166.1838837,8.439751625,1.440613389,-5.251626015,15.17186165,11.19006824,1.890494823, 
668,531575058,157.6244659,-56.81566238,-166.0626526,8.272781372,1.588979244,-5.087722778,14.28027821,10.32960415,0.309011102, 
669,531591725,157.6878204,-56.96327972,-165.9319,8.359139442,1.602044344,-4.935334682,9.997328758,9.77854538,-0.256204039, 
670,531608392,157.6493683,-57.11296463,-165.7692566,8.785234451,1.607497096,-5.145972729,5.500143528,10.28039742,-1.160038114, 
671,531625059,157.5302734,-57.26834488,-165.5838623,8.832105637,1.854795098,-5.343518257,1.811132073,10.87310028,-1.678119063, 
672,531641726,157.4264679,-57.41804886,-165.4120483,8.776907921,1.832581162,-5.483703136,2.055887222,10.38361645,-1.360086083, 
673,531658393,157.2806854,-57.53130722,-165.2104645,8.592953682,2.129357576,-5.364853859,1.049640775,8.73458004,-3.046849251, 
674,531675060,157.0325623,-57.57880402,-165.0064392,8.557686806,1.88182807,-5.366706371,-4.955852985,5.13931036,-4.606572628, 
675,531691727,156.7820892,-57.59446335,-164.8249512,8.636086464,1.479328513,-5.585520744,-6.239228249,3.118980408,-4.662165165, 
676,531708394,156.6446228,-57.58464432,-164.6366425,8.668642998,1.699875832,-5.685119152,0.872567058,1.819980741,-5.455940723, 
677,531725061,156.5492096,-57.58395767,-164.4585724,8.576576233,1.940080523,-5.741182804,2.866208553,2.213135958,-4.931661606, 
678,531741728,156.572113,-57.57862473,-164.3123474,8.558998108,1.990302205,-5.662594795,8.345316887,1.556170583,-4.099749565, 
679,531758395,156.5815125,-57.57159805,-164.1522675,8.541955948,2.192153454,-5.423984051,8.232686043,1.643125534,-4.549866676, 
680,531775062,156.4778748,-57.55300522,-163.9591064,8.552386284,2.088073969,-5.317737579,3.123322248,1.440925956,-5.800829411, 
681,531791729,156.3244476,-57.52517319,-163.7388153,8.441521645,1.641316414,-5.260257721,1.505354524,1.301426291,-6.823506355, 
682,531808396,156.1653137,-57.50669479,-163.480072,8.302514076,1.475197911,-5.094809055,3.097901821,2.33450222,-7.731400967, 
683,531825063,155.9762726,-57.5103035,-163.1712494,8.138720512,1.553559422,-4.970886707,3.823753357,4.228561878,-8.66283226, 
684,531841730,155.6691132,-57.52183914,-162.8031921,8.014637947,2.087566614,-4.886757851,-0.272083849,5.484891891,-10.18970966, 
685,531858397,155.2031708,-57.51263046,-162.38797,8.153328896,2.13115263,-5.084936142,-7.412653446,5.057698727,-12.05010509, 
686,531875064,154.8065491,-57.46334457,-161.9897614,8.642091751,1.9913311,-5.661673069,-4.120855808,2.744281292,-12.53962803, 
687,531891731,154.3751221,-57.39284897,-161.5420837,8.693479538,1.918115973,-5.748682022,-3.729979992,2.38732934,-14.52722645, 
688,531908398,153.9209442,-57.30995941,-161.0633392,8.65728569,2.151851177,-5.549930096,-3.554328918,2.289911985,-15.76223755, 
689,531925065,153.5550079,-57.22006607,-160.62854,8.733556747,1.926788568,-5.801567554,-0.509488225,1.415365219,-14.68387413, 
690,531941732,152.9910126,-57.25152206,-160.052002,8.650968552,2.322616339,-5.482292175,-5.262430668,10.12206936,-15.51538658, 
691,531958399,152.3548889,-57.25905609,-159.4148102,8.571779251,2.499311447,-5.458108902,-6.52611351,9.911854744,-17.80789757, 
692,531975066,151.8172302,-57.20240402,-158.84935,8.818948746,2.306649446,-5.732615471,-4.249139786,5.614432812,-17.45946884, 
693,531991733,151.2578278,-57.10281372,-158.2695313,9.165554047,2.032675982,-5.65810442,-4.86324358,3.764476776,-19.07621193, 
694,532008400,150.72229,-56.96923828,-157.6758728,9.423549652,1.865882158,-5.585764885,-2.789726734,2.41320014,-20.47458076, 
695,532025067,150.1440735,-56.80857468,-157.0443878,9.693035126,1.705728889,-5.629330635,-3.517052889,1.853767395,-22.39693832, 
696,532041734,150.1821899,-56.56135941,-156.5566101,9.720355034,1.593110442,-5.982859612,26.15692329,-4.848964214,-20.96134758, 
697,532058401,150.3152313,-56.25353622,-156.087265,9.478315353,1.775266528,-5.390881062,30.82426071,-8.280181885,-22.32745361, 
698,532075068,150.6954193,-55.83825684,-155.7293396,9.409971237,1.716311812,-5.497426033,39.98939514,-15.76449013,-22.34296227, 
699,532091735,151.3299866,-55.34783936,-155.5244751,9.512488365,1.605804205,-5.532045364,47.55849838,-22.35725403,-19.96917534, 
700,532108402,152.2125397,-54.8195343,-155.4789276,9.508411407,1.475038648,-5.417304993,54.51251984,-27.17839813,-16.00098991, 
701,532125069,153.2741394,-54.27341461,-155.6036987,9.393781662,1.360512018,-5.402913094,56.89444351,-31.11213303,-10.7754631, 
702,532141736,154.491272,-53.72958755,-155.9178314,9.293502808,1.172728658,-5.153717995,57.05341721,-34.17076874,-4.041145325, 
703,532158403,155.9695435,-53.15734863,-156.4517365,9.080868721,0.695009828,-4.568112373,62.21563339,-39.17694473,3.318565845, 
704,532175070,157.6819763,-52.51274109,-157.1440277,9.264551163,0.207212359,-4.678969383,68.87343597,-45.44110489,8.229898453, 
705,532191737,159.4900208,-51.82193375,-157.8978424,9.348191261,-0.64367485,-5.026641369,71.95996094,-48.73752213,11.07786179, 
706,532208404,161.2928314,-51.15787125,-158.6709747,9.275905609,-1.483739257,-5.53875494,71.02830505,-47.25492859,14.22833729, 
707,532225071,163.0415802,-50.62496567,-159.4742432,9.042892456,-2.231767178,-6.092931271,66.62569427,-39.78136444,19.55375862, 
708,532241738,164.9479218,-50.31732941,-160.3696289,8.815307617,-2.850367546,-6.286500454,71.97603607,-27.20348167,28.19239044, 
709,532258405,167.1357117,-50.32264328,-161.4114227,8.946084976,-2.639009714,-6.141391754,82.11357117,-9.340843201,39.23894882, 
710,532275072,169.6309509,-50.66130447,-162.6811676,8.539512634,-2.240544558,-5.65242672,89.81912231,10.12872028,52.00285339, 
711,532291739,172.3263702,-51.28441238,-164.2307892,8.227036476,-1.33612895,-5.314372063,88.3254776,27.74114227,64.12071991, 
712,532308406,175.0236664,-52.08774185,-166.071701,7.766232014,-0.209228918,-4.975168228,73.96955109,40.37629318,73.79829407, 
713,532325073,177.4711456,-52.98431015,-168.1593475,7.652702332,-0.2285285,-4.405988216,46.21977615,48.71950531,79.95821381, 
714,532341740,179.7624054,-53.94034958,-170.5254211,7.572066307,-1.1692065,-3.462428093,22.20876884,55.34355545,86.26972961, 
715,532358407,-178.1797791,-54.88659668,-173.0727844,7.761737823,-1.779643536,-2.950587511,-2.037365675,58.04746246,88.52197266, 
716,532375074,-176.4433289,-55.89308929,-175.7221985,7.704699993,-2.919054508,-3.619943142,-27.86599159,64.61904144,87.70599365, 
717,532391741,-175.0854187,-56.93405533,-178.3558502,6.923612595,-1.815589905,-5.360279083,-51.40719604,68.82521057,82.88921356, 
718,532408408,-174.1057587,-57.94745636,178.9632568,6.365057945,0.060184471,-7.291073322,-78.04888916,68.80404663,80.76626587, 
719,532425075,-173.3601837,-58.86154556,176.1448059,6.044324398,0.707396686,-7.803756714,-100.549324,64.35409546,82.38949585, 
720,532441742,-172.8130951,-59.63933945,173.1937103,6.254614353,0.612069726,-8.050559044,-120.5686035,57.44193268,84.56742859, 
721,532458409,-172.352005,-60.26797867,170.1586456,6.887735367,-0.318377137,-8.76675415,-131.1781769,49.44822693,85.87101746, 
722,532475076,-171.9907379,-60.6937294,167.2436523,7.898678303,0.537847519,-9.612570763,-131.730957,37.38522339,82.23519897, 
723,532491743,-171.670639,-60.90924454,164.5798035,8.658781052,0.299045444,-9.394903183,-121.5248032,24.28091049,75.71561432, 
724,532508410,-171.3116455,-60.9250412,162.3569336,9.282049179,-0.026180446,-8.894168854,-96.23110962,10.98901844,64.38316345, 
725,532525077,-170.6954651,-60.76698303,160.5454712,9.410178185,-0.049308874,-8.824344635,-59.16214371,-0.584392607,54.21788788, 
726,532541744,-169.7104034,-60.42043304,159.0028992,8.97913456,0.672704518,-8.657184601,-22.74709702,-12.20935726,48.78872299, 
727,532558411,-168.4557953,-59.85317993,157.6403046,8.682057381,1.694265723,-8.45539093,3.162309647,-25.12493896,46.91739655, 
728,532575078,-167.2137756,-59.04935074,156.4542084,8.270348549,2.147571325,-8.409088135,12.04155445,-38.90433884,46.05712128, 
729,532591745,-166.0387421,-58.07795334,155.4547882,8.116564751,1.898105383,-8.258999825,18.17551422,-48.81811523,44.48049927, 
730,532608412,-165.002243,-57.057827,154.639267,7.752568722,1.780114532,-7.670077324,19.75761986,-52.02264023,41.32116318, 
731,532625079,-164.1339722,-56.03999329,153.9706573,7.426534176,1.166013598,-7.355605602,17.52287865,-52.28076553,38.20923996, 
732,532641746,-163.2616577,-55.07617188,153.4298553,7.354790211,0.855141222,-7.244339466,24.50419617,-49.62688065,34.51971436, 
733,532658413,-162.5572052,-54.1679039,153.037384,7.442973137,1.865758419,-6.905826092,22.01945686,-47.33654404,29.74647141, 
734,532675080,-162.2612,-53.32151031,152.7108459,7.519317627,2.152526855,-6.862257481,0.955292344,-44.15236664,27.11837769, 
735,532691747,-162.4144897,-52.62889099,152.4225769,7.74687767,1.226220489,-6.61783123,-23.96434021,-35.68296432,23.28648758, 
736,532708414,-162.6649017,-52.08295059,152.1425171,7.67693615,0.316064984,-5.860716343,-29.24949646,-27.41590881,20.39619446, 
737,532725081,-162.8920746,-51.60151291,151.855423,7.897141457,0.415696919,-5.239717484,-28.06635094,-23.69771957,19.51253319, 
738,532741748,-163.1359863,-51.1813736,151.4907379,7.852331161,-0.081979021,-4.983463287,-32.58777618,-19.39549637,21.22727394, 
739,532758415,-163.6605225,-50.81517792,151.1660767,7.897171021,0.176978245,-5.125100613,-47.4343071,-16.84925652,18.83927345, 
740,532775082,-164.397644,-50.50733185,150.9270172,7.755710125,-0.578841269,-5.611063004,-56.11064148,-14.57470512,14.64544392, 
741,532791749,-164.9881897,-50.2370224,150.7953949,7.878412724,-0.429715544,-5.863920689,-42.28953934,-13.64719772,9.973126411, 
742,532808416,-165.2331543,-50.002388,150.6643524,7.877720833,-0.734491467,-5.665157795,-21.48541832,-11.65550995,9.331221581, 
743,532825083,-165.1220245,-49.79841232,150.5733185,7.698195457,-1.39750433,-5.0588727,1.746498942,-10.28980446,7.377133846, 
744,532841750,-164.9524078,-49.60733032,150.6021576,7.204317093,-1.243083,-4.792078018,10.76770878,-10.73230553,2.715684414, 
745,532858417,-164.9068909,-49.42612457,150.7919922,6.997655392,-0.81795305,-4.974015236,10.67268658,-11.8015089,-3.480243683, 
746,532875084,-164.9449921,-49.28133774,151.0493469,6.817454815,-0.519599915,-4.876907825,8.722045898,-10.39269257,-6.62428093, 
747,532891751,-164.896637,-49.16135788,151.302597,6.725244522,-1.142014623,-4.929134369,13.71142197,-8.932963371,-6.883087635, 
748,532908418,-164.8061829,-49.09263229,151.5764313,6.833273888,-1.03597188,-4.841212749,17.16148758,-6.196848392,-8.477380753, 
749,532925085,-164.952301,-49.15704346,151.8748016,6.876117706,-0.857858837,-4.888457298,4.088358402,1.254773259,-11.49971008, 
750,532941752,-165.0849762,-49.31519318,152.0892487,7.281436443,-1.28946507,-5.609744549,1.111598134,7.566539288,-9.754767418, 
751,532958419,-164.8963928,-49.60536194,152.1442719,7.465590954,-1.743025541,-5.932621956,13.15254688,16.82317352,-5.771178722, 
752,532975086,-164.3300323,-50.05373001,152.0205383,7.235698223,-1.993868351,-5.540174484,27.63242912,27.77218437,-1.713946939, 
753,532991753,-163.6888885,-50.56911469,151.8105927,6.892431736,-1.027684808,-5.259520531,28.09172249,32.50726318,0.012044449, 
754,533008420,-163.2262421,-51.14967346,151.4982452,7.326187611,-0.772484779,-5.932192802,12.54016781,37.32393265,2.214761496, 
755,533025087,-162.8205872,-51.84815979,151.0467682,7.390300274,-1.146027446,-6.213447094,2.457832098,45.56960297,4.686153412, 
756,533041754,-162.4812317,-52.64190674,150.531311,7.345796585,-1.369623542,-6.34246397,-4.78068161,51.67152405,4.673587322, 
757,533058421,-162.0997925,-53.51097488,149.9503174,7.264494419,-1.957573652,-6.456066132,-5.684970856,56.61838531,4.893420219, 
758,533075088,-161.6529846,-54.41982269,149.374115,7.167189598,-1.815433145,-6.143940926,-1.877190232,58.74412918,3.179054976, 
759,533091755,-161.2012177,-55.30445099,148.8454285,7.033535004,-1.807896018,-6.08600235,0.414155662,56.7328186,1.219671488, 
760,533108422,-160.7762756,-56.13564301,148.4177246,7.426474571,-1.875516176,-6.335511208,3.514948606,52.4813652,-1.753795505, 
761,533125089,-160.4145813,-56.95122147,148.1903076,7.882032871,-2.334836721,-6.59691906,9.512431145,49.29592133,-8.326905251, 
762,533141756,-160.0119934,-57.78120041,148.18367,8.436527252,-2.655775547,-6.670670509,22.98004341,47.59584427,-15.81474495, 
763,533158423,-159.6334686,-58.59445953,148.4250336,8.859826088,-2.281989336,-6.471475601,34.14033508,43.85401154,-23.15404701, 
764,533175090,-159.3503876,-59.40544891,148.858017,9.364394188,-1.998944163,-6.752912045,38.34350586,41.59432602,-28.73650932, 
765,533191757,-159.2197876,-60.17969131,149.443161,9.712625504,-1.004994392,-7.399642467,37.23698807,37.92280579,-32.10754776, 
766,533208424,-159.2146149,-61.03866959,150.049942,10.13288212,-1.371300817,-8.369628906,31.05880737,42.58858871,-34.13377762, 
767,533225091,-159.0491638,-61.93445587,150.5836639,10.13623905,-1.188371778,-8.233385086,37.04216385,45.55355072,-32.55205154, 
768,533241758,-158.4527435,-62.77289581,150.757782,9.418963432,-1.412525058,-7.303573132,43.96924973,45.94472504,-21.8593502, 
769,533258425,-157.780899,-63.48583221,150.6533508,8.873739243,-1.616613865,-6.501785755,33.60058212,41.59679794,-12.41166019, 
770,533275092,-157.2847748,-63.99886703,150.4173584,8.219506264,-1.810209155,-5.904174805,15.9068718,31.72232246,-5.062321663, 
771,533291759,-156.7039185,-64.2403183,150.2066956,7.844253063,-1.438764095,-5.791007042,22.27504921,16.40340996,0.33920911, 
772,533308426,-155.6756744,-64.1568985,149.8038025,7.717055798,-1.590374589,-6.368271351,38.69374847,0.616379678,12.58308792, 
773,533325093,-154.111969,-64.04983521,149.2835693,7.964600563,-4.146966934,-6.634828568,64.45612335,0.970922172,16.02265167, 
774,533341760,-152.0098572,-63.82445145,148.8515015,6.940472126,-2.255094528,-5.388206005,101.4870224,-5.825404167,17.2304306, 
775,533358427,-150.3119507,-63.46802521,148.6328125,6.855354309,-1.507882595,-5.318184853,88.72712708,-14.79783916,16.36473465, 
776,533375094,-149.3686371,-63.06122589,148.7385406,7.090156555,-1.46228838,-5.331775665,60.8493309,-21.36259079,10.74781895, 
777,533391761,-148.4145355,-62.52260208,148.9653778,7.133649349,-3.447370291,-5.646271229,67.90866852,-29.66448212,12.33500481, 
778,533408428,-147.3811035,-61.91826248,149.3265228,7.920137405,-3.51382494,-5.410820007,79.69374084,-34.80680084,11.6856699, 
779,533425095,-146.2193756,-61.28313446,149.8216553,8.680346489,-4.226244926,-5.548051834,94.32037354,-38.29503632,10.01093292, 
780,533441762,-144.9955597,-60.66950989,150.3999176,9.608761787,-3.835133076,-5.469655037,102.2158279,-38.51078415,7.865731239, 
781,533458429,-143.8439789,-60.11238098,150.982605,10.02693462,-3.627316475,-5.076684952,97.92775726,-35.820755,6.346975327, 
782,533475096,-142.7515106,-59.64795303,151.431488,10.42748547,-3.573091507,-5.058650017,87.27858734,-28.97888374,6.747003555, 
783,533491763,-141.739502,-59.31009674,151.6629639,9.92962265,-2.482642651,-4.593995094,71.12014008,-18.88799095,7.750584602, 
784,533508430,-140.6998291,-59.03796387,151.4689941,9.720930099,-3.401801348,-3.927433491,50.8404541,-7.532681942,15.78177738, 
785,533525097,-139.4258118,-58.78386688,150.7987823,8.898957253,-3.463587999,-2.6728158,40.47272491,3.103984118,26.59774971, 
786,533541764,-138.2467651,-58.44893646,149.6763153,8.416523933,-3.947375298,-2.201241016,11.74760437,9.4115448,40.5007515, 
787,533558431,-137.4912262,-58.07220078,148.2639771,8.474079132,-3.760379553,-2.281109333,-28.21022606,14.586689,49.0807991, 
788,533575098,-137.7316132,-57.66307449,146.766098,8.41291523,-1.932910085,-2.061255455,-91.96810913,15.52798939,52.72195816, 
789,533591765,-139.1697998,-57.22821045,145.1755981,8.032582283,-2.170942783,-2.884696722,-168.104187,15.91851616,56.64184189, 
790,533608432,-141.2769623,-56.8073616,143.5836182,8.043138504,-4.090858459,-4.007911682,-207.8926697,15.21968174,57.09155655, 
791,533625099,-143.3399048,-56.46884537,142.0156403,7.973930359,-5.144831657,-4.342787743,-203.6737823,16.89559937,54.39247894, 
792,533641766,-144.7913971,-56.15224838,140.3653412,7.612019539,-5.739459991,-4.292586327,-170.8054199,18.1840229,56.70972824, 
793,533658433,-145.3125305,-55.81925583,138.6253357,7.894728661,-6.516889572,-4.593649387,-119.1382675,18.40515327,60.43502426, 
794,533675100,-144.8861694,-55.46291733,136.7767944,7.979559898,-5.978219986,-4.501429558,-67.31936646,19.61886406,64.70168304, 
795,533691767,-144.0477142,-55.0678215,134.8703156,8.076773643,-4.828536034,-4.552010059,-45.03491974,19.94136047,67.94567871, 
796,533708434,-143.2100677,-54.63726044,132.9469757,7.819629192,-4.459764481,-4.700961113,-45.42108917,19.95519829,69.93955231, 
797,533725101,-142.5750732,-54.17557907,131.0134277,7.549251556,-4.381377697,-4.826825142,-57.54795074,20.02596092,71.70320129, 
798,533741768,-142.2730713,-53.69121933,129.0932007,7.33760643,-4.689620972,-5.217410564,-76.30547333,19.72182655,72.63721466, 
799,533758435,-142.1223297,-53.16347504,127.1399002,7.169680119,-5.206465721,-5.793329716,-86.36223602,19.1934166,75.76667023, 
800,533775102,-141.9255066,-52.58752823,125.1201096,6.978884697,-5.816442966,-5.837571144,-86.103302,19.20651054,80.13500977, 
801,533791769,-141.680481,-51.95537186,123.09375,6.891316414,-6.180515289,-5.662620544,-82.74180603,17.66602516,83.16499329, 
802,533808436,-141.4443817,-51.25011063,121.0636292,6.884684563,-6.447959423,-5.793142319,-82.57125854,15.38040257,86.82983398, 
803,533825103,-141.203476,-50.41609192,119.0386581,7.110996246,-6.757908344,-6.28768158,-81.00418854,10.4061079,92.46165466, 
804,533841770,-140.8820801,-49.44475555,116.9867325,7.457794189,-7.087172508,-6.60408926,-76.17099762,6.055492401,99.57052612, 
805,533858437,-140.4196167,-48.35150528,114.8619843,7.791985035,-7.647155762,-6.632004738,-69.53603363,3.988928795,107.7206268, 
806,533875104,-139.7493286,-47.1230545,112.6934586,8.357754707,-8.705801964,-6.644678116,-57.25378799,1.2132231,115.7328033, 
807,533891771,-138.8513336,-45.7414856,110.4841919,8.700894356,-9.45928669,-6.857532978,-43.29649353,-1.663442016,124.6243744, 
808,533908438,-137.9160767,-44.19573975,108.2307053,8.769209862,-9.273651123,-6.950343609,-40.51183319,-4.193051338,134.3908386, 
809,533925105,-137.1277466,-42.43920517,105.9241409,8.567742348,-8.674086571,-6.977684975,-48.64797592,-8.119540215,146.6925049, 
810,533941772,-136.5937805,-40.43361282,103.5349731,8.216556549,-7.951133728,-6.975652695,-63.76123047,-12.70946312,161.9488831, 
811,533958439,-136.2402344,-38.20647049,101.0779572,7.692443848,-7.972818375,-6.717914581,-73.05318451,-16.56102753,175.990448, 
812,533975106,-135.9245911,-35.85074997,98.60808563,7.352965355,-8.223855972,-6.557578087,-71.07751465,-18.1495533,184.521225, 
813,533991773,-135.6492615,-33.46291733,96.19667053,6.985461235,-8.129189491,-6.79334116,-66.43825531,-18.12190819,186.4610901, 
814,534008440,-135.4828491,-31.10773849,93.89741516,6.689036846,-7.74468565,-6.83399725,-64.30173492,-17.70805359,183.4594727, 
815,534025107,-135.4763947,-28.83880806,91.73284912,6.280017853,-7.215457916,-6.806277275,-65.01985168,-16.65950012,176.9311371, 
816,534041774,-135.5934601,-26.67664146,89.68388367,5.915710449,-6.493536472,-6.606629372,-64.72930145,-14.89056206,169.7849884, 
817,534058441,-135.8278351,-24.60290909,87.66946411,5.504402161,-5.270927429,-6.007201672,-66.75074005,-11.51276684,166.1808929, 
818,534075108,-136.1491089,-22.62217331,85.67505646,5.288642406,-5.859591484,-5.648233891,-67.53275299,-7.855302334,162.7568665, 
819,534091775,-136.4762268,-20.69878006,83.68708801,4.81410265,-4.677550793,-5.869476795,-63.92454147,-5.489294529,161.2150421, 
820,534108442,-136.8800507,-18.80065346,81.69701385,4.739256859,-3.792481184,-5.964806557,-64.79676819,-4.380980968,161.2804565, 
821,534125109,-137.4953766,-16.95427513,79.69973755,4.488481522,-2.247536182,-5.346941471,-73.87263489,-2.404105902,160.4054871, 
822,534141776,-138.5216675,-15.25307655,77.77134705,4.167398453,-1.668134093,-4.924194336,-93.78186798,-0.151196048,152.452301, 
823,534158443,-139.882843,-13.80120659,76.01325989,3.957440615,-2.605033398,-4.860072136,-108.1954651,2.1008811,135.8737335, 
824,534175110,-141.2817078,-12.61469078,74.53357697,3.993732214,-3.369532585,-4.882557869,-104.2489853,1.167249441,113.7050323, 
825,534191777,-142.5515442,-11.6472702,73.38562012,4.317959309,-3.961163044,-5.545463562,-90.67225647,-2.920951366,90.59104919, 
826,534208444,-143.4631805,-10.91321754,72.54383087,4.86047554,-4.922892094,-6.117470741,-64.5734024,-4.183214664,67.90352631, 
827,534225111,-144.0409088,-10.37894249,71.90374756,6.042992115,-5.183264256,-4.974036694,-41.74763489,-2.387889624,51.26544189, 
828,534241778,-144.3820953,-9.741685867,71.68893433,5.806519032,-7.478567123,-6.611706257,-22.7159977,-22.50079727,34.53678894, 
829,534258445,-143.6835632,-8.961025238,72.03620148,5.851828098,-5.683925629,-8.717359543,45.29751205,-48.93514252,12.72450638, 
830,534275112,-143.0681,-8.259056091,72.79805756,5.256628036,-1.770935416,-9.574650764,43.78952026,-59.69896317,-9.254504204, 
831,534291779,-142.1673584,-7.534697533,73.75886536,4.882082462,-0.576294482,-9.667772293,62.03083038,-68.04253387,-16.95291328, 
832,534308446,-141.4806213,-6.892275333,74.46742249,4.018668175,-1.256395459,-8.654892921,46.67118835,-55.09248352,-7.131398678, 
833,534325113,-140.868515,-6.328980446,74.98564148,2.98469305,-3.328770161,-7.803987503,40.48958969,-44.31687546,-0.539826453, 
834,534341780,-140.5253601,-5.858954906,75.40235901,2.235414982,-4.265173912,-6.925963402,23.46271896,-36.13793182,1.018380404, 
835,534358447,-140.5378723,-5.575910568,75.74653625,1.761371851,-4.945084572,-6.735011578,1.545748949,-24.71116066,-2.640214205, 
836,534375114,-140.8351135,-5.409009457,76.01307678,1.375962853,-4.244277,-6.794284821,-16.05662346,-16.36897278,-3.528943539, 
837,534391781,-141.3411102,-5.324192047,76.20326233,1.024016261,-4.945967674,-6.501728535,-29.03543472,-9.626232147,-3.165304899, 
838,534408448,-141.7604523,-5.279983521,76.32593536,1.097236753,-5.788956642,-6.647447586,-24.22494888,-5.175640106,-1.601610422, 
839,534425115,-141.8059845,-5.279855251,76.3290863,1.190974593,-7.262984753,-7.021569252,-2.469397068,1.319303632,2.334322214, 
840,534441782,-141.5001068,-5.344583035,76.26534271,0.966754019,-6.995245934,-7.149677753,18.22284126,6.827196598,3.008747339, 
841,534458449,-141.0318451,-5.445360661,76.15638733,1.031711936,-5.863750458,-7.496537209,27.68545341,10.19803524,3.680569172, 
842,534475116,-140.6206512,-5.535377026,76.00049591,1.109920025,-5.194263458,-7.574732304,23.97079277,11.4904108,6.183919907, 
843,534491783,-140.3122559,-5.596106529,75.86663055,0.806359529,-4.831328392,-7.274402618,17.91653252,9.34808445,6.238558769, 
844,534508450,-140.1908569,-5.619429111,75.78910065,0.908449888,-4.642623901,-7.396150112,7.020980835,5.509959221,5.073813438, 
845,534525117,-140.1454926,-5.615061283,75.71952057,1.381154418,-5.354641914,-8.263112068,2.508258581,3.95585084,5.791231632, 
846,534541784,-139.8679352,-5.601067066,75.56993103,1.02786696,-5.824564934,-8.793448448,15.97589111,6.620456696,9.844369888, 
847,534558451,-139.2273407,-5.58316946,75.44999695,0.737088144,-6.148624897,-8.508265495,37.93572235,5.389914513,8.627415657, 
848,534575118,-138.4193115,-5.558749199,75.35578156,0.812733233,-5.285390377,-8.11456871,48.1368866,4.200499535,7.677709103, 
849,534591785,-137.8429565,-5.528589249,75.31164551,0.952000797,-4.994961262,-7.87785244,34.53759003,2.065621614,5.667038441, 
850,534608452,-137.6792603,-5.464344501,75.30525208,1.18432796,-5.860449314,-7.810668945,10.00522041,-0.903866172,5.395252705, 
851,534625119,-137.8276672,-5.331294537,75.33419037,1.535338879,-6.48647356,-7.925349236,-8.515694618,-5.359798908,6.62826252, 
852,534641786,-138.1426849,-5.193051338,75.19726563,2.063314915,-7.920985699,-6.816991329,-19.4246273,1.021859169,14.18695354, 
853,534658453,-138.3800964,-4.972764969,75.13414764,1.713927865,-9.136436462,-7.637121677,-14.36370659,-5.687391758,14.14398193, 
854,534675120,-137.7113647,-4.802116871,74.9646225,2.123390675,-8.825277328,-8.869745255,39.45705795,0.787787676,16.85549545, 
855,534691787,-136.1884918,-4.703724384,74.67699432,1.587805271,-9.233441353,-8.917816162,90.13305664,9.068592072,19.03357697, 
856,534708454,-133.9261475,-4.688513756,74.20391083,1.340619922,-9.109214783,-8.685801506,133.5950928,21.02069855,23.04141808, 
857,534725121,-130.681778,-4.68227911,73.44194794,0.703933895,-11.12724018,-8.854491234,191.0878601,35.19588852,33.2394104, 
858,534741788,-126.4327316,-4.70326376,72.42618561,0.402154505,-9.156666756,-9.416826248,250.0916748,50.11601639,39.05230713, 
859,534758455,-122.4664917,-4.843246937,71.14222717,0.662424564,-7.465018272,-8.718628883,231.6960297,70.03418732,38.5978775, 
860,534775122,-118.7034683,-5.079166412,69.51612091,0.719482005,-7.507639408,-7.27257061,217.4748383,93.02603149,39.31772614, 
861,534791789,-115.1747513,-5.229941845,67.59048462,0.456673801,-9.278777122,-4.926706314,201.4653473,108.9812622,46.05791855, 
862,534808456,-111.4827347,-5.308578968,65.49959564,0.874184966,-12.97642612,-4.385696411,210.0946808,118.9391785,47.00925064, 
863,534825123,-107.6706543,-5.291719913,63.28230286,1.474604607,-12.89814568,-3.079151154,216.4950714,126.8626099,47.0747757, 
864,534841790,-104.25,-5.037854195,61.09052277,1.098199129,-12.12659931,-2.062682629,193.4352417,124.1351624,52.26460648, 
865,534858457,-101.7229843,-4.484885693,58.94339752,1.017444491,-9.721782684,-1.154229045,140.9513702,120.0149612,62.67237473, 
866,534875124,-100.5323105,-3.495942354,56.87093353,0.200641721,-10.5291748,-1.398479581,62.81977081,112.6151428,83.59169006, 
867,534891791,-100.0192413,-2.381742716,54.87043762,-0.32762593,-10.82817364,-2.195348978,24.68307686,108.3278046,88.55977631, 
868,534908458,-98.99837494,-1.166583061,53.0117836,-0.808345139,-13.35233688,-2.802035809,57.86931229,100.1765747,91.6961441, 
869,534925125,-95.99250031,0.027768135,51.57499695,-1.141070843,-11.59517574,-3.30129385,179.5822754,78.40567017,83.60726166, 
870,534941792,-92.55138397,1.009065747,50.61422729,-1.446826577,-7.360356808,-2.037602186,207.1198273,55.42460632,64.21704102, 
871,534958459,-90.08828735,1.861108303,49.92721558,-1.606488943,-6.663547993,-0.238721281,148.9871826,42.36164474,53.15684128, 
872,534975126,-88.41497803,2.660845518,49.42408752,-1.539463401,-8.597975731,0.537044525,101.7787476,33.09307861,48.59998322, 
873,534991793,-87.42494202,3.348786116,48.87250519,-1.106377244,-10.37883949,1.179452777,61.33284378,36.778759,41.00852966, 
874,535008460,-87.32932281,4.231298447,48.10963821,-1.207525134,-11.39246273,3.122821093,8.96529007,50.24433899,51.74221039, 
875,535025127,-86.55374908,5.101566315,47.35443115,-2.457475424,-13.21494102,2.742793798,50.40433502,49.98599243,50.65129852, 
876,535041794,-84.98363495,5.986235142,46.74614334,-2.249198914,-9.142365456,3.158239126,97.89849854,42.13832855,51.12845612, 
877,535058461,-83.36844635,6.920281887,46.17965698,-1.127206564,-6.671674728,2.388167143,100.8769836,41.17050171,53.14567566, 
878,535075128,-81.68927765,7.705884457,45.5967865,-0.458935529,-7.521113873,1.953588247,105.335968,42.33886337,43.00219727, 
879,535091795,-80.1783905,8.333065987,45.01861191,0.31523481,-8.013964653,0.499905527,95.62926483,41.65442276,32.49198914, 
880,535108462,-78.76609039,8.963480949,44.59380722,0.446608454,-8.714710236,0.161699027,88.72992706,33.53568268,33.30332565, 
881,535125129,-77.51260376,9.749046326,44.28113556,0.9672153,-10.72586727,1.262309909,78.45877838,29.7334671,43.01856232, 
882,535141796,-76.39936829,10.59647179,43.92589569,1.224987984,-10.34244537,2.281305552,70.80121613,33.93221664,45.47791672, 
883,535158463,-75.41902161,11.36994076,43.44842529,0.896268964,-8.809801102,3.504990578,64.55819702,40.67684555,38.83126068, 
884,535175130,-75.05886078,12.10743713,42.82411957,-0.251629978,-6.720948696,3.22563076,29.52338791,48.87649918,34.11037064, 
885,535191797,-75.09116364,12.82287598,42.16875076,-1.167995572,-8.73184967,1.597180724,6.84094429,50.28073883,32.264534, 
886,535208464,-74.98860931,13.48691368,41.63118362,-2.186548948,-9.108908653,0.795550704,13.81011581,42.78132248,31.0653801, 
887,535225131,-74.80808258,14.13087463,41.21525574,-1.999268293,-9.118535042,1.393709183,17.13656425,35.63277435,31.66923714, 
888,535241798,-74.75320435,14.78642941,40.74905396,-2.068296671,-8.882278442,2.18132925,10.6482439,38.64523697,31.52332115, 
889,535258465,-74.98934174,15.34327888,40.20674133,-2.769505978,-6.942663193,1.236588836,-5.326403618,41.23048019,24.74233055, 
890,535275132,-75.6995697,15.79558754,39.62861633,-3.036887884,-6.918992996,0.723480821,-32.91381454,41.34342194,18.50741577, 
891,535291799,-76.320961,16.13901711,39.1190834,-3.52427268,-8.633040428,-0.272019506,-28.48145294,35.61956024,13.61524296, 
892,535308466,-76.82876587,16.34996796,38.71643066,-3.286841631,-7.178273201,0.230765551,-23.2983017,27.61780739,7.666378498, 
893,535325133,-77.43979645,16.4576664,38.36164856,-2.926903963,-6.679071426,0.805680215,-30.23852921,23.43795586,2.505690575, 
894,535341800,-78.05327606,16.48243523,38.02462769,-3.241255283,-7.302772045,0.937899828,-30.67118263,21.32823372,-1.894394875, 
895,535358467,-78.46561432,16.4538002,37.73538589,-3.549916267,-7.165417194,0.675247073,-19.42844009,17.97570229,-4.288594723, 
896,535375134,-78.93612671,16.40741158,37.5198288,-3.64345479,-8.040581703,0.857094407,-24.19320107,13.60983086,-4.373655796, 
897,535391801,-79.4226532,16.33743095,37.39183044,-3.662029266,-7.939774513,0.432399869,-26.6622467,8.398619652,-4.714318275, 
898,535408468,-79.98355103,16.21380997,37.33641052,-3.495484829,-7.565407753,0.625541091,-32.3668251,3.727891684,-7.067896843, 
899,535425135,-80.56193542,16.03708076,37.30835724,-2.78879261,-9.157931328,0.804753065,-33.89485168,1.677485704,-9.917878151, 
900,535441802,-81.08918762,15.89229679,37.29299164,-2.54546237,-10.78251839,0.197804421,-31.04137611,1.366109371,-7.895558834, 
901,535458469,-81.53885651,15.77586269,37.38421631,-2.9537642,-10.60182667,-0.933752537,-28.12074089,-4.35214138,-5.27317667, 
902,535475136,-82.02082062,15.57611465,37.68717575,-2.746540546,-10.33617973,-1.584558249,-33.4519043,-17.09105301,-8.508320808, 
903,535491803,-82.72062683,15.23168278,38.22454071,-2.036790133,-9.938459396,-1.628175378,-50.14815903,-31.5646534,-15.48813343, 
904,535508470,-83.64974976,14.78355885,38.97779846,-1.461987257,-9.108884811,-0.477967024,-67.01369476,-44.48449326,-20.62267303, 
905,535525137,-84.93023682,14.23479366,39.91925812,-1.402525187,-8.340058327,0.544795334,-90.53186035,-55.59198761,-26.39096069, 
906,535541804,-86.77013397,13.56442261,40.99441528,-1.427574873,-6.135957241,0.302160263,-125.4468918,-63.26002502,-34.60879898, 
907,535558471,-89.16573334,12.82693577,42.22297668,-2.123078346,-5.465028763,-0.849091053,-160.1311188,-71.19337463,-40.64591217, 
908,535575138,-91.69280243,12.04195976,43.64870834,-2.695607901,-6.504120827,-1.697234273,-169.6240692,-81.11764526,-46.63776016, 
909,535591805,-93.92223358,11.1395483,45.27306366,-3.473775864,-4.709961414,-1.545277834,-152.9407654,-90.68001556,-57.62561798, 
910,535608472,-96.79956818,10.09282684,47.0862236,-4.555409431,-2.726922512,-1.343729973,-192.2911224,-98.63217926,-71.3618927, 
911,535625139,-100.5304947,8.883302689,49.12989807,-5.263370037,-2.940091133,-2.109562159,-243.7056274,-106.8013153,-88.80007172, 
912,535641806,-104.7648315,7.577886581,51.43078995,-3.614096642,-6.105759621,-3.708665371,-273.4857483,-114.4760666,-105.1748199, 
913,535658473,-108.6001816,6.338468552,53.82613373,-1.531456232,-10.63530159,-5.005445957,-247.2157745,-113.6607819,-110.9750595, 
914,535675140,-111.2555771,5.227660656,56.11195374,0.347550064,-14.81061077,-4.527122021,-172.8506317,-103.8871307,-107.8684845, 
915,535691807,-113.5356216,4.137257576,57.99795914,3.670222044,-13.50918007,-3.460009813,-145.7884979,-77.67677307,-102.1028595, 
916,535708474,-116.3554535,3.231545687,59.17868423,5.441522121,-14.67362595,-1.383355379,-173.5267181,-39.48929214,-77.62509918, 
917,535725141,-118.7149429,2.503362656,59.58852386,5.364432335,-19.96183014,-1.739151239,-142.649292,0.07798411,-48.52511597, 
918,535741808,-119.6636429,2.062460899,59.23537445,5.296724319,-22.62947655,-3.088683605,-56.01644516,32.92279053,-11.17713833, 
919,535758475,-119.4828644,1.885221481,58.36559296,4.068123817,-18.79780197,-3.300326586,12.61607361,52.03365326,18.06725883, 
920,535775142,-118.8272858,1.947484136,57.36506653,1.256723404,-12.92494297,-2.609549046,41.24954224,51.92789841,34.04561615, 
921,535791809,-117.8438644,2.10746026,56.68831635,0.562474906,-7.802576065,-5.511410713,60.30426025,32.44651031,29.20664406, 
922,535808476,-117.3050156,2.121107817,56.30949783,-0.287555754,-4.067980289,-5.106933117,33.04476166,21.10045433,12.77013206, 
923,535825143,-117.1802826,2.115761042,56.07210541,-0.465124816,-6.155408859,-4.230871201,7.906764507,14.20580578,7.794055939, 
924,535841810,-117.250679,2.069262743,55.82275772,-1.1670717,-7.283490658,-3.103100538,-3.776525974,15.99095821,5.9270401, 
925,535858477,-117.4668503,2.061599731,55.4840126,-0.485282719,-8.747716904,-4.407729626,-12.35109234,19.6294117,10.46343803, 
926,535875144,-117.4387512,2.087205648,55.01265717,-0.997511089,-9.509284973,-5.804864407,2.587557077,25.73370171,15.92021465, 
927,535891811,-117.029007,2.193304539,54.54250717,-0.989891469,-7.966900349,-5.615898132,25.51832008,23.51899147,20.08088875, 
928,535908478,-116.7916565,2.34863925,54.16511536,-0.825877607,-5.111402035,-3.431471109,15.02742863,17.34054375,20.06807709, 
929,535925145,-117.6022415,2.459907055,53.82417679,0.644148827,-4.253705502,-4.1059618,-47.88401794,16.50374794,16.79473686, 
930,535941812,-118.9415741,2.563362837,53.29110336,1.63401401,-9.046411514,-5.7445364,-79.04862213,26.61264992,22.18186951, 
931,535958479,-119.6919937,2.60266614,52.56784439,1.562970161,-11.58725357,-5.010072231,-43.15345001,38.09254456,24.94165039, 
932,535975146,-119.6314774,2.601907253,51.75919342,1.376637459,-9.099382401,-3.686672926,5.733967304,43.59203339,25.64238739, 
933,535991813,-119.6890411,2.646655798,50.88534546,1.681787014,-5.105318546,-3.902745485,-1.168367505,45.64292145,29.96923065, 
934,536008480,-120.818573,2.782107115,50.0150032,1.195806265,-5.837464333,-5.165429592,-65.40629578,42.4643631,35.09187698, 
935,536025147,-122.3243713,2.992619753,49.27956772,0.360138625,-9.451804161,-6.977345467,-88.21961212,32.46806717,35.7153244, 
