PacketCounter,SampleTimeFine,Euler_X,Euler_Y,Euler_Z,Acc_X,Acc_Y,Acc_Z,Gyr_X,Gyr_Y,Gyr_Z,
0,530134212,-162.4031372,-57.3643074,-173.4975281,0,0,0,0,0,0, 
1,530150879,-162.3145447,-57.38488007,-173.5703735,8.205289841,-1.597129583,-4.979720116,2.418664694,1.10641098,0.313006401, 
2,530167546,-162.230072,-57.4160881,-173.6417389,8.19487381,-1.596984625,-5.017226696,2.390798092,0.983405948,0.265622884, 
3,530184213,-162.1733704,-57.42523956,-173.6479645,8.209806442,-1.605342388,-4.99379015,2.2030828,0.978603661,0.300737917, 
4,530200880,-162.1131897,-57.43928146,-173.6596832,8.208438873,-1.59751904,-4.993965149,2.475281477,1.078428984,0.260602802, 
5,530217547,-162.0651398,-57.45332718,-173.6730499,8.209897041,-1.59064877,-5.027142525,2.286785126,1.016933084,0.225308523, 
6,530234214,-162.0305023,-57.46097565,-173.6981659,8.209300995,-1.607974291,-4.989807606,2.343427658,0.91089654,0.11832428, 
7,530250881,-161.9897156,-57.4716835,-173.7402954,8.20249939,-1.599248886,-4.996378899,2.420457602,0.98389262,0.1468696, 
8,530267548,-161.9529419,-57.48123932,-173.7656555,8.193784714,-1.570994139,-5.012619495,2.222855806,0.9259184,0.185301483, 
9,530284215,-161.921814,-57.48848724,-173.7747192,8.189561844,-1.574028969,-5.004724026,2.402374983,0.831432998,0.143335059, 
10,530300882,-161.8966064,-57.49458694,-173.7655792,8.204395294,-1.574986696,-5.015584469,2.231038809,0.77581507,0.155577928, 
11,530317549,-161.8680725,-57.50269318,-173.7460327,8.198173523,-1.58044517,-5.003404617,2.539377213,0.895106196,0.104787953, 
12,530334216,-161.838562,-57.50931931,-173.7556152,8.21773243,-1.597542644,-5.012726307,2.47275877,0.815271378,0.197685197, 
13,530350883,-161.8049164,-57.51849747,-173.770401,8.250964165,-1.591552138,-5.00483799,2.424338102,0.990283072,0.271244913, 
14,530367550,-161.7662201,-57.52968597,-173.8171387,8.225719452,-1.585621595,-4.996063709,2.441332579,1.078659654,0.394531667, 
15,530384217,-161.7270203,-57.54478836,-173.8272705,8.232904434,-1.579419017,-5.024320602,2.372677088,1.27770865,0.369405538, 
16,530400884,-161.6851044,-57.55891418,-173.8750153,8.189691544,-1.601269603,-5.020190239,2.698189497,1.20250988,0.304362118, 
17,530417551,-161.6471558,-57.57236862,-173.9028473,8.199542046,-1.59745121,-4.994888783,2.527122021,1.19225204,0.22363089, 
18,530434218,-161.6097565,-57.58538818,-173.9418945,8.192772865,-1.588393927,-4.972030163,2.31047678,1.189754605,0.310688436, 
19,530450885,-161.5638733,-57.5977478,-173.9874268,8.167136192,-1.571494102,-5.007920265,2.83505106,1.11793685,0.297305852, 
20,530467552,-161.5350342,-57.60623169,-173.9918213,8.202240944,-1.576409817,-4.985821724,2.076120853,0.881941378,0.224514544, 
21,530484219,-161.5015259,-57.61359024,-174.0466309,8.238166809,-1.590446949,-4.991589069,2.434288502,0.784766734,0.204408541, 
22,530500886,-161.4684601,-57.62232971,-174.1079712,8.243862152,-1.584263444,-5.002645969,2.335129261,0.848042965,0.214999422, 
23,530517553,-161.4309082,-57.62907791,-174.1021881,8.244168282,-1.592636824,-5.018620968,2.510095358,0.738093972,0.310054511, 
24,530534220,-161.3969574,-57.63647842,-174.1039734,8.233047485,-1.602725506,-5.00026989,2.370212078,0.759788036,0.246214896, 
25,530550887,-161.3586426,-57.64461136,-174.1880035,8.212971687,-1.593124986,-4.97820282,2.397752047,0.837810576,0.354575813, 
26,530567554,-161.3151093,-57.65370941,-174.156311,8.192336082,-1.59269011,-5.003611565,2.62887454,0.893524587,0.373817354, 
27,530584221,-161.2786407,-57.66004181,-174.1809082,8.174171448,-1.584228873,-5.012147427,2.303369284,0.72898227,0.359403819, 
28,530600888,-161.2414246,-57.66598892,-174.1771851,8.192510605,-1.602418303,-5.019924164,2.341045618,0.729020715,0.36776638, 
29,530617555,-161.2027435,-57.67394638,-174.1772308,8.179643631,-1.602760911,-4.995007515,2.466105461,0.848561525,0.294059366, 
30,530634222,-161.1668091,-57.68244553,-174.1781921,8.205786705,-1.610502124,-5.022597313,2.414079905,0.859081924,0.202705309, 
31,530650889,-161.1322632,-57.69144058,-174.2255402,8.207555771,-1.600613952,-4.990654469,2.318288803,0.89592576,0.188733578, 
32,530667556,-161.0931091,-57.69896698,-174.2374115,8.226247787,-1.608828902,-4.996172428,2.457897186,0.834717929,0.294238687, 
33,530684223,-161.0554199,-57.70803833,-174.188446,8.229305267,-1.601227403,-4.996854782,2.414874077,0.904467642,0.22922723, 
34,530700890,-161.0203247,-57.71891785,-174.2101288,8.216876984,-1.602365732,-4.996483803,2.434519053,0.96329999,0.087576218, 
35,530717557,-160.9815674,-57.72619247,-174.3806,8.183162689,-1.579215527,-4.976960182,2.521230698,0.782333493,0.235476747, 
36,530734224,-160.9454498,-57.7306366,-174.4626923,8.191596031,-1.590360165,-4.998696327,2.341122389,0.624559283,0.308780313, 
37,530750891,-160.9080505,-57.73627853,-174.4911499,8.213527679,-1.592862129,-5.002302647,2.363322258,0.704989552,0.319287926, 
38,530767558,-160.8708954,-57.73994064,-174.6026154,8.237333298,-1.58835113,-5.005039215,2.263535261,0.610542774,0.40941906, 
39,530784225,-160.8326721,-57.74618149,-174.6873016,8.227902412,-1.601276278,-4.994103432,2.379746675,0.744529188,0.335174233, 
40,530800892,-160.7904816,-57.7533226,-174.6871338,8.214416504,-1.601593494,-5.004119873,2.562576294,0.802638054,0.348460793, 
41,530817559,-160.7533417,-57.75959778,-174.6989136,8.174972534,-1.60178268,-4.989830494,2.292829752,0.746462941,0.344484389, 
42,530834226,-160.7115784,-57.76646042,-174.7391205,8.182529449,-1.600216627,-5.000691891,2.540452957,0.787878633,0.346930385, 
43,530850893,-160.674881,-57.7743454,-174.8823395,8.191791534,-1.577641964,-4.993015766,2.35499835,0.826957285,0.255858064, 
44,530867560,-160.6422424,-57.77891922,-174.8073425,8.213586807,-1.599760056,-4.972668648,2.194662571,0.6243608,0.280292571, 
45,530884227,-160.6082764,-57.78409958,-174.8323669,8.236741066,-1.606612444,-5.001792431,2.181382418,0.671821177,0.322886497, 
46,530900894,-160.5734406,-57.79079819,-174.8787537,8.227358818,-1.591422796,-4.976930618,2.158548832,0.772094905,0.336627722, 
47,530917561,-160.5329285,-57.79629517,-174.8420563,8.219376564,-1.603724122,-4.999630928,2.530521631,0.693643093,0.345271975, 
48,530934228,-160.5041809,-57.80273819,-174.9149017,8.207193375,-1.61709404,-4.983086586,1.995197296,0.711501539,0.227549627, 
49,530950895,-160.4669647,-57.80844116,-174.8589172,8.189322472,-1.612922072,-5.008232594,2.472060919,0.674997091,0.256754488, 
50,530967562,-160.4360352,-57.81391907,-174.9306793,8.204263687,-1.590118289,-5.021870613,2.139377594,0.658899486,0.234330609, 
51,530984229,-160.4095154,-57.8202858,-174.8161163,8.224247932,-1.585858583,-5.009339333,2.228567362,0.641489267,0.012274887, 
52,531000896,-160.3769226,-57.82587051,-174.9593964,8.201290131,-1.588247657,-5.004410744,2.570112705,0.605336964,0.046442222, 
53,531017563,-160.3468475,-57.83035278,-174.9370117,8.223279953,-1.585987449,-5.007269859,2.237954617,0.585717678,0.183047563, 
54,531034230,-160.311615,-57.83786392,-174.9305115,8.230586052,-1.609294176,-5.007306576,2.421898127,0.784068763,0.20016323, 
55,531050897,-160.2752228,-57.84846497,-174.9425049,8.224648476,-1.594295382,-5.012266636,2.36816287,0.986934066,0.213801995, 
56,531067564,-160.2393951,-57.85905075,-174.9382782,8.201334953,-1.589956164,-5.013261318,2.445621967,0.966680825,0.152453184, 
57,531084231,-160.2023773,-57.87023926,-174.9301605,8.169733047,-1.568722963,-5.003067493,2.438962936,1.022401333,0.189809307, 
58,531100898,-160.1685333,-57.8802948,-174.9934235,8.159040451,-1.600927711,-4.995783329,2.396580458,0.935234845,0.133109197, 
59,531117565,-160.1351318,-57.88965225,-175.0175934,8.188100815,-1.584409833,-5.013305664,2.281246424,0.919790447,0.203044683, 
60,531134232,-160.1004791,-57.89691925,-175.0244293,8.245959282,-1.588481545,-4.999880314,2.415309429,0.795946598,0.215806171, 
61,531150899,-160.0641327,-57.90400314,-175.0960236,8.258280754,-1.58047235,-5.011878967,2.41892767,0.806467116,0.284467459, 
62,531167566,-160.0276947,-57.91168594,-175.1634827,8.241557121,-1.582442522,-4.990184307,2.342473507,0.860125601,0.328559726, 
63,531184233,-159.9877625,-57.919384,-175.1826019,8.213125229,-1.609244347,-4.977186203,2.546536207,0.863154411,0.340002179, 
64,531200900,-159.9511414,-57.92346954,-175.25383,8.202467918,-1.588470817,-4.986609936,2.338798046,0.661409616,0.420803815, 
65,531217567,-159.9076233,-57.92880249,-175.2805786,8.182663918,-1.593269467,-5.009806156,2.633792162,0.761042893,0.470979154, 
66,531234234,-159.8727112,-57.93280411,-175.3323669,8.184641838,-1.573566794,-5.010745525,2.232134104,0.667812765,0.436145902, 
67,531250901,-159.840683,-57.93787766,-175.254425,8.186533928,-1.592084885,-5.021140575,2.260423422,0.694911003,0.304560632, 
68,531267568,-159.8083191,-57.9426384,-175.2942657,8.22040081,-1.604767442,-5.023910046,2.319511652,0.675637424,0.294072211, 
69,531284235,-159.7772675,-57.94949722,-175.2981262,8.232017517,-1.634011388,-5.010440826,2.257990122,0.796811104,0.246266127, 
70,531300902,-159.7409058,-57.95967484,-175.3564148,8.220629692,-1.604210734,-5.011901855,2.541855335,0.995719314,0.198728919, 
71,531317569,-159.7080231,-57.96867752,-175.3847656,8.194588661,-1.604747415,-5.008916378,2.376858473,0.925770998,0.203095898, 
72,531334236,-159.6738739,-57.97908783,-175.3846893,8.192967415,-1.595121861,-4.993502617,2.424754143,1.017310858,0.196270108, 
73,531350903,-159.6413116,-57.98812866,-175.3950195,8.197502136,-1.591088891,-5.013406277,2.527704716,0.902565956,0.114962608, 
74,531367570,-159.6138458,-57.99608612,-175.4437714,8.194389343,-1.583439946,-5.019121647,2.211541653,0.85199368,0.151832089, 
75,531384237,-159.5870819,-58.00280762,-175.4598389,8.216975212,-1.588540792,-4.991877556,2.301096201,0.76286149,0.109161332, 
76,531400904,-159.5541077,-58.01100922,-175.4692688,8.244646072,-1.613949895,-4.990607262,2.396145105,0.910685122,0.248763338, 
77,531417571,-159.5182343,-58.02023697,-175.4714355,8.210785866,-1.60022974,-4.970718384,2.539806604,0.978417993,0.252425969, 
78,531434238,-159.4837341,-58.02813339,-175.4883423,8.202853203,-1.564125419,-4.999979019,2.541368723,0.888658226,0.23773706, 
79,531450905,-159.4510498,-58.03628922,-175.5256805,8.183781624,-1.578104138,-4.989019871,2.341692209,0.930253327,0.295211971, 
80,531467572,-159.4151306,-58.04332352,-175.5341187,8.173428535,-1.601011992,-5.014527321,2.611342669,0.857039273,0.28695187, 
81,531484239,-159.3861847,-58.04933548,-175.535675,8.192863464,-1.576650858,-5.004370213,2.247975588,0.799807787,0.281547606, 
82,531500906,-159.3577118,-58.05495453,-175.5260315,8.207028389,-1.58925724,-4.977824688,2.358404636,0.754204392,0.220089927, 
83,531517573,-159.3244171,-58.06141663,-175.5319672,8.226686478,-1.594404817,-4.988042831,2.564061642,0.825215578,0.258713841, 
84,531534240,-159.2949371,-58.06701279,-175.5483704,8.219417572,-1.602095842,-4.983115673,2.27299881,0.796183586,0.325345308, 
85,531550907,-159.2633209,-58.07067871,-175.5319214,8.235312462,-1.602617383,-4.994875908,2.355548859,0.703888237,0.399583727, 
86,531567574,-159.2307739,-58.07595062,-175.5339813,8.222673416,-1.568285465,-4.98910141,2.246169806,0.836818218,0.470556557, 
87,531584241,-159.2033997,-58.07998276,-175.541626,8.190134048,-1.579907537,-5.006721497,2.364475012,0.679812372,0.259431064, 
88,531600908,-159.1832123,-58.08481598,-175.5592804,8.187387466,-1.598608136,-5.008705616,2.017524958,0.715401113,0.205221742, 
89,531617575,-159.1602173,-58.08872604,-175.5617676,8.184215546,-1.612216115,-4.989878654,2.336953878,0.63945955,0.146453425, 
90,531634242,-159.1370239,-58.09194946,-175.5683899,8.174941063,-1.594125867,-5.019197941,2.327477217,0.615191519,0.181568429, 
91,531650909,-159.1195068,-58.09540558,-175.5588531,8.192900658,-1.584922075,-5.003477097,2.10185504,0.612374127,0.120021112, 
92,531667576,-159.0990906,-58.09957123,-175.5486755,8.208981514,-1.597785473,-4.987078667,2.365909338,0.642366529,0.062238865, 
93,531684243,-159.0841064,-58.10165405,-175.5445251,8.224305153,-1.578383207,-5.010537148,2.321471214,0.470018685,-0.0457763, 
94,531700910,-159.0672455,-58.10667419,-175.5361481,8.21871376,-1.597405791,-5.01280117,2.375654697,0.65629977,-0.062001944, 
95,531717577,-159.0431519,-58.1138916,-175.5393677,8.212010384,-1.598439813,-5.024774075,2.467181444,0.866477609,0.100145645, 
96,531734244,-159.0281372,-58.11800003,-175.5245514,8.179596901,-1.575039864,-4.996194839,2.375821352,0.600502551,-0.085456774, 
97,531750911,-159.0115509,-58.12320328,-175.5046844,8.188792229,-1.598940372,-4.995473862,2.488708973,0.666647315,-0.106862582, 
98,531767578,-158.9948273,-58.12986374,-175.487915,8.195775986,-1.598774076,-5.006417751,2.401805162,0.780444503,-0.074142359, 
99,531784245,-158.9832153,-58.13322449,-175.4745789,8.22141552,-1.616858006,-5.003935337,2.180947065,0.584725201,-0.041294079, 
100,531800912,-158.9627228,-58.13942337,-175.4894257,8.226816177,-1.590713263,-4.989589214,2.291043282,0.847101569,0.152574867, 
101,531817579,-158.9497528,-58.14212799,-175.4836731,8.20370388,-1.544476628,-4.996349812,2.192370415,0.579115987,0.033770345, 
102,531834246,-158.9341125,-58.14192963,-175.4803162,8.198851585,-1.560620666,-5.032941818,2.354908705,0.427168638,0.111850664, 
103,531850913,-158.9200745,-58.14253998,-175.475708,8.244796753,-1.606441855,-4.986118793,2.277378798,0.479418546,0.097481936, 
104,531867580,-158.8978577,-58.14363098,-175.4727936,8.283395767,-1.612706184,-4.998171329,2.48317647,0.57747668,0.263003975, 
105,531884247,-158.8803558,-58.14311218,-175.4610596,8.226285934,-1.590775371,-5.023096085,2.239792109,0.485732049,0.287067145, 
106,531900914,-158.8599091,-58.14414597,-175.4622955,8.165557861,-1.579155207,-5.018121719,2.383786917,0.589258552,0.283417344, 
107,531917581,-158.8428802,-58.14260864,-175.4573212,8.162780762,-1.57571888,-5.022805214,2.275650024,0.435121357,0.296044379, 
108,531934248,-158.8262482,-58.14201355,-175.462616,8.171710968,-1.618623018,-5.033897877,2.15557766,0.523574829,0.345259219, 
109,531950915,-158.8028717,-58.14504623,-175.4673157,8.223544121,-1.584920287,-5.016577721,2.326401234,0.790395081,0.410251409, 
110,531967582,-158.7752075,-58.14746475,-175.4747009,8.228802681,-1.55036664,-5.025549889,2.430747509,0.801088274,0.526891649, 
111,531984249,-158.7442169,-58.15429306,-175.4857788,8.260246277,-1.568783879,-5.028594017,2.306782007,1.132247567,0.633696556, 
112,532000916,-158.7060242,-58.16440964,-175.4733887,8.252905846,-1.622542024,-5.045534134,2.648980856,1.343168616,0.629188836, 
113,532017583,-158.6577148,-58.17830276,-175.5019379,8.265404701,-1.599158406,-5.021636963,2.738381624,1.68329215,0.85642451, 
114,532034250,-158.5917664,-58.20255661,-175.5513153,8.214781761,-1.581386685,-5.040955067,2.894196987,2.476825237,1.163841248, 
115,532050917,-158.5209198,-58.22699356,-175.6056061,8.230185509,-1.564384699,-5.035912991,2.697132826,2.610126495,1.454238057, 
116,532067584,-158.4407043,-58.25183487,-175.657959,8.202629089,-1.532555819,-5.031582832,2.617131233,2.792360544,1.827094793, 
117,532084251,-158.3491058,-58.27441025,-175.7189789,8.186563492,-1.570246577,-5.03298521,3.15446043,2.713076591,1.975494742, 
118,532100918,-158.2609863,-58.30119705,-175.8258057,8.258706093,-1.587526202,-5.001646519,2.689986467,3.02259326,2.039872408, 
119,532117585,-158.1562653,-58.32773209,-175.9289703,8.304852486,-1.636282563,-4.993717194,3.422125816,3.081464291,2.206547022, 
120,532134252,-158.0557861,-58.35983658,-176.0087891,8.30124855,-1.654238224,-4.96284008,2.960009098,3.446919203,2.208019733, 
121,532150919,-157.9537048,-58.39186859,-176.073822,8.297413826,-1.650439978,-4.935072422,3.096614122,3.442154884,2.191679001, 
122,532167586,-157.8503571,-58.42459869,-176.1464081,8.161664009,-1.665498495,-4.967278957,3.445024014,3.426070213,2.023633957, 
123,532184253,-157.7681122,-58.45212936,-176.1822815,8.109302521,-1.621071577,-4.934492111,2.964568138,2.968601704,1.697289824, 
124,532200920,-157.6881714,-58.47348785,-176.2623291,8.084623337,-1.611426711,-4.936600685,3.572561979,2.468821049,1.422926426, 
125,532217587,-157.6319275,-58.48931503,-176.3078156,8.09171772,-1.642596722,-4.935835361,2.595411777,2.070287466,1.307092905, 
126,532234254,-157.5859985,-58.49919891,-176.3553772,8.123710632,-1.641267419,-4.920770168,2.552881718,1.623383999,1.126395226, 
127,532250921,-157.5486755,-58.50485229,-176.3850098,8.16112709,-1.625425458,-4.910314083,2.487595081,1.297129512,0.98010844, 
128,532267588,-157.5264282,-58.50608826,-176.4047394,8.2153368,-1.65356636,-4.909591198,2.259181023,0.904064238,0.710752368, 
129,532284255,-157.5066986,-58.50600052,-176.3853455,8.259147644,-1.67209363,-4.909190178,2.480397701,0.754242778,0.543949664, 
130,532300922,-157.4911041,-58.50748444,-176.3894806,8.298599243,-1.6999681,-4.938206673,2.361413956,0.817045033,0.445135891, 
131,532317589,-157.4747162,-58.50873184,-176.3896179,8.31717205,-1.688206911,-4.935036182,2.380508184,0.819337368,0.479059935, 
132,532334256,-157.4590454,-58.51390457,-176.3973083,8.246239662,-1.680043697,-4.957697392,2.283307791,1.056613445,0.429729849, 
133,532350923,-157.4447632,-58.52024841,-176.353302,8.185202599,-1.655568361,-4.964802265,2.338925838,1.101794243,0.336755753, 
134,532367590,-157.4325256,-58.52711868,-176.3370056,8.128456116,-1.629161358,-4.960764885,2.315669298,1.120542645,0.278755784, 
135,532384257,-157.427124,-58.53282166,-176.3206177,8.147751808,-1.637272716,-4.969851017,2.386348248,0.958568156,0.048408002, 
136,532400924,-157.4212189,-58.53803635,-176.3019867,8.237689972,-1.652002215,-4.943574905,2.589379787,0.905716419,-0.025311749, 
137,532417591,-157.4124146,-58.54683685,-176.2904968,8.30945015,-1.669067264,-4.959640026,2.479859829,1.181974769,0.065530092, 
138,532434258,-157.4038086,-58.55996704,-176.2579651,8.324638367,-1.688961387,-4.947315216,2.424267769,1.444505095,0.003739454, 
139,532450925,-157.3749847,-58.57833099,-176.278656,8.382844925,-1.68122673,-4.960320473,3.00813508,1.887054086,0.249057919, 
140,532467592,-157.3492889,-58.60281754,-176.2885132,8.337555885,-1.662334085,-4.975752354,2.361567497,2.340641975,0.379131973, 
141,532484259,-157.3123474,-58.6277771,-176.2468719,8.261773109,-1.649611354,-4.937977314,2.816103697,2.42784071,0.505159318, 
142,532500926,-157.277832,-58.65087509,-176.3280487,8.231820107,-1.62648654,-4.938968182,2.582707882,2.358737469,0.607046604, 
143,532517593,-157.2397003,-58.66987228,-176.3564911,8.238069534,-1.641979337,-4.949633598,2.826668978,2.133422613,0.702915013, 
144,532534260,-157.2028503,-58.68489838,-176.3704834,8.376766205,-1.643137336,-4.952630997,2.697273731,1.93962431,0.837356091, 
145,532550927,-157.1608582,-58.70399475,-176.3623352,8.454001427,-1.697931409,-4.931241989,2.663080454,2.252047777,0.94910419, 
146,532567594,-157.1228638,-58.72828293,-176.4036865,8.462574959,-1.708363175,-4.886264324,2.087575912,2.625813723,1.026083112, 
147,532584261,-157.0486603,-58.75721359,-176.5110168,8.398808479,-1.745045781,-4.920261383,3.85231638,2.978680134,1.15391624, 
148,532600928,-157.0115814,-58.78361893,-176.5284119,8.354476929,-1.69567585,-4.869343281,1.683484197,2.829921246,1.188045025, 
149,532617595,-156.9424744,-58.80921173,-176.5636902,8.306987762,-1.731595516,-4.845923901,3.474324465,2.820073605,1.287998915, 
150,532634262,-156.8853149,-58.83724594,-176.604538,8.253099442,-1.68169558,-4.878527641,2.668971062,2.981292486,1.284784198, 
151,532650929,-156.8170929,-58.87008286,-176.6601563,8.190355301,-1.675727129,-4.872524738,3.375458956,3.247292995,1.154966354, 
152,532667596,-156.7640076,-58.90148926,-176.6949615,8.112998009,-1.609976888,-4.899960041,2.945140123,3.064392805,0.93073988, 
153,532684263,-156.7118378,-58.93388367,-176.7422791,8.048549652,-1.655363321,-4.85697794,3.571243048,2.973954916,0.541542113, 
154,532700930,-156.6603546,-58.96212769,-176.7387085,8.085523605,-1.652879357,-4.91907835,4.182861805,2.601174831,0.288053215, 
155,532717597,-156.6347504,-58.98829269,-176.7392731,8.203138351,-1.677364349,-4.890130997,2.738804817,2.479809046,0.287361711, 
156,532734264,-156.5797424,-59.01951599,-176.7660217,8.315152168,-1.703375101,-4.909073353,3.951988459,2.905440569,0.480865598, 
157,532750931,-156.5357361,-59.05606461,-176.7656097,8.314371109,-1.64083457,-4.920146465,2.936380863,3.289490461,0.559509456, 
158,532767598,-156.4810486,-59.09381485,-176.7871246,8.288150787,-1.687065363,-4.834400177,3.323990822,3.432153225,0.68041414, 
159,532784265,-156.4232941,-59.12990952,-176.8271179,8.272249222,-1.637283802,-4.838170052,3.292832851,3.398741484,0.844988644, 
160,532800932,-156.3584747,-59.1652832,-176.8562775,8.25316143,-1.691289544,-4.862615108,3.452604532,3.430398703,1.018668294, 
161,532817599,-156.2936096,-59.19654846,-176.8948669,8.266993523,-1.647414327,-4.81515646,3.013283253,3.31891942,1.366386414, 
162,532834266,-156.208313,-59.22648239,-176.9296722,8.229290962,-1.65187192,-4.828884602,3.739121437,3.379147768,1.681230545, 
163,532850933,-156.1343384,-59.25185013,-176.9912262,8.21387291,-1.659404755,-4.849346161,2.945192099,3.165922403,1.860519648, 
164,532867600,-156.0622406,-59.27180099,-177.0426788,8.228474617,-1.687557697,-4.780486107,2.838309765,2.879994631,1.999621749, 
165,532884267,-155.9931183,-59.28703308,-177.076416,8.273101807,-1.687949777,-4.805004597,2.977527618,2.556416512,1.94755125, 
166,532900934,-155.930191,-59.29669189,-177.0589294,8.360239983,-1.716615915,-4.767888546,2.807868719,2.20930028,1.98591888, 
167,532917601,-155.8660583,-59.30896378,-177.0722504,8.32006073,-1.737348437,-4.748123646,2.912471056,2.352129459,1.911360383, 
168,532934268,-155.7996826,-59.31811142,-177.1005859,8.292057991,-1.752179146,-4.746100426,3.153435946,2.160789967,1.935346961, 
169,532950935,-155.7504425,-59.32526779,-177.1568451,8.259290695,-1.777969241,-4.762884617,2.451737404,1.979183078,1.81378901, 
170,532967602,-155.7062836,-59.32997513,-177.175293,8.29323101,-1.77827549,-4.76872921,2.498249769,1.766149282,1.690873504, 
171,532984269,-155.6673889,-59.33253479,-177.1920624,8.316350937,-1.773500681,-4.795200825,2.701499462,1.531255245,1.46614778, 
172,533000936,-155.6464233,-59.33442688,-177.2166595,8.347149849,-1.727506042,-4.75911808,2.190936089,1.36323595,1.183754921, 
173,533017603,-155.6138306,-59.33768463,-177.2022095,8.312303543,-1.768483996,-4.761665344,3.165127993,1.374620795,1.012892604, 
174,533034270,-155.5962677,-59.34045792,-177.206192,8.390407562,-1.784999251,-4.794931889,2.46958971,1.303673625,0.919162989, 
175,533050937,-155.5744476,-59.34652328,-177.1940308,8.496382713,-1.825541496,-4.75995636,2.537834406,1.536377907,0.947324216, 
176,533067604,-155.5358887,-59.36366653,-177.2074585,8.58044529,-1.827745438,-4.807056427,2.983290672,2.276661634,0.97788012, 
177,533084271,-155.4939423,-59.39127731,-177.2065125,8.62018013,-1.818435669,-4.81817627,2.655691385,2.981523037,1.009332418, 
178,533100938,-155.4438782,-59.42687988,-177.2789764,8.574203491,-1.833201885,-4.781351089,2.955756903,3.464003086,0.913669109, 
179,533117605,-155.3768158,-59.46907806,-177.305069,8.550801277,-1.849598169,-4.779370308,4.032501698,3.80845499,0.724173605, 
180,533134272,-155.2844543,-59.52536011,-177.336792,8.570885658,-1.843170762,-4.771949768,5.460832596,4.59844017,0.420547754, 
181,533150939,-155.1887512,-59.58743286,-177.3600159,8.500523567,-1.830168843,-4.754527092,5.158500671,5.035866737,0.541478157, 
182,533167606,-155.060257,-59.65382004,-177.4103394,8.413985252,-1.830002546,-4.73839283,6.416110516,5.450447559,0.80427736, 
183,533184273,-154.9174042,-59.72634506,-177.4215393,8.418829918,-1.813346505,-4.819849968,7.231812,5.795259953,0.665123641, 
184,533200940,-154.7914734,-59.79829407,-177.3821106,8.474575043,-1.784351945,-4.781036377,6.748281002,5.638239384,0.392732382, 
185,533217607,-154.6860657,-59.86926651,-177.3733215,8.537804604,-1.851424217,-4.654497623,6.2519207,5.411734581,0.025049226, 
186,533234274,-154.5420685,-59.95066071,-177.3557892,8.402088165,-1.872570157,-4.650025845,8.979893684,5.870715141,-0.466157705, 
187,533250941,-154.374176,-60.03726959,-177.3365784,7.860055923,-1.900446892,-4.849643707,12.08575726,5.740488529,-1.486478686, 
188,533267608,-154.2785339,-60.08798218,-177.2644958,7.25073576,-1.892436028,-4.841690063,9.810064316,3.308764696,-1.637042522, 
189,533284275,-154.2698669,-60.10463333,-177.1755371,7.007938385,-1.792467713,-4.508821011,5.791890144,1.21209538,-1.384795427, 
190,533300942,-154.189743,-60.08737564,-177.008728,7.075948238,-1.695392966,-4.425076008,10.20396233,-0.621370733,-0.572796166, 
191,533317609,-154.1121521,-60.0444603,-176.9051208,7.270258904,-1.40636456,-4.711730003,10.59799957,-2.115359783,-0.191448569, 
192,533334276,-154.1799927,-59.97052383,-176.7453766,7.713087082,-1.279871225,-4.6541605,4.008810043,-4.289044857,-0.476838082, 
193,533350943,-154.1944122,-59.89336395,-176.549469,8.31097126,-1.29527235,-4.67309761,8.458917618,-4.757887363,-1.024847865, 
194,533367610,-154.2506714,-59.81327057,-176.3434906,8.82191658,-1.22101295,-4.822806835,7.521965504,-5.307087421,-1.754758596, 
195,533384277,-154.3561859,-59.75188828,-176.1393585,9.133332253,-1.565046191,-4.667892933,4.840685844,-4.361773491,-2.362778425, 
196,533400944,-154.3322449,-59.70471954,-175.9780426,9.139392853,-2.015700102,-4.646922588,9.557151794,-2.838662863,-1.112904191, 
197,533417611,-154.2640991,-59.66890717,-175.9224396,8.993673325,-2.130601168,-4.70806551,7.768320084,-1.119473577,0.927730501, 
198,533434278,-154.1295624,-59.64717484,-176.0581207,8.629216194,-2.098180771,-4.567307949,7.329945564,0.758494616,2.879149675, 
199,533450945,-153.9499817,-59.61979294,-176.1564941,8.227416992,-1.88943398,-4.567873001,7.863907814,1.000778079,4.17211771, 
200,533467612,-153.8037109,-59.58467102,-176.2302246,8.006541252,-1.793748379,-4.665864468,5.096595764,0.786502242,4.790575027, 
201,533484279,-153.6697083,-59.53798676,-176.3266907,7.87584734,-1.8977108,-4.706793308,3.998565197,0.285696864,5.29701376, 
202,533500946,-153.5306091,-59.48839569,-176.4295959,7.731955051,-1.920738816,-4.786921024,4.326036453,0.149245217,5.371329784, 
203,533517613,-153.4256287,-59.42863464,-176.4996796,7.602591991,-1.90787828,-4.76245594,3.630331039,-0.719454348,4.936642647, 
204,533534280,-153.3439331,-59.35954285,-176.5986023,7.284888744,-1.976974964,-4.722759247,3.705723047,-1.571883678,4.409073353, 
205,533550947,-153.3237,-59.25377655,-176.6381531,7.338021755,-2.144441843,-4.610112667,1.753573775,-3.972741604,4.478957176, 
206,533567614,-153.3267212,-59.12257004,-176.6705627,7.753594398,-2.364689589,-4.446888447,1.225606203,-5.542940617,4.683602333, 
207,533584281,-153.3232117,-58.9790802,-176.6502838,8.346001625,-2.019901514,-4.468068123,3.157239676,-6.621453285,4.164049149, 
208,533600948,-153.440979,-58.84207535,-176.54245,8.754798889,-1.664974093,-4.522614479,-0.250178486,-7.337521076,1.89441812, 
209,533617615,-153.7102051,-58.70662308,-176.3522491,8.904473305,-1.736266494,-4.42195034,-4.523069382,-8.579393387,-0.782308161, 
210,533634282,-153.9785919,-58.58899307,-176.1080627,8.733137131,-2.006010056,-4.546890259,-2.281356096,-8.244698524,-2.504122496, 
211,533650949,-154.3402863,-58.46588898,-175.8181152,8.311244965,-1.83598578,-4.556025505,-5.858939648,-9.09584713,-3.553923607, 
212,533667616,-154.6937256,-58.33546448,-175.5034027,7.70210743,-1.500109792,-4.519044876,-4.066357613,-9.835863113,-4.181665421, 
213,533684283,-155.0286102,-58.179142,-175.1810455,7.31088829,-1.048734426,-4.869505405,-2.430281162,-11.36956501,-3.914077044, 
214,533700950,-155.5034027,-57.99730301,-174.8243561,6.837094784,-1.082334518,-4.908149719,-9.091050148,-13.17188644,-4.363325596, 
215,533717617,-156.006485,-57.75209808,-174.385788,6.641958714,-0.97211498,-4.759375572,-6.687592983,-17.64753723,-5.328197479, 
216,533734284,-156.4786377,-57.47855759,-173.8849182,6.905147552,-1.03101933,-5.201273441,-1.678050518,-19.97375488,-6.73022747, 
217,533750951,-157.0683594,-57.20877075,-173.3400269,7.207651138,-1.398903251,-5.294174194,-6.572249889,-20.25743294,-8.413229942, 
218,533767618,-157.5914459,-56.93619537,-172.7890625,7.529361248,-1.444395661,-5.195077896,-2.336260319,-20.40922928,-8.857213974, 
219,533784285,-157.8973694,-56.71452332,-172.2528381,8.299418449,-1.712545037,-5.891706944,9.883419991,-17.34969521,-9.830151558, 
220,533800952,-158.377594,-56.40912628,-171.7176819,10.56916618,-3.44874382,-5.929721355,-0.69762069,-21.94140625,-8.172174454, 
221,533817619,-158.6781158,-56.26717377,-171.5412598,13.58818531,-5.897409916,-5.098582745,-7.933876991,-8.455478668,-0.963569403, 
222,533834286,-158.3015747,-56.41184616,-171.6113586,10.06580257,-2.429609299,-5.28995657,20.27133751,10.40248966,0.248482078, 
223,533850953,-158.2675934,-56.53997421,-171.4483032,7.347527504,-0.810955465,-6.102593899,11.35456848,6.570482731,-6.611315727, 
224,533867620,-158.6059265,-56.62328339,-171.1367493,7.396568775,-3.074926853,-5.300758839,-3.505618095,2.348186016,-10.12437725, 
225,533884287,-158.5911407,-56.69905472,-170.8250732,8.420730591,-2.70418191,-5.503314495,17.66649818,1.98916173,-10.00177956, 
226,533900954,-158.7272797,-56.86944962,-170.5439453,8.78068924,-1.788257957,-5.845510483,7.077511311,7.674684048,-11.13653088, 
227,533917621,-158.9260101,-57.0991478,-170.3015747,8.686216354,-1.987179875,-5.456124306,1.403564453,11.51318741,-11.16860104, 
228,533934288,-158.8945923,-57.4031105,-170.1719818,8.449243546,-1.988020897,-5.447969437,9.552874565,17.02860641,-9.29384613, 
229,533950955,-158.8299408,-57.75268555,-170.1590729,8.105851173,-1.490383506,-5.56317091,5.648749828,20.94262123,-6.763768673, 
230,533967622,-158.7233734,-58.13710403,-170.2421417,8.177177429,-1.273396134,-5.395984173,3.293056965,24.00872612,-4.685167313, 
231,533984289,-158.4970093,-58.57841492,-170.3677368,8.66931057,-1.294838428,-5.426513195,8.294427872,27.66249847,-4.75747633, 
232,534000956,-158.2068939,-59.11454391,-170.5861053,8.69852066,-1.849380732,-5.350038052,7.330884933,33.9733963,-4.32631731, 
233,534017623,-157.8065186,-59.73652649,-170.8836975,8.268082619,-1.774675965,-5.200397015,9.77682209,39.58747864,-4.313120842, 
234,534034290,-157.4128571,-60.37335968,-171.1592255,8.157805443,-1.781508923,-5.058126926,10.41682434,40.0731163,-5.684523582, 
235,534050957,-157.0031281,-61.03804779,-171.4062347,8.683479309,-1.83152771,-4.997859001,12.77211475,41.19579315,-7.527321815, 
236,534067624,-156.522583,-61.75691986,-171.6631012,8.96753788,-1.806369185,-5.00280714,16.40683365,44.17708588,-9.003300667, 
237,534084291,-156.013504,-62.53644943,-171.9588013,8.758423805,-1.627431273,-4.76577282,15.95406914,47.79627609,-10.00001431, 
238,534100958,-155.4446716,-63.33338928,-172.3158569,8.669340134,-1.581829667,-4.453416824,16.45656395,49.18681335,-9.67546463, 
239,534117625,-154.7510071,-64.14588928,-172.7404785,8.493927956,-1.464755058,-4.427302361,20.12176895,50.57176208,-9.178953171, 
240,534134292,-154.1065521,-64.94880676,-173.1977081,8.596430779,-1.555906653,-4.218351364,14.69400787,50.28608704,-8.785042763, 
241,534150959,-153.3963623,-65.74524689,-173.7072906,8.875793457,-1.704291224,-3.936674356,15.55956173,50.25625229,-8.299717903, 
242,534167626,-152.6640015,-66.51306915,-174.2875824,9.115937233,-1.483807206,-3.740048885,13.16166973,49.14694977,-7.080063343, 
243,534184293,-151.7940979,-67.27584839,-174.9728699,9.143872261,-1.409010172,-3.636587381,15.42556381,49.70413589,-5.781566143, 
244,534200960,-150.868866,-68.01984406,-175.7179565,8.741148949,-1.374623775,-3.557347536,15.21318817,49.01306915,-5.221932888, 
245,534217627,-149.9078827,-68.71285248,-176.4904022,8.438236237,-1.164759755,-3.276985407,15.61679935,46.28768921,-4.40395546, 
246,534234294,-148.9345856,-69.34147644,-177.2707672,8.592309952,-0.904974401,-2.792050123,15.71608067,42.69544983,-3.458783388, 
247,534250961,-147.9126587,-69.92202759,-178.1233063,9.111979485,-1.037904739,-2.538562775,14.39781189,40.68688583,-1.748097539, 
248,534267628,-146.714035,-70.43841553,-179.0969391,9.274453163,-1.273516417,-2.677266836,17.99299622,38.43828201,1.283204317, 
249,534284295,-145.5368195,-70.89556885,179.789978,9.575732231,-0.965116799,-2.576655149,8.641512871,36.74383545,4.429380894, 
250,534300962,-144.272995,-71.32228088,178.5590057,9.147997856,-1.147551179,-2.463359594,6.977305412,36.32304764,6.237325191, 
251,534317629,-142.9868774,-71.70213318,177.2447052,8.513566017,-1.564604878,-2.554087877,3.405531406,34.79110718,8.029732704, 
252,534334296,-141.7658691,-72.02733612,175.9422913,8.601737022,-1.111845732,-2.456753254,0.019555371,31.91108894,8.766197205, 
253,534350963,-140.6055145,-72.31584167,174.7138824,8.998208046,-1.316787362,-2.374384403,0.47798571,29.23695374,8.162396431, 
254,534367630,-139.5783539,-72.57472229,173.5415192,9.566972733,-1.79543519,-2.200994253,-4.414610863,27.12418938,7.753869057, 
255,534384297,-138.4712067,-72.78451538,172.3291626,9.419734001,-1.892222524,-1.75171864,-1.994805455,25.28589439,9.537861824, 
256,534400964,-137.3559265,-72.94966125,171.2429199,9.127719879,-1.484783173,-1.99924767,5.642028332,21.76972771,9.046257973, 
257,534417631,-136.379425,-73.09860229,170.2834167,9.041918755,-2.099246979,-2.586450338,4.535991192,19.55424118,7.598749638, 
258,534434298,-135.6433411,-73.22006226,169.3950195,9.249444962,-2.156954288,-2.130302906,-5.85023737,17.51425743,7.481173038, 
259,534450965,-134.8146667,-73.28130341,168.5884399,9.342798233,-1.530243874,-1.449383497,4.378149033,13.97319984,8.72711277, 
260,534467632,-133.9882507,-73.2971344,167.9122925,9.279049873,-1.33642602,-2.012776136,11.72468662,10.50946617,8.905212402, 
261,534484299,-133.4058685,-73.31352234,167.2838745,9.237769127,-1.847170353,-2.326336861,-0.176081017,10.01122856,8.21361351, 
262,534500966,-132.8701935,-73.31742096,166.7526703,9.250492096,-2.276827812,-1.994218469,2.610217333,8.346964836,7.521826267, 
263,534517633,-132.3218079,-73.30832672,166.2810059,9.377456665,-2.079654694,-1.822594523,6.791697025,7.115338802,7.321137428, 
264,534534300,-131.8674774,-73.27988434,165.8692017,9.581318855,-1.747507095,-1.839422226,4.587517738,5.618954182,7.43388319, 
265,534550967,-131.3540955,-73.25840759,165.4588776,9.542516708,-2.061754704,-2.232969284,8.218864441,5.92282486,7.084220409, 
266,534567634,-130.8940735,-73.27189636,165.0166321,9.492718697,-1.995952606,-2.361437559,3.18648982,7.773712635,5.821230888, 
267,534584301,-130.4823761,-73.31983948,164.6062927,9.558582306,-2.245724916,-2.068319082,2.117082357,8.732281685,3.839639664, 
268,534600968,-129.9571991,-73.40583801,164.1716461,9.407879829,-2.466791153,-2.129817724,7.517087936,10.52505779,2.27745676, 
269,534617635,-129.4885864,-73.51560974,163.7079773,9.217000008,-2.317275763,-2.094501734,2.436588287,11.79586983,1.370702505, 
270,534634302,-129.04599,-73.62976074,163.2735138,9.181404114,-1.912569523,-1.839553475,2.539718151,11.54247189,0.724558055, 
271,534650969,-128.5870514,-73.7596817,162.8583832,9.35676384,-2.017024755,-1.991948962,4.613618374,11.82909012,-0.327989995, 
272,534667636,-128.1212616,-73.91819,162.4000244,9.439463615,-2.142006397,-2.095078945,2.515809059,13.40105915,-1.349566102, 
273,534684303,-127.6743927,-74.08363342,161.9365387,9.368857384,-1.921603918,-1.811730385,1.061928749,13.65220356,-1.774903297, 
274,534700970,-127.2507401,-74.23120117,161.5324097,9.331935883,-1.7902174,-1.545331001,3.070989847,12.13919735,-1.64742887, 
275,534717637,-126.941185,-74.34480286,161.1822662,9.373449326,-1.863580346,-1.410986423,-0.671405077,10.13951969,-0.64927572, 
276,534734304,-126.658905,-74.41122437,160.8774719,9.470767021,-2.030951023,-1.389178634,0.295916378,7.803563595,1.11995399, 
277,534750971,-126.3309479,-74.43600464,160.6179047,9.542143822,-1.713581562,-1.472274423,5.643105984,5.705870628,2.645920277, 
278,534767638,-126.1138306,-74.41065979,160.4225769,9.395010948,-1.466179848,-1.443513155,2.705648661,3.085753679,4.44973278, 
279,534784305,-126.0104752,-74.32496643,160.3155975,9.161720276,-1.591869354,-1.288793564,0.988253236,-0.192613915,6.552766323, 
280,534800972,-125.9461212,-74.16880035,160.3212585,9.217027664,-1.752219319,-1.345791459,5.156478882,-4.160688877,8.914926529, 
281,534817639,-126.0010529,-73.96346283,160.4150238,9.498884201,-1.668435931,-1.510330081,3.083796501,-7.08245945,10.45394421, 
282,534834306,-126.1268311,-73.71457672,160.5525665,9.617343903,-1.968849182,-1.543432117,1.349188328,-9.256774902,12.12285805, 
283,534850973,-126.2405548,-73.4298172,160.7288666,9.663973808,-2.014160872,-1.497924089,4.299262524,-11.11933613,13.42546177, 
284,534867640,-126.4131393,-73.10093689,160.9464264,9.733740807,-1.997057915,-1.397849202,3.121833563,-13.35049152,15.07376003, 
285,534884307,-126.6499329,-72.71187592,161.2486877,9.980937004,-2.188375235,-1.24767828,4.10393095,-16.83131027,16.9914093, 
286,534900974,-126.9246445,-72.25037384,161.6214142,10.18995762,-2.219935417,-1.161899447,5.821386814,-20.64992332,19.54979515, 
287,534917641,-127.2650146,-71.71446991,162.0304413,10.33501625,-2.036825895,-0.964266181,3.890610218,-24.16058731,22.47741127, 
288,534934308,-127.687645,-71.08944702,162.5206451,10.61039448,-2.195500612,-0.970592737,3.493296146,-29.0162487,25.47356415, 
289,534950975,-128.1306763,-70.38166809,163.054184,11.13656807,-2.47627759,-1.011466742,4.610189438,-33.22802734,28.44795418, 
290,534967642,-128.5895996,-69.59548187,163.5821991,11.34755039,-2.701169968,-0.877090633,3.201883078,-36.62922287,31.69938278, 
291,534984309,-128.9241943,-68.72284698,164.0703888,11.44197369,-2.921041489,-0.790634871,8.261051178,-39.81949615,35.75053787, 
292,535000976,-129.0461273,-67.80390167,164.4833984,11.54084396,-2.628293514,-0.876667738,16.65530968,-40.80266953,38.53363419, 
293,535017643,-129.0384979,-66.87575531,164.8595734,11.79508209,-1.98820734,-1.284806728,22.22757912,-40.88127518,39.2447052, 
294,535034310,-128.9704132,-65.99795532,165.1623383,11.36436558,-0.835075974,-2.479182959,21.67840958,-37.90049744,37.87527847, 
295,535050977,-129.3390808,-65.25325775,165.4541931,8.972759247,-0.347130597,-3.491903782,-5.200921535,-32.94639206,31.68585968, 
296,535067644,-130.1654053,-64.60871887,165.9487,8.260421753,-0.766957104,-4.222881794,-21.6955719,-33.50538254,23.37091827, 
297,535084311,-131.2779541,-64.10819244,166.3993835,7.834527969,-2.324569702,-4.183445454,-41.32276917,-27.52722549,16.86189842, 
298,535100978,-132.1153717,-63.76989746,166.7868347,7.318780899,-3.268625259,-4.25808239,-28.28050041,-20.1530304,10.10330868, 
299,535117645,-132.6005249,-63.57530594,167.1766815,6.646891117,-3.092731476,-5.015939236,-7.060128212,-14.50438976,3.355842829, 
300,535134312,-133.7576141,-63.72403336,167.3710785,6.635437489,-1.99110949,-2.094124556,-57.85756302,3.432091951,-8.363101959, 
301,535150979,-134.1545563,-64.25886536,167.3225708,6.490494728,0.344110459,0.718381584,-25.31200218,24.27243423,-20.52580643, 
302,535167646,-133.9353943,-65.05608368,167.1729279,5.424711704,0.69115299,0.075839192,6.107653141,37.01412582,-29.9399395, 
303,535184313,-134.2758942,-66.0083313,167.1344147,6.250097275,-0.78485769,-1.446552992,-21.45420837,41.38699722,-38.53022003, 
304,535200980,-134.2680359,-67.22605896,166.8816223,7.325332165,-1.708227515,-1.681975365,-12.39260292,56.22576141,-46.24631119, 
305,535217647,-133.694397,-68.68487549,166.4470062,7.567263603,-1.887773037,-2.009267092,11.28389454,68.72970581,-54.31426239, 
306,535234314,-132.859436,-70.34675598,165.9271851,7.938663483,-1.818669081,-2.766561985,21.88604927,77.20663452,-63.23357773, 
307,535250981,-131.7850189,-72.15904236,165.2649536,8.098109245,-1.532609344,-3.422181368,27.82445717,83.5931015,-69.91518402, 
308,535267648,-130.9833527,-73.97634888,164.7063446,7.611407757,-1.049542189,-3.292541027,17.01058197,80.40727234,-73.46656799, 
309,535284315,-130.7282562,-75.70101929,164.5185852,8.414876938,-1.615876079,-3.654007673,5.398872375,70.97999573,-74.43765259, 
310,535300982,-130.8010101,-77.33159637,164.4894104,9.250131607,-2.103049517,-4.635341644,-5.116019726,65.31630707,-71.93118286, 
311,535317649,-131.3190308,-78.83009338,164.4700623,9.423391342,-2.782215834,-4.637069702,-31.27027893,60.45856857,-65.75382233, 
312,535334316,-131.7349701,-80.10112,164.3603363,9.231022835,-3.978573561,-4.104468346,-30.49242401,52.7784996,-54.45792007, 
313,535350983,-131.8957977,-81.14350891,164.0580292,8.991700172,-3.845088005,-3.343255043,-26.62512016,45.30223846,-42.89225388, 
314,535367650,-132.4852448,-81.94768524,164.5247345,8.244413376,-2.768770933,-4.040948868,-6.761981964,30.82076073,-36.85405731, 
315,535384317,-134.3122864,-82.26873779,166.0599976,9.440306664,-4.82836771,-4.738298893,-17.47198486,5.60334301,-21.08654976, 
316,535400984,-135.7727661,-82.5459671,165.0033264,12.51930237,-6.932028294,1.090245962,-149.5567169,19.35388184,-4.341105461, 
317,535417651,-136.0832062,-82.76763153,163.8994446,12.56154823,-1.85870719,4.85881567,-83.43138123,17.00834084,-1.838276505, 
318,535434318,-137.4340973,-82.57592773,166.0798798,13.42429066,-1.574163914,2.591053486,49.56376648,-18.43819427,-2.977806807, 
319,535450985,-139.1678162,-82.38661194,167.8538361,13.38200855,-2.117254019,-2.657951117,2.351273537,-16.4908371,-1.569285274, 
320,535467652,-139.0778503,-82.40129089,167.8783569,10.00357437,-3.424211979,-4.528129101,7.708912849,1.827223301,0.517952979, 
321,535484319,-139.4306335,-82.58505249,168.0372162,8.278336525,0.237174168,-2.774576902,-10.85414028,8.939838409,-6.982149601, 
322,535500986,-140.7349091,-82.73971558,169.2336731,8.160028458,1.059876204,-1.078000069,-6.195415497,2.671752214,-11.7912426, 
323,535517653,-142.1261597,-82.92715454,170.6926575,10.15623951,-1.23902905,-1.903851986,4.250636101,3.4369452,-14.31651688, 
324,535534320,-143.0791779,-83.34522247,171.4951782,11.16642284,-2.032727003,-2.135760307,-8.51144886,17.89641953,-18.58108139, 
325,535550987,-143.6851959,-83.89414215,172.1300354,10.37287331,-1.743006825,-1.183736682,2.35505867,25.39959908,-21.85721588, 
326,535567654,-144.5823364,-84.43954468,173.2023773,9.423462868,-0.379099131,-1.028675079,11.03699684,24.18512917,-23.32742691, 
327,535584321,-146.0137024,-84.98905945,174.6707001,9.560432434,-0.15392442,-1.084321856,2.682736635,23.96682358,-24.28359795, 
328,535600988,-147.7969055,-85.53713989,176.5811005,9.981294632,-0.517610669,-1.038655639,8.088820457,23.87831306,-24.72836876, 
329,535617655,-149.5716248,-86.13903046,178.5291443,10.05866623,-0.671622157,-1.076592922,10.925951,27.93322182,-24.85955811, 
330,535634322,-151.8078156,-86.75321198,-179.0777283,10.02122879,-0.203064263,-0.984178543,9.985831261,29.2889061,-24.6645565, 
331,535650989,-154.6296387,-87.35529327,-176.111969,9.936376572,-0.062722646,-0.771619022,9.221645355,29.62059021,-23.29151154, 
332,535667656,-157.6080322,-87.93891907,-172.9129181,9.990119934,0.052323863,-0.643780589,13.89949608,30.3325386,-20.23851204, 
333,535684323,-160.0470428,-88.50367737,-170.0891724,9.674547195,0.483316571,-0.561372399,23.80784607,31.18040085,-15.9913702, 
334,535700990,-162.240921,-88.99692535,-167.6228333,9.193941116,1.074936152,0.022389473,17.1117115,28.44189644,-11.45833111, 
335,535717657,-164.2718048,-89.34687805,-165.3130341,9.286268234,1.086722136,0.522852778,17.53384018,21.05293083,-6.798353672, 
336,535734324,-163.6071014,-89.57022095,-165.6095581,9.589901924,0.989740968,0.628137469,22.86598969,14.3273735,-2.321342945, 
337,535750991,-158.1766205,-89.69609833,-170.7340546,10.32045555,-0.036125951,0.093272343,19.15002823,9.207971573,0.636284411, 
338,535767658,-131.7015381,-89.84051514,163.170578,9.682290077,-0.359613806,-0.286800385,23.63990402,12.07235909,1.49926877, 
339,535784325,-85.09728241,-89.90512848,116.7968369,9.178750992,0.269752949,0.011513606,14.5218277,8.36865139,0.122684963, 
340,535800992,-39.20527267,-89.90721893,71.06491089,9.778521538,-0.115994185,0.090003625,10.70410156,5.513417721,-1.167958736, 
341,535817659,0.484692007,-89.84051514,31.58846092,9.766136169,-0.442470044,-0.089850977,13.79255295,6.953994751,-2.62290287, 
342,535834326,20.8730011,-89.71469879,11.35022449,9.634391785,-0.509616792,-0.055650037,9.539647102,7.404661179,-4.841167927, 
343,535850993,33.06491089,-89.59074402,-0.691900671,9.891123772,-0.238222688,0.172289625,9.785926819,6.020499706,-6.105566025, 
344,535867660,39.04728317,-89.47961426,-6.484158516,10.16473389,0.157794908,0.12782672,12.21051502,5.104972363,-5.028089046, 
345,535884327,39.89653397,-89.41249847,-7.185356617,10.27182007,0.810227871,0.052632838,9.663931847,4.247739792,-1.714060187, 
346,535900994,36.08884811,-89.41483307,-3.347292423,10.05045891,0.890626192,0.159945652,2.657356024,2.820022583,3.058976173, 
347,535917661,28.02855682,-89.49409485,4.834385872,9.793607712,0.764867604,0.188194439,8.064621925,-0.142976552,7.68088007, 
348,535934328,13.60387516,-89.64009094,19.39194298,9.59998703,0.4906905,0.057305057,8.742337227,-4.371380329,10.46146393, 
349,535950995,-23.70729256,-89.76676941,56.77752686,9.73665905,0.273658216,0.227484465,5.1654706,-6.815730095,11.99615288, 
350,535967662,-75.96115875,-89.71061707,109.1604919,9.576077461,-0.155075356,0.015587487,8.510748863,-7.288797855,12.56955814, 
351,535984329,-97.19065094,-89.55020142,130.5099182,9.642800331,-0.074761637,-0.322566509,7.950533867,-6.314451218,11.09323978, 
352,536000996,-101.2450256,-89.40455627,134.6934052,9.771847725,-0.348874182,-0.674052954,8.521157265,-2.281740665,9.421264648, 
353,536017663,-98.56865692,-89.29224396,132.1117554,9.777434349,-0.249710232,-0.615167856,6.5029006,1.971000552,8.128347397, 
354,536034330,-94.3911972,-89.19936371,128.0332947,9.786205292,-0.181890711,-0.308657438,6.762050152,3.979203463,7.069056034, 
355,536050997,-90.25938416,-89.10671997,124.025322,9.913637161,-0.216060191,-0.096273087,8.265068054,4.734484196,6.888755798, 
356,536067664,-87.48339844,-89.00025177,121.3412781,9.950483322,-0.157833681,0.083732165,6.354910374,4.189816952,7.476670265, 
357,536084331,-86.6349411,-88.88442993,120.588974,9.868405342,-0.187494531,0.218230844,6.581570148,2.585001469,8.066748619, 
358,536100998,-88.11016083,-88.75888062,122.1891861,9.728766441,-0.019143449,0.251265347,8.284034729,-0.244159579,8.758151054, 
359,536117665,-91.07277679,-88.62058258,125.2280197,9.726909637,0.134358749,0.247340396,5.321949959,-2.73850441,9.514007568, 
360,536134332,-94.41634369,-88.46622467,128.6233063,9.662119865,-0.102162816,0.064902104,3.845057249,-4.253521919,10.15126419, 
361,536150999,-97.7780838,-88.30142212,132.0268402,9.689816475,-0.220587641,-0.122522861,3.224012852,-5.423587799,10.39856911, 
362,536167666,-100.5858688,-88.13554382,134.8452911,9.746397018,-0.34885487,-0.20404771,1.378104925,-5.415276527,10.10996628, 
363,536184333,-102.4780045,-87.97609711,136.7619629,9.8005476,-0.552891672,-0.305204153,2.20716238,-4.3810606,9.758570671, 
364,536201000,-103.6450577,-87.82858276,137.9620972,9.836833,-0.474193811,-0.321526378,2.741507292,-3.215848446,9.203580856, 
365,536217667,-104.4349823,-87.69675446,138.7490234,9.786688805,-0.410646886,-0.220353141,0.592908561,-2.351791143,8.382911682, 
366,536234334,-104.768898,-87.576828,139.1225433,9.843482018,-0.579839766,-0.291147739,3.163886786,-1.354496002,7.888124943, 
367,536251001,-104.9173279,-87.47059631,139.2888184,9.847678185,-0.5447703,-0.273576111,1.875528812,-0.693137407,7.195569992, 
368,536267668,-104.8863525,-87.3727417,139.284668,9.789213181,-0.506477654,-0.182683274,2.419017076,-0.14350155,6.818498135, 
369,536284335,-104.9054108,-87.2796936,139.329834,9.742452621,-0.513599694,-0.178437456,2.375860453,-0.206329569,6.503220081, 
370,536301002,-104.9844742,-87.18701172,139.4361572,9.825890541,-0.519658625,-0.212110147,2.442081451,-0.381328344,6.42346096, 
371,536317669,-105.026474,-87.09559631,139.5025635,9.711601257,-0.492765218,-0.215407446,2.274651289,-0.265328348,6.376602173, 
372,536334336,-105.1551971,-87.00945282,139.6500092,9.703930855,-0.553335547,-0.204351425,1.922438264,-0.438022077,5.992681026, 
373,536351003,-105.391037,-86.92451477,139.9113312,9.811971664,-0.644077837,-0.210741118,2.322764874,-0.798431158,5.815313339, 
374,536367670,-105.4240494,-86.84806061,139.9938049,9.833204269,-0.671775639,-0.260808855,3.774544001,-0.139121816,5.475816727, 
375,536384337,-105.3203506,-86.77761078,139.9280701,9.762613297,-0.604553759,-0.2604298,3.102671623,0.434417039,5.235581875, 
376,536401004,-105.2282562,-86.71360016,139.8543243,9.789662361,-0.579261243,-0.201721758,1.919210792,0.568064094,4.88142252, 
377,536417671,-105.2188034,-86.6520462,139.8656158,9.753154755,-0.646316111,-0.176324591,2.060939074,0.330224574,4.654698849, 
378,536434338,-105.3508453,-86.59274292,140.0198975,9.768066406,-0.643476784,-0.193092108,2.130016088,-0.13549757,4.402246475, 
379,536451005,-105.4953308,-86.53434753,140.1883545,9.771069527,-0.633729815,-0.198039398,2.228752851,-0.190910637,4.329429626, 
380,536467672,-105.7910309,-86.47163391,140.4901428,9.751491547,-0.629268467,-0.17266649,1.154300332,-0.748153448,4.407677174, 
381,536484339,-106.0146255,-86.4070282,140.7533722,9.778526306,-0.644617736,-0.268808514,3.16937995,-0.679242551,4.540351391, 
382,536501006,-106.1435623,-86.34312439,140.9031525,9.785727501,-0.625144243,-0.304810435,2.041844606,-0.289225042,4.628023148, 
383,536517673,-106.2815323,-86.27590179,141.0544128,9.750203133,-0.674408078,-0.235499963,1.596734166,-0.364500761,4.792520523, 
384,536534340,-106.5452805,-86.2095108,141.3502197,9.746605873,-0.673741162,-0.198896095,2.700039864,-0.925175726,4.585467815, 
385,536551007,-106.8387146,-86.14273071,141.6568451,9.797994614,-0.756333709,-0.227605581,1.561427116,-1.01355207,4.576656818, 
386,536567674,-107.0765228,-86.07833862,141.9349365,9.768928528,-0.855065227,-0.254231125,3.193596601,-0.895580053,4.440230846, 
387,536584341,-107.3594131,-86.01916504,142.2429657,9.770080566,-0.701626062,-0.250174433,2.282757759,-0.95552659,4.085290432, 
388,536601008,-107.5644379,-85.96556091,142.469162,9.770778656,-0.776596963,-0.289443105,2.057263374,-0.559413493,3.845900774, 
389,536617675,-107.757164,-85.91447449,142.6784973,9.755922318,-0.822929561,-0.280691653,1.782912731,-0.472432613,3.719757795, 
390,536634342,-107.9724426,-85.86819458,142.9060211,9.704446793,-0.785544813,-0.261680365,1.517885566,-0.475967228,3.400956869, 
391,536651009,-108.2572327,-85.82453918,143.2035522,9.723114967,-0.814186275,-0.268878788,1.533201933,-0.744951844,3.155459404, 
392,536667676,-108.5198059,-85.78146362,143.4910431,9.784097672,-0.827064216,-0.298307419,2.271219254,-0.710259497,3.100686789, 
393,536684343,-108.6467896,-85.74596405,143.6513977,9.785598755,-0.825235724,-0.37566945,2.793001175,-0.056367159,2.848773003, 
394,536701010,-108.7479248,-85.71499634,143.7715149,9.75974369,-0.793331921,-0.335947841,1.938497186,0.192428201,2.638671398, 
395,536717677,-108.8617477,-85.68489075,143.9153442,9.781847954,-0.8365767,-0.270551026,2.599932671,0.105012082,2.535529613, 
396,536734344,-108.9384689,-85.65679169,144.0315857,9.737574577,-0.806878984,-0.296338826,3.171326399,0.25159359,2.460049152, 
397,536751011,-109.0214157,-85.63049316,144.1451111,9.756625175,-0.833187163,-0.299400508,2.638427973,0.289397866,2.36132431, 
398,536767678,-109.074646,-85.60613251,144.2382355,9.759372711,-0.856306851,-0.32003963,3.198040724,0.411941946,2.270310163, 
399,536784345,-109.1084671,-85.58506012,144.3059845,9.767172813,-0.80743295,-0.304132342,2.84756875,0.5797562,2.122588158, 
400,536801012,-109.1336365,-85.56663513,144.3619843,9.760481834,-0.837380767,-0.316305161,2.659290075,0.678775012,1.990107059, 
401,536817679,-109.1215439,-85.55137634,144.3901062,9.773728371,-0.862196922,-0.330580533,3.237112999,0.866567433,1.832422376, 
402,536834346,-109.0335693,-85.54262543,144.3369598,9.76054287,-0.85072422,-0.328225106,2.919835091,1.34289968,1.605007172, 
403,536851013,-108.9522705,-85.53682709,144.2843018,9.751075745,-0.889596701,-0.298332334,2.551818371,1.404549122,1.420813084, 
404,536867680,-108.8186111,-85.53515625,144.1986084,9.772303581,-0.885723829,-0.305290222,3.722012281,1.628814101,1.230344653, 
405,536884347,-108.6463547,-85.53502655,144.0603943,9.76401329,-0.852114737,-0.324585766,2.885590792,1.885991335,1.230908155, 
406,536901014,-108.4534988,-85.53656006,143.8976898,9.759515762,-0.854100585,-0.266235471,2.673722506,2.025516272,1.159115434, 
407,536917681,-108.2493439,-85.54034424,143.7415009,9.773854256,-0.857965827,-0.272552818,3.741336823,2.040525198,1.008794546, 
408,536934348,-108.0174103,-85.5456543,143.5397034,9.779820442,-0.849891961,-0.269288898,2.678025723,2.266339779,0.986024916, 
409,536951015,-107.7717285,-85.55265808,143.3280487,9.727650642,-0.881430209,-0.262132049,2.903635025,2.338106871,0.896098852, 
410,536967682,-107.5456314,-85.56036377,143.1399231,9.766056061,-0.906237364,-0.297603339,3.153909683,2.243928909,0.80852896, 
411,536984349,-107.2842712,-85.56964111,142.9156342,9.772001266,-0.840787053,-0.254793942,3.125453949,2.421399355,0.769623339, 
412,537001016,-107.0418854,-85.5774765,142.7048187,9.776120186,-0.840212703,-0.257508248,2.780822039,2.334943533,0.822167695, 
413,537017683,-106.8096008,-85.58350372,142.5068665,9.753265381,-0.847605467,-0.240252554,3.031455278,2.233504295,0.890002966, 
414,537034350,-106.6285782,-85.58695984,142.3540649,9.73414135,-0.833603263,-0.219865203,2.538397789,1.995638967,0.987433493, 
415,537051017,-106.524971,-85.58771515,142.2817535,9.770205498,-0.838363886,-0.217428535,2.730403423,1.591368079,1.026428938, 
416,537067684,-106.4074326,-85.58824921,142.2011261,9.760989189,-0.887917995,-0.277427256,3.001116753,1.629864097,1.049698114, 
417,537084351,-106.2786942,-85.58953857,142.1008148,9.779725075,-0.869789541,-0.24112691,2.543802023,1.720200062,1.029515147, 
418,537101018,-106.1576843,-85.58722687,142.0114899,9.783535957,-0.839404404,-0.226927176,2.669214487,1.618056536,1.22030437, 
419,537117685,-106.0142059,-85.58226013,141.9069977,9.737766266,-0.860013187,-0.258972704,2.89131546,1.65730834,1.427191019, 
420,537134352,-105.9284821,-85.57769775,141.8463593,9.758126259,-0.840818167,-0.230892882,2.575510502,1.424783111,1.267956614, 
421,537151019,-105.8132553,-85.57291412,141.7662506,9.764735222,-0.922253788,-0.218235195,2.743837118,1.543946266,1.367820382, 
422,537167686,-105.6575928,-85.56686401,141.6515961,9.716095924,-0.903765976,-0.229716226,3.253632784,1.667361379,1.445119858, 
423,537184353,-105.5702972,-85.56129456,141.6008453,9.777835846,-0.892107189,-0.214328304,3.069335938,1.372866273,1.345114827, 
424,537201020,-105.4611969,-85.55516815,141.5253754,9.772032738,-0.875942945,-0.224325567,3.069758654,1.459949374,1.372033834, 
425,537217687,-105.3181686,-85.54851532,141.4111938,9.762672424,-0.89839685,-0.221125707,2.923087835,1.612229824,1.432902575, 
426,537234354,-105.1652298,-85.54200745,141.2914581,9.748440742,-0.892574787,-0.225650787,3.098995924,1.646550894,1.439728498, 
427,537251021,-105.0248184,-85.53559875,141.190979,9.776022911,-0.913349867,-0.246703193,3.122687817,1.601971984,1.443390965, 
428,537267688,-104.8467102,-85.53143311,141.0551453,9.736327171,-0.927395642,-0.222047046,2.941452265,1.828657269,1.393126011, 
429,537284355,-104.6774368,-85.52696991,140.944046,9.769086838,-0.884751558,-0.196059078,3.509887457,1.749962091,1.42245245, 
430,537301022,-104.5530396,-85.51974487,140.8524323,9.767594337,-0.910903752,-0.232037574,2.857532501,1.53238225,1.453508019, 
431,537317689,-104.3755188,-85.5122757,140.7120819,9.782719612,-0.97483927,-0.212795541,3.286455631,1.735952258,1.499470115, 
432,537334356,-104.1767731,-85.50621033,140.5462646,9.761528969,-0.898775399,-0.188596338,3.751287699,1.796602964,1.368589044, 
433,537351023,-104.0038452,-85.49977112,140.414444,9.715425491,-0.922920346,-0.220311165,3.154754877,1.74988544,1.466954589, 
434,537367690,-103.8096085,-85.49367523,140.2633667,9.76864624,-0.933738887,-0.236287832,3.277926445,1.843243718,1.466557741, 
435,537384357,-103.5813599,-85.48846436,140.0459747,9.766131401,-0.940771878,-0.214702144,3.13430357,1.972997904,1.293364763, 
436,537401024,-103.3632278,-85.48568726,139.8800354,9.747131348,-0.924412429,-0.21068716,3.420665503,2.003771067,1.320449829, 
437,537417691,-103.1077194,-85.48017883,139.6477051,9.765710831,-0.946188271,-0.218285277,3.203841209,2.117184401,1.367218733, 
438,537434358,-102.8759384,-85.47644806,139.4703827,9.754976273,-0.96594739,-0.200526282,3.456485033,2.056648493,1.387785673, 
439,537451025,-102.5744553,-85.47190857,139.2266235,9.75402832,-0.944818854,-0.198695868,3.962079763,2.320638418,1.474318027, 
440,537467692,-102.3176727,-85.4675827,139.0380096,9.759197235,-0.867055297,-0.161822438,3.545015097,2.184750319,1.496281147, 
441,537484359,-102.071991,-85.45800018,138.8346405,9.776228905,-0.96550113,-0.194744825,3.386062622,2.038873196,1.664505124, 
442,537501026,-101.7064896,-85.44593811,138.5081482,9.795249939,-0.970512331,-0.200428456,4.082127094,2.491040468,1.832204938, 
443,537517693,-101.3647842,-85.43503571,138.2220154,9.717262268,-0.940178275,-0.177666709,3.999666214,2.438661814,1.83984983, 
444,537534360,-101.0743713,-85.42093658,137.9722595,9.749391556,-0.949909806,-0.121914603,3.556669235,2.191243649,1.92156744, 
445,537551027,-100.8301086,-85.40445709,137.7992249,9.732000351,-0.92073983,-0.114282556,4.063660145,1.949920654,2.141209126, 
446,537567694,-100.6253052,-85.38170624,137.6392822,9.746213913,-0.943056405,-0.141233161,3.547307968,1.712260127,2.35855794, 
447,537584361,-100.4741516,-85.35932159,137.5682373,9.76063633,-0.990667701,-0.166032672,3.468395472,1.5338552,2.524131775, 
448,537601028,-100.2611008,-85.32961273,137.3776245,9.775009155,-0.994970679,-0.148944944,3.994735718,1.594902754,2.60222435, 
449,537617695,-100.0740051,-85.30076599,137.235672,9.750695229,-0.995424807,-0.145340741,3.735432625,1.564692497,2.670149326, 
450,537634362,-99.89683533,-85.26972961,137.1118164,9.749418259,-0.969712436,-0.13966994,4.044924259,1.476021647,2.822634935, 
451,537651029,-99.69844818,-85.23523712,136.9264221,9.766354561,-0.984418452,-0.154601008,3.453296423,1.545944333,2.86426878, 
452,537667696,-99.51179504,-85.200737,136.7832642,9.743989944,-0.978212178,-0.111021422,3.193814754,1.586079597,3.066532612, 
453,537684363,-99.36725616,-85.16061401,136.6771393,9.748505592,-1.012304068,-0.113747686,3.477756739,1.291059375,3.28781271, 
454,537701030,-99.21089935,-85.11448669,136.5396118,9.774236679,-1.014853001,-0.131157666,3.447341442,1.265280128,3.547602415, 
455,537717697,-99.11801147,-85.0663681,136.4792938,9.72248745,-0.990356088,-0.108799867,3.015537024,1.008781791,3.739902496, 
456,537734364,-99.09262848,-85.01347351,136.4764862,9.728496552,-1.05184412,-0.122215509,3.439709425,0.551006138,3.847284317, 
457,537751031,-99.05545044,-84.9595108,136.474411,9.766940117,-1.044835091,-0.108067065,3.406719685,0.628061891,4.004341125, 
458,537767698,-99.07298279,-84.90345764,136.544342,9.728287697,-1.065976977,-0.136857346,3.915452003,0.294302732,4.113950729, 
459,537784365,-99.06269836,-84.84695435,136.5948944,9.750264168,-1.104623914,-0.165767536,3.732167482,0.470966309,4.237531662, 
460,537801032,-98.92173004,-84.7853775,136.4401398,9.806873322,-1.064669728,-0.163015693,3.182455063,1.04335916,4.271994114, 
461,537817699,-98.80922699,-84.72393036,136.3541718,9.721726418,-1.115026832,-0.122276947,3.22431922,0.98112011,4.466867924, 
462,537834366,-98.69203949,-84.66660309,136.2883759,9.704352379,-1.158169746,-0.15223822,4.061892986,0.998331964,4.284825802, 
463,537851033,-98.53623199,-84.60664368,136.1860962,9.74136734,-1.121575356,-0.132620752,3.505981922,1.277625561,4.544692039, 
464,537867700,-98.38109589,-84.54659271,136.1079712,9.740484238,-1.0847404,-0.139298394,3.634941339,1.319425464,4.678108692, 
465,537884367,-98.23561096,-84.47699738,135.9675598,9.735261917,-1.166200876,-0.136885643,3.101058006,1.119172573,4.858550072, 
466,537901034,-98.07054138,-84.40812683,135.8209534,9.754542351,-1.151644468,-0.122488976,3.472275496,1.232585549,4.873046875, 
467,537917701,-97.95288849,-84.3367691,135.755661,9.748615265,-1.181074262,-0.134057611,3.842520237,0.975984752,5.135846615, 
468,537934368,-97.87722778,-84.26478577,135.7462921,9.747934341,-1.133908868,-0.111543603,3.177268744,0.849906266,5.299677849, 
469,537951035,-97.77494812,-84.18533325,135.6575165,9.717197418,-1.211307049,-0.098537043,3.353189468,0.822628856,5.419379234, 
470,537967702,-97.70864105,-84.10425568,135.6345062,9.726590157,-1.244447947,-0.144030929,4.020337105,0.571112216,5.596914291, 
471,537984369,-97.62932587,-84.02243042,135.6102295,9.712162971,-1.198644161,-0.097895227,3.596894741,0.73657012,5.758286476, 
472,538001036,-97.60574341,-83.93650818,135.6234436,9.734643936,-1.233861566,-0.101451054,3.613670826,0.315458894,5.850633621, 
473,538017703,-97.56284332,-83.85005951,135.6316376,9.753361702,-1.228928566,-0.146532565,3.710500002,0.451462388,5.967748165, 
474,538034370,-97.52813721,-83.76847839,135.687088,9.71284771,-1.309600592,-0.116186589,2.924496889,0.634670019,6.015437603, 
475,538051037,-97.49173737,-83.67621613,135.7018127,9.669363022,-1.36897707,-0.0902666,3.95085001,0.329814821,6.283078671, 
476,538067704,-97.48875427,-83.58204651,135.7470856,9.720366478,-1.283015966,-0.123944446,4.162807465,0.056514435,6.311982155, 
477,538084371,-97.49948883,-83.48718262,135.8194122,9.680912971,-1.349169135,-0.110029012,3.259856701,0.114066161,6.528588295, 
478,538101038,-97.57543182,-83.38517761,135.9455261,9.666913986,-1.304747105,-0.100943558,4.135683537,-0.55885005,6.715446472, 
479,538117705,-97.68404388,-83.27990723,136.1067047,9.724866867,-1.375781059,-0.137340769,3.573343754,-0.746834397,6.955078602, 
480,538134372,-97.78661346,-83.16875458,136.2437897,9.725564957,-1.397076368,-0.104357585,3.976859331,-0.881147563,7.129066467, 
481,538151039,-97.91593933,-83.05490875,136.4441528,9.688464165,-1.397753954,-0.124015383,4.582522392,-1.146136522,7.415889263, 
482,538167706,-98.0949173,-82.93578339,136.6765442,9.692217827,-1.373505831,-0.089682251,4.053017616,-1.550535202,7.614937782, 
483,538184373,-98.32454681,-82.8097229,136.9624939,9.663373947,-1.4686445,-0.106305331,4.186768055,-2.059869766,7.961504936, 
484,538201040,-98.60766602,-82.67654419,137.3100128,9.667187691,-1.502990127,-0.12559855,4.716105938,-2.669106483,8.277744293, 
485,538217707,-98.90419769,-82.54252625,137.6647949,9.710152626,-1.511953592,-0.125735775,4.997513294,-2.930407763,8.207438469, 
486,538234374,-99.20426941,-82.40746307,138.0403748,9.681423187,-1.528351426,-0.147606671,5.07002306,-3.034126043,8.331877708, 
487,538251041,-99.52548981,-82.26772308,138.417099,9.641953468,-1.509826541,-0.146015555,4.315780163,-3.259121418,8.507325172, 
488,538267708,-99.86788177,-82.12667847,138.8174133,9.707551003,-1.549663663,-0.122902535,4.067938805,-3.501686096,8.572048187, 
489,538284375,-100.2246323,-81.98149109,139.2243042,9.679614067,-1.630180597,-0.177676097,3.872616053,-3.757800579,8.729836464, 
490,538301042,-100.5470428,-81.83521271,139.6254883,9.680143356,-1.657073855,-0.236794055,4.394436359,-3.617353201,8.915808678, 
491,538317709,-100.8416214,-81.68582916,139.9883423,9.633846283,-1.685752869,-0.292479098,4.899327278,-3.633963346,8.965805054, 
492,538334376,-101.0841522,-81.53084564,140.2960663,9.634699821,-1.679131746,-0.278837591,4.791920185,-3.328390598,9.345564842, 
493,538351043,-101.3684616,-81.37270355,140.6667023,9.646421432,-1.594736576,-0.231536329,5.979889393,-4.002133369,9.397227287, 
494,538367710,-101.6620636,-81.2063446,141.0179291,9.691608429,-1.60403192,-0.242186725,4.217863083,-4.026670456,9.881128311, 
495,538384377,-101.967598,-81.02893829,141.36203,9.647465706,-1.666720033,-0.240365848,3.051152706,-4.201873779,10.49977684, 
496,538401044,-102.3146133,-80.84510803,141.7649994,9.65530777,-1.620234966,-0.254728556,4.067618847,-4.955092907,10.71521854, 
497,538417711,-102.7813568,-80.65428925,142.2586823,9.663362503,-1.669359565,-0.194513589,2.20179677,-6.040470123,10.87884617, 
498,538434378,-103.3681412,-80.44424438,142.8662415,9.628668785,-1.765405297,-0.09655983,1.755674839,-7.596046448,11.65258217, 
499,538451045,-104.0473557,-80.20868683,143.6059113,9.539344788,-1.620179176,-0.114940822,3.940184593,-9.503620148,12.70484543, 
500,538467712,-104.9537201,-79.93776703,144.5062408,9.53164196,-1.551543117,-0.196230859,-0.194880828,-12.00348854,14.13480568, 
501,538484379,-106.1085663,-79.62217712,145.6464081,9.653848648,-1.396845698,-0.144353837,-0.977017403,-15.69057751,15.72404671, 
502,538501046,-107.4625626,-79.2543869,146.9710083,9.684262276,-1.45736599,-0.081448257,-2.129092693,-19.25002098,17.65857697, 
503,538517713,-109.0508728,-78.81153107,148.5470276,9.564903259,-1.565270662,-0.048722055,-1.450100064,-24.35433769,20.33472252, 
504,538534380,-111.0629272,-78.27472687,150.5090179,9.577979088,-1.681269884,-0.010916725,-4.368468761,-31.95541,22.97844505, 
505,538551047,-113.1423645,-77.65493011,152.6250458,10.08547878,-1.757097721,-0.15096131,0.377790034,-37.47287369,25.23750496, 
506,538567714,-115.3077164,-76.9646759,154.8179321,10.26426506,-1.927289724,-0.213711515,-0.586657584,-42.31238556,26.65082169, 
507,538584381,-117.4479065,-76.2233963,157.0579376,10.55875969,-2.43892169,-0.195774138,3.294671774,-46.65097809,26.74996948, 
508,538601048,-119.1956253,-75.42289734,159.2099304,11.05666351,-2.458933353,-0.495751411,21.29355812,-49.61459351,28.01919365, 
509,538617715,-120.4238205,-74.61167908,160.5395813,11.36427402,-3.159151793,-0.386281043,4.343494892,-41.0965538,32.7224884, 
510,538634382,-121.4318466,-73.68055725,161.6750336,11.17758369,-3.023832083,0.363401771,6.025486946,-43.70096588,39.088974, 
511,538651049,-122.0567398,-72.61714935,162.6578674,10.96708298,-2.193790913,0.031267233,19.91441154,-47.16419601,45.99020004, 
512,538667716,-122.7243042,-71.51972198,163.4608459,10.96373081,-1.389264703,-0.761833608,6.749694824,-46.8795929,48.38589478, 
513,538684383,-123.4565735,-70.43552399,164.2923584,10.8425827,-1.516394377,-1.224076033,4.174846172,-48.23396301,46.38187027, 
514,538701050,-124.0658798,-69.38835144,165.1410217,10.41118526,-0.97286731,-1.705068111,12.18891239,-48.55653,43.30221176, 
515,538717717,-124.9024658,-68.37216949,166.0797272,9.844524384,-0.371796221,-2.284825325,3.24498415,-50.34126663,39.588974, 
516,538734384,-125.9402771,-67.3951416,167.1706238,9.469087601,-0.605522037,-2.975739956,-0.755194724,-53.13651657,34.36111069, 
517,538751051,-127.1135635,-66.43785858,168.4792175,9.361701965,-1.101333618,-3.717081547,2.684519291,-57.98023224,28.75054741, 
518,538767718,-128.2194061,-65.52707672,169.908432,9.166372299,-0.933407843,-4.378026009,12.81196117,-60.04470444,22.88830566, 
519,538784385,-129.3996887,-64.82210541,171.1756592,9.035888672,-1.272479296,-4.393634319,-0.996285856,-50.3742485,13.96210289, 
520,538801052,-130.7918243,-64.44085693,172.1451416,9.306763649,-1.402399421,-0.996937454,-30.17269135,-32.75226974,2.498638868, 
521,538817719,-131.4733429,-64.62076569,172.3892059,8.938690186,2.197263479,1.428644776,-26.88984108,3.382987261,-11.19122887, 
522,538834386,-132.2635956,-65.10373688,172.5747375,7.6634202,4.565564156,0.844419956,-36.59565735,16.8102169,-23.57260323, 
523,538851053,-134.6339111,-65.86284637,173.0169373,7.860835552,3.087563753,0.419088542,-117.3985901,24.30150414,-39.35412216, 
524,538867720,-136.9307709,-66.88531494,173.6636963,8.285552979,0.241835788,0.217947409,-101.6180038,34.0614624,-52.55937195, 
525,538884387,-138.8219604,-68.23086548,174.4060516,8.809127808,-0.991530478,-0.667410314,-71.69405365,49.37578201,-65.35478973, 
526,538901054,-140.5475922,-69.86659241,175.1693573,9.250404358,-1.585122824,-0.561946869,-60.16635132,65.10155487,-74.56793976, 
527,538917721,-141.6695251,-71.70368958,175.9440002,9.312722206,-1.991784453,-0.182403713,-22.84576988,77.01548004,-79.69171143, 
528,538934388,-142.4399567,-73.68726349,176.8414764,9.666487694,-1.329419613,-0.556941032,5.767015934,84.79563904,-84.41005707, 
529,538951055,-143.3164368,-75.80373383,177.9389648,10.02805233,-1.182740688,-0.762327671,11.51513767,91.56121826,-89.05317688, 
530,538967722,-144.4690247,-77.99932098,179.4910431,10.29413605,-1.25184083,-0.648308516,22.11851883,94.73161316,-93.28092957, 
531,538984389,-146.3359985,-80.24024963,-178.1307678,10.81356812,-0.841214418,-0.858834386,28.68787003,96.09410095,-97.11569214, 
532,539001056,-149.9729767,-82.5342865,-174.2067566,10.25635529,-0.447402656,-0.766669273,15.16735077,98.97205353,-101.1503906, 
533,539017723,-157.6377258,-84.70206451,-166.399826,11.06031799,-0.979058146,-0.687482357,6.259941101,94.17108154,-102.5893173, 
534,539034390,-174.6549225,-86.74677277,-149.1476746,10.4473362,-1.557056785,-1.642346621,11.97046566,100.0533829,-102.3398666, 
535,539051057,143.0207367,-87.72428131,-106.829689,10.94599915,-2.442730665,-2.282132864,-2.418913603,85.9596405,-98.94233704, 
536,539067724,99.94435883,-87.04740143,-63.647686,10.73052788,-3.590558529,-1.867764115,4.530825615,79.42105103,-91.1827774, 
537,539084391,81.48872375,-85.65882111,-44.77807999,10.95291996,-3.577151299,-1.766654968,23.32279587,71.40113068,-81.8757782, 
538,539101058,73.70301819,-84.25799561,-36.34046555,10.28055,-3.449373722,-1.760582924,37.90996552,62.18796539,-71.16683197, 
539,539117725,70.38110352,-83.04512024,-32.06803131,9.550453186,-3.668647051,-2.219702005,56.24178314,50.18074036,-59.35164642, 
540,539134392,69.34593964,-82.0530777,-29.90198708,8.862224579,-3.71954751,-2.819201231,67.5944519,37.15063858,-49.04733658, 
541,539151059,69.4994812,-81.29109955,-29.10003853,8.430919647,-3.05563736,-2.472167015,57.72202682,23.48327446,-39.3972435, 
542,539167726,70.2653656,-80.75291443,-28.96932983,8.115919113,-2.705564976,-1.794220567,54.63816071,13.18485928,-28.98835182, 
543,539184393,71.99823761,-80.46795654,-29.72643471,7.724945068,-2.902426004,-2.381116867,60.13889313,-0.521987617,-17.71129227, 
544,539201060,74.24517822,-80.42414856,-31.38455963,8.127877235,-2.256212711,-3.050307035,37.73697281,-14.0351553,-6.506207466, 
545,539217727,75.796875,-80.5150528,-32.97972488,9.302531242,-0.07281208,-2.796799183,-0.228920087,-15.67002201,1.933862805, 
546,539234394,77.07924652,-80.87872314,-34.46986008,7.257465839,-3.772098303,-4.697372437,-10.23170662,-18.0803051,18.55880928, 
547,539251061,80.42345428,-81.40049744,-38.93930054,10.00667763,-1.575221777,-2.723011017,-63.22770309,-45.45307922,23.30788231, 
548,539267728,79.33055878,-81.46325684,-39.71742249,12.41351223,6.43543911,3.379307032,-110.6249695,-6.313515663,3.127548456, 
549,539284395,76.02402496,-81.11904907,-37.80610657,12.02543259,9.284902573,9.254375458,-83.97233582,22.53006172,-15.75189304, 
550,539301062,79.23009491,-81.39885712,-41.21088028,10.92943764,-4.309603691,3.582991838,-8.551638603,-32.86802292,10.54725456, 
551,539317729,87.93476868,-82.20449829,-49.67288589,13.25408363,-8.446351051,-7.166523457,20.83039093,-76.25148773,40.54072189, 
552,539334396,90.91915894,-82.69002533,-54.55910492,15.8009491,-3.432743549,-3.661821842,-110.3444443,-37.69103622,29.29515648, 
553,539351063,91.88600922,-83.07273102,-56.49321365,7.661340714,0.27493,3.750872612,-55.85607529,-12.6374197,23.80198479, 
554,539367730,101.0858612,-83.33485413,-64.98989868,7.743122578,1.083856463,0.930270374,47.06523895,-56.98317719,22.88097382, 
555,539384397,108.7607346,-83.43738556,-72.24724579,8.844590187,4.333129883,-4.325872898,29.242939,-45.73446655,19.33084869, 
556,539401064,111.8706665,-83.55153656,-76.39257813,10.47382164,0.600165427,-2.730310678,-59.29406738,-22.89024544,16.74368668, 
557,539417731,114.3424301,-83.6020813,-79.30686951,9.557967186,-1.345598698,0.680869758,-24.23592377,-15.61813259,11.00165176, 
558,539434398,118.972168,-83.4813385,-83.82431793,9.537828445,-0.838959634,0.471829444,9.713381767,-29.31646919,7.707017422, 
559,539451065,123.6514893,-83.25369263,-88.62754059,10.51467896,-0.316843629,-0.403020024,-4.222214699,-34.35704422,6.111831665, 
560,539467732,127.912735,-83.00697327,-92.98800659,10.55133915,0.238173202,-0.937654853,-2.777881145,-32.87596893,6.738548279, 
561,539484399,131.637146,-82.77876282,-96.79032135,9.962649345,1.112141967,-1.256814122,-1.616442084,-29.28147888,7.980777264, 
562,539501066,134.9534607,-82.57920837,-100.0728912,9.767814636,1.060481548,-1.525136352,4.926333904,-25.31041145,8.938329697, 
563,539517733,137.8453522,-82.42415619,-102.923439,10.23353672,0.619928896,-1.492330194,5.229227066,-20.96004677,10.19183731, 
564,539534400,140.2953186,-82.30065918,-105.4812927,10.41094589,-0.112966299,-0.893604815,-3.829635382,-17.79162598,10.99613667, 
565,539551067,142.9057617,-82.14634705,-108.0372543,9.973122597,-0.569696605,-0.699565411,5.977259159,-18.97552681,10.93896008, 
566,539567734,145.6940918,-81.95489502,-110.5957489,9.682937622,0.343318731,-1.15498209,16.58169556,-20.55134773,10.94385052, 
567,539584401,148.4544678,-81.7485733,-113.2041779,9.382324219,1.038951278,-1.17749989,12.01473141,-21.28889084,12.28860855, 
568,539601068,151.4727936,-81.53847504,-115.9686661,9.394743919,1.079972625,-1.203864694,18.29771423,-21.82862282,14.96059704, 
569,539617735,154.6075439,-81.29969788,-118.8691864,9.582576752,1.293853045,-1.000585079,17.30109024,-23.39055252,17.06029129, 
570,539634402,157.821106,-81.0326004,-121.838501,9.718666077,0.428190947,-1.208423257,18.05243874,-24.55793381,18.99062157, 
571,539651069,161.0046997,-80.73400879,-124.7308807,9.724082947,0.14318727,-1.635276437,20.94760895,-25.30953217,19.85683632, 
572,539667736,163.8088226,-80.42145538,-127.3990402,9.62680912,-0.015292198,-1.438904643,11.60322857,-24.66503334,19.72457504, 
573,539684403,166.6342926,-80.05570221,-129.9955292,9.642115593,-0.079601146,-1.518891215,17.27996445,-26.83334923,20.34375572, 
574,539701070,169.2566376,-79.66124725,-132.4552765,9.650156975,-0.074037902,-1.606539249,13.34874821,-27.45807838,20.86371422, 
575,539717737,171.8038788,-79.22042847,-134.7888336,9.649781227,-0.137902811,-1.49646306,16.48204422,-29.2013607,21.34278488, 
576,539734404,174.2716217,-78.73320007,-137.0213165,9.652112961,-0.022069104,-1.844824672,17.87886429,-31.01994705,22.25723839, 
577,539751071,176.5480957,-78.22741699,-139.1607971,9.551409721,-0.129520506,-1.69537437,12.09422207,-31.21064568,23.49858665, 
578,539767738,178.8400116,-77.6558609,-141.2061768,9.608572006,-0.154936925,-1.762477636,18.79160309,-34.20383072,24.60419273, 
579,539784405,-178.9150391,-77.02065277,-143.2354889,9.470047951,-0.021026932,-1.922255635,17.18157959,-37.06039429,27.02671242, 
580,539801072,-176.654892,-76.29769135,-145.2783966,9.383524895,0.047647152,-1.815547824,17.62401199,-41.17843246,30.29763985, 
581,539817739,-174.4006805,-75.45348358,-147.332077,9.169950485,0.191592157,-1.616134405,17.02736092,-47.09379578,34.28713608, 
582,539834406,-172.1217346,-74.42339325,-149.3939362,9.419151306,-0.148657754,-1.566590428,18.53044128,-56.5592041,39.53897095, 
583,539851073,-169.8377533,-73.23854065,-151.4047546,10.09319496,-0.284362197,-2.110488176,22.41027451,-63.91398621,44.68638611, 
584,539867740,-167.6407166,-71.91516876,-153.3310089,9.937880516,-0.805869818,-2.444971561,22.78474808,-70.1006012,49.80105972, 
585,539884407,-165.5201263,-70.45969391,-155.0879364,10.09795284,-0.777270675,-2.614853621,28.67396355,-76.06009674,53.68135834, 
586,539901074,-163.5865784,-68.91183472,-156.6386261,10.02331066,-1.138836145,-2.8345294,29.96880722,-79.93977356,56.21463776, 
587,539917741,-161.7570953,-67.27328491,-157.937912,10.61868572,-0.974154532,-3.232725382,38.643013,-84.23013306,57.38330841, 
588,539934408,-160.2066345,-65.61946869,-159.0281525,11.62880802,-1.864135146,-3.095650911,34.25233841,-84.35768127,57.38318634, 
589,539951075,-158.4869995,-63.93036652,-159.9606781,13.22489357,-2.2978158,-3.17199564,53.73989868,-85.51843262,58.3834877, 
590,539967742,-156.9215851,-62.17665482,-160.8103333,13.81851101,-2.385054827,-2.811544418,49.65364075,-87.7306366,61.60515976, 
591,539984409,-155.4465637,-60.25794601,-161.5140991,14.50806427,-0.94157815,-1.182528019,52.65278244,-96.30103302,65.38754272, 
592,540001076,-154.097641,-57.98883438,-162.0126495,15.78296661,-0.783399045,-0.309238344,56.39822769,-115.8777008,72.23316956, 
593,540017743,-153.0074768,-55.44201279,-162.2396088,17.3618145,-0.176872656,-0.059604615,55.13537979,-132.8376312,75.09182739, 
594,540034410,-152.2814178,-52.65099335,-162.1022491,17.24100494,-0.266313344,0.462959826,51.30665588,-150.3991241,73.04164886, 
595,540051077,-151.1555023,-49.84484863,-161.8697662,16.30931854,-0.969360352,0.017081946,79.46753693,-151.9580383,72.52127075, 
596,540067744,-149.6412811,-47.03936386,-161.2646027,14.55047894,-1.652412176,-1.971007109,119.0235062,-157.917984,62.68706131, 
597,540084411,-147.005188,-44.43303299,-160.5388336,12.71697235,-0.636866331,-5.307386398,190.3035431,-148.7987518,56.80461884, 
598,540101078,-144.7933197,-42.36007309,-159.6422729,8.902997017,0.556333303,-8.829057693,170.6079102,-124.6836548,38.0257225, 
599,540117745,-145.0717468,-40.42955017,-158.2870178,5.910742283,-0.152221829,-9.019047737,38.00050735,-129.5635071,17.40126419, 
600,540134412,-145.3212128,-39.14952469,-156.8620453,8.00389576,-1.360363722,-4.373168945,40.66706467,-100.1959457,-9.226982117, 
601,540151079,-144.9647522,-38.52151489,-155.6160736,3.92300415,-1.139262915,-0.816086411,69.18753815,-63.84784317,-25.31497383, 
602,540167746,-145.7548065,-38.55179596,-154.3322449,7.687601566,4.879318714,1.288936973,1.524858236,-32.42239761,-49.66624832, 
603,540184413,-147.4888458,-39.49688721,-153.3865814,2.929796219,4.841096401,4.242969036,-67.36413574,23.40130615,-66.97488403, 
604,540201080,-149.329361,-40.51580811,-152.1819305,3.056241274,0.193157107,2.367439747,-62.99267578,23.33675003,-78.11856842, 
605,540217747,-151.1701813,-42.1713295,-151.1264954,4.492224693,0.597417653,-1.20842433,-67.61737823,62.86641312,-89.52222443, 
606,540234414,-154.5379944,-44.33760071,-150.0405121,6.365988731,-0.522923052,-1.476500273,-156.3786926,94.21627808,-100.4942551, 
607,540251081,-157.7799072,-47.15785599,-149.0424957,6.124688625,-3.942954063,0.648552775,-150.5415192,138.0675201,-105.6045151, 
608,540267748,-160.1777802,-50.28358841,-147.8564453,6.884159565,-5.615581989,0.910467505,-89.25995636,158.3285522,-110.1812668, 
609,540284415,-161.2657471,-53.61365128,-146.4342651,7.689523697,-7.791427612,-1.517541647,3.101253748,171.2662506,-114.7983246, 
610,540301082,-161.7129364,-57.00699234,-144.6663361,8.809920311,-8.449511528,-3.555741787,61.66905975,173.8756561,-121.1878052, 
611,540317749,-162.3684845,-60.52738953,-142.5394135,9.621367455,-7.99102354,-3.011636019,71.18096924,180.4650269,-127.4620514, 
612,540334416,-162.7055359,-64.12793732,-140.131424,10.17244816,-6.811965466,-2.308043242,109.2440338,185.8418274,-128.2879639, 
613,540351083,-163.7825317,-67.67986298,-137.6299591,10.44831657,-8.43354702,-2.008573055,74.04517365,186.2662201,-119.6028442, 
614,540367750,-165.6786957,-71.05168152,-134.7173004,11.22455215,-6.552889347,-0.66172576,51.60038757,178.7840881,-112.2384567, 
615,540384417,-168.3396301,-74.49819946,-131.296463,11.59208107,-3.786268473,-1.241653323,38.37447357,187.620697,-105.284996, 
616,540401084,-172.7555695,-78.08947754,-127.3991318,10.88007927,-6.345040798,-2.444587708,-35.62384415,203.2170868,-89.60835266, 
617,540417751,-178.2470551,-81.56925201,-122.1395645,11.30071926,-8.92902565,-3.129874468,-16.59581375,203.4669189,-71.50562286, 
618,540434418,171.8596039,-84.89105988,-111.5603256,11.89899921,-7.312890053,-4.995072365,39.28322983,202.2567749,-63.19976044, 
619,540451085,135.743515,-87.5823288,-74.92677307,11.54934788,-4.875793457,-5.232354641,29.57534027,200.2003937,-59.21840286, 
620,540467752,62.29467773,-87.03205109,-0.699425399,11.32732105,-4.470767975,-4.170713902,45.50610733,188.4897766,-56.15070724, 
621,540484419,41.25757217,-84.51530457,21.58487129,11.67676735,-3.638926506,-3.833092213,74.04662323,168.7606049,-55.3347168, 
622,540501086,35.04616928,-81.84156799,29.27149391,11.63481426,-3.370394945,-4.778812408,87.84559631,159.9116974,-55.30859756, 
623,540517753,32.80262756,-79.4102478,32.65172958,11.26932621,-2.859235525,-5.227021694,68.00674438,139.7319183,-53.40389633, 
624,540534420,31.20480156,-77.15099335,35.1208725,9.964831352,-2.475329399,-5.431219578,51.66329575,131.2684174,-45.70536423, 
625,540551087,29.63996506,-75.22105408,37.07806015,9.203579903,-2.19314599,-5.386876106,22.55405045,114.5169144,-33.82483292, 
626,540567754,28.08791924,-73.71120453,38.75363159,8.232434273,-1.770162702,-5.16816473,6.087807655,92.89492035,-19.51751709, 
627,540584421,26.63987923,-72.74092865,40.21095657,7.854084969,-1.328970671,-5.917088509,-0.894952595,63.93615723,-3.715988874, 
628,540601088,25.35070419,-72.40601349,41.42798233,6.599515438,-1.942039967,-6.828171253,-5.504322529,28.36372948,11.46072388, 
629,540617755,24.36650085,-72.85904694,42.44578171,5.911291599,-2.611194611,-6.77272892,1.306432009,-16.20799065,28.5426178, 
630,540634422,24.35227966,-73.8733902,42.57213211,8.324668884,-1.623096108,-5.455629349,8.400511742,-53.680233,27.60447311, 
631,540651089,26.08341026,-75.06516266,41.4288559,10.82544136,8.122886658,0.45195654,39.66719818,-71.58570862,14.32482624, 
632,540667756,25.2978611,-74.84758759,40.69732666,18.08952713,14.22301292,14.58508396,-87.77072144,7.772046089,-15.40841198, 
633,540684423,23.42266083,-74.40716553,41.70643997,7.682817936,-0.70793438,14.95785522,-52.41718292,31.54621315,4.345547199, 
634,540701090,31.2561512,-77.03163147,38.88973999,10.88718033,-5.106805325,-2.655816555,308.0505981,-158.3069,35.90214539, 
635,540717757,33.43815231,-78.93767548,35.77354813,14.21412086,6.522866249,-13.70304775,-50.05247498,-116.6451797,28.82514381, 
636,540734424,32.26783752,-81.20261383,34.64673615,15.23942757,-8.674628258,-7.573750019,-135.238266,-119.576355,64.46819305, 
637,540751091,27.08430862,-82.00019073,36.19364929,16.49474144,-3.508399248,6.1140728,-217.6343994,-33.84897995,35.91671371, 
638,540767758,28.35221672,-83.3111496,36.09474182,3.63577652,1.354081511,5.333797932,71.85923767,-68.99333191,36.3007431, 
639,540784425,33.27114868,-84.85958862,33.94071198,8.297353745,0.855139434,-5.866387367,168.241333,-85.70916748,36.53744888, 
640,540801092,32.74498749,-85.6427536,32.16531372,9.125091553,2.452394009,-1.970960259,-136.137558,-43.22947311,18.58384514, 
641,540817759,33.00892639,-86.38621521,30.50978851,9.487323761,-2.60175705,3.313463211,-81.72303009,-40.185215,18.81292343, 
642,540834426,43.00956345,-87.29029083,21.72359085,11.04786682,-2.481477499,-0.74538219,75.23070526,-59.51990891,10.7785368, 
643,540851093,48.60564804,-87.66100311,15.63880444,12.35805702,-0.969885945,-1.896180511,-27.38896751,-26.03329468,5.068727493, 
644,540867760,54.39917374,-87.89160919,9.316470146,9.717207909,-1.781096101,1.753976703,-29.86562157,-19.08759308,1.962453604, 
645,540884427,69.51384735,-88.21831512,-4.911302567,9.682337761,0.637404323,-0.052778389,55.33150482,-33.65758896,3.868689299, 
646,540901094,82.16295624,-88.35836792,-17.7602005,10.10180283,0.826286614,-1.15898931,-10.08182812,-23.33854103,2.799845695, 
647,540917761,92.55278778,-88.39916992,-28.10169411,9.898610115,-0.826394498,0.010717439,4.743925571,-16.61603355,1.893113494, 
648,540934428,101.5964966,-88.3626709,-36.80827713,10.02817059,-0.157617971,-0.450977921,21.99420166,-13.89352036,-0.020048387, 
649,540951095,106.8723984,-88.29314423,-42.14808655,9.859649658,-0.048097949,0.052545201,-2.116947889,-9.075382233,-1.454347134, 
650,540967762,113.5888748,-88.19268799,-48.71709824,9.628760338,-0.326127142,0.322392434,10.6056776,-12.40703964,-1.179062486, 
651,540984429,120.2204437,-88.05388641,-55.12836456,9.579592705,0.259876609,-0.326767683,15.01141739,-13.98621082,-1.429145575, 
652,541001096,124.4756088,-87.92038727,-59.36680984,9.675553322,0.107719213,-0.41114372,2.734540939,-10.82495022,-1.70127964, 
653,541017763,127.5533066,-87.80144501,-62.34318924,9.698845863,0.009704494,-0.312175155,7.769230843,-8.576320648,-1.560742378, 
654,541034430,129.4495544,-87.70297241,-64.15628815,9.959786415,-0.069622211,-0.397056639,6.648276329,-6.010346889,-1.683695912, 
655,541051097,130.3215027,-87.62776947,-64.99839783,9.845975876,-0.220993996,-0.027758464,3.403057337,-3.451778889,-1.843711138, 
656,541067764,132.1852875,-87.53740692,-66.72545624,9.806855202,0.239946246,0.102843739,9.8696661,-5.85461092,-0.91500771, 
657,541084431,135.2373352,-87.43486786,-69.68839264,9.65574646,0.335779756,-0.150915191,7.096398354,-8.878755569,1.226963997, 
658,541101098,138.7763519,-87.32731628,-73.2348938,9.668658257,-0.009726563,-0.121370561,1.350378633,-10.35901451,2.984815359, 
659,541117765,143.1893311,-87.18408966,-77.62149811,9.592305183,0.284875065,0.060617715,3.456769466,-13.61004066,4.661360741, 
660,541134432,148.1880798,-86.99847412,-82.63636017,9.705180168,0.315652817,0.071218483,0.992403567,-16.80278778,6.617726326, 
661,541151099,153.4132538,-86.77985382,-87.86820221,9.856225967,-0.08207126,-0.236192748,1.644184113,-18.75584221,8.756341934, 
662,541167766,158.2573242,-86.53050995,-92.79338074,9.64168644,-0.11360205,-0.262598395,-2.774968147,-19.69304657,9.890836716, 
663,541184433,162.8316803,-86.24297333,-97.37493134,9.640559196,-0.230995059,-0.495498896,1.696089149,-21.04675865,10.85916519, 
664,541201100,166.947113,-85.9417038,-101.5343246,9.646495819,-0.117002085,-0.711066008,-0.477325648,-20.8944397,11.97320557, 
665,541217767,170.6421051,-85.63866425,-105.2946777,9.698368073,0.074789993,-0.509045482,-1.736154199,-20.06850815,12.97595882, 
666,541234434,173.9785004,-85.30877686,-108.6348495,9.825212479,-0.169708684,-0.576355636,1.98333621,-20.73342705,13.28658962, 
667,541251101,176.6452484,-85.028862,-111.3086472,10.09819031,-0.443748474,-1.059235334,1.725082159,-16.87349892,12.35006714, 
668,541267768,178.5384674,-84.82532501,-113.21772,10.07632446,-0.899673164,-1.293701053,1.072327733,-11.65412617,9.860974312, 
669,541284435,179.6479034,-84.72779083,-114.3009491,9.971833229,-0.994727552,-1.311294913,3.426198483,-4.96619463,6.069852352, 
670,541301102,-179.9045563,-84.71977234,-114.7017441,9.95386219,-0.911670625,-1.233722329,4.484528065,0.478624552,2.450380087, 
671,541317769,-179.9438934,-84.79000092,-114.6207123,9.868862152,-0.610029876,-1.024814129,4.072316647,5.197111607,-0.215434819, 
672,541334436,179.7325592,-84.88779449,-114.2466736,9.882769585,-0.363220066,-0.718363762,4.545639992,6.860708714,-1.776554585, 
673,541351103,179.3193665,-84.99511719,-113.7088852,9.868798256,-0.664817989,-0.961715341,8.942345619,7.434013844,-2.558588266, 
674,541367770,178.5402527,-85.1832962,-112.8487854,9.854586601,-0.38132605,-0.969195426,6.281313896,12.35421658,-3.975459099, 
675,541384437,177.5657501,-85.39431763,-111.7604675,9.899599075,-0.482177913,-0.888076246,8.221916199,13.81709385,-4.698353767, 
676,541401104,176.1608734,-85.6561203,-110.2728348,9.695318222,-0.531076312,-0.916316271,6.303946018,17.03623009,-5.860147953, 
677,541417771,174.3898468,-85.94194031,-108.3955688,9.686545372,-0.50037688,-0.670520127,7.687535763,18.74929428,-6.576193333, 
678,541434438,172.1909332,-86.21902466,-106.06884,9.805165291,-0.302708596,-0.522933125,8.975217819,18.6073761,-7.299254894, 
679,541451105,169.685318,-86.48264313,-103.4585876,9.848367691,-0.380461365,-0.380336463,7.602551937,18.17642593,-7.114470005, 
680,541467772,167.0379028,-86.7224884,-100.7110367,9.858705521,-0.325424939,-0.271982908,7.359140396,17.03245544,-6.428610802, 
681,541484439,164.514267,-86.93496704,-98.08287811,9.77839756,-0.154750869,-0.267182916,7.7006073,15.49036026,-5.081789494, 
682,541501106,162.6157837,-87.13174438,-96.0399704,9.540529251,0.355227053,-0.428528279,10.15854645,14.08646393,-2.503753424, 
683,541517773,161.6383057,-87.30078888,-94.98232269,9.566908836,0.433239639,-0.45538789,6.400643826,11.57807541,0.430959582, 
684,541534440,161.4995422,-87.48363495,-94.7616806,9.957671165,-0.037831016,-0.248225152,6.552744865,11.564641,3.153744698, 
685,541551107,162.2743073,-87.65782166,-95.45925903,9.890182495,-0.050188623,-0.017139744,6.325086117,10.34899807,5.196435928, 
686,541567774,164.0853119,-87.79877472,-97.17951965,9.80450058,-0.250110209,-0.074264012,7.203024387,7.89714098,6.633935928, 
687,541584441,166.121994,-87.94481659,-99.16712952,9.734560013,-0.321372986,-0.199102014,4.695053101,8.273686409,6.793220997, 
688,541601108,168.82164,-88.07563019,-101.7957458,9.78429985,-0.262795478,-0.157055199,6.051873684,7.454424858,7.316846848, 
689,541617775,172.7060699,-88.20223999,-105.5806198,9.815600395,-0.079516172,-0.304678977,7.776340485,7.263624668,8.761865616, 
690,541634442,178.0719604,-88.33798981,-110.8522491,9.969942093,-0.066005558,-0.435738921,7.461753845,8.264595985,10.43741417, 
691,541651109,-174.4971619,-88.48148346,-118.166893,9.875876427,-0.220880643,-0.397674739,8.852461815,9.940747261,12.17234612, 
692,541667776,-165.0126495,-88.59221649,-127.5165634,9.722202301,-0.219446942,-0.187454581,9.921219826,9.989144325,13.18841839, 
693,541684443,-153.8367462,-88.63987732,-138.5704651,9.717431068,-0.231056601,-0.024680793,9.223452568,9.251883507,14.25179482, 
694,541701110,-142.9703064,-88.61322784,-149.3695526,9.725434303,-0.467103213,0.253288656,5.874816418,7.697648048,14.34115505, 
695,541717777,-133.4397583,-88.51377869,-158.7745209,9.870191574,-0.648903012,0.04884921,9.412472725,5.917308331,14.78964615, 
696,541734444,-125.6576309,-88.37876129,-166.4932098,9.721425056,-0.646532953,0.129248321,5.716747761,5.482980251,14.47841358, 
697,541751111,-119.8751526,-88.20419312,-172.1427765,9.687833786,-0.778483927,0.115151875,9.846940041,3.755670547,14.54277611, 
698,541767778,-115.2518311,-88.01210022,-176.6550446,9.820009232,-0.614218116,0.059153732,8.518305779,3.504909277,14.62866879, 
699,541784445,-111.5396576,-87.7970047,179.7211914,9.752163887,-0.807524681,0.031546623,7.168310165,3.075934649,15.29084873, 
700,541801112,-108.4700241,-87.56481934,176.7491302,9.661097527,-0.690554678,0.067106143,7.746992111,2.924986362,15.81874084, 
701,541817779,-106.3791046,-87.31270599,174.7237701,9.68121624,-0.751502573,0.209061638,5.790728569,1.55026114,16.33735466, 
702,541834446,-105.0996857,-87.02975464,173.5425873,9.820837975,-0.705314457,0.195792422,7.737490177,-0.343255401,17.55122566, 
703,541851113,-104.1809006,-86.72386169,172.6701202,9.775362015,-0.720510006,0.248079747,4.61442852,-0.995317161,18.75060844, 
704,541867780,-103.7702484,-86.38762665,172.3532867,9.770340919,-0.861838281,0.157810986,7.418550968,-2.889789343,20.13222885, 
705,541884447,-103.7006607,-86.02936554,172.3148956,9.725585938,-0.613113642,0.135142937,3.630503416,-4.088325024,21.19280243, 
706,541901114,-104.0080566,-85.64199066,172.6109467,9.610976219,-0.930658221,0.294009387,1.040646076,-5.954932213,22.52344131, 
707,541917781,-104.7466431,-85.21569824,173.3685455,9.694717407,-1.020535946,0.25211522,2.76366806,-9.008374214,24.15143967, 
708,541934448,-105.7546387,-84.73835754,174.3648834,9.705203056,-0.926279187,0.068673104,0.846399724,-11.73899364,26.51690483, 
709,541951115,-106.6513367,-84.21653748,175.2644501,9.70191288,-0.99245137,-0.153683424,1.694772601,-12.89061546,28.88464165, 
710,541967782,-107.3222275,-83.63806915,175.9292908,10.06624985,-0.97785306,-0.174549997,1.180545568,-13.34695625,32.22269058, 
711,541984449,-107.775177,-82.96987915,176.3843536,10.09299374,-0.996480703,-0.057815604,1.70486784,-14.30252647,37.53191376, 
712,542001116,-108.1518707,-82.18742371,176.7784882,10.20901108,-0.5269835,0.203633592,2.605638504,-16.57575035,43.98487091, 
713,542017783,-108.7266617,-81.25746918,177.4117126,10.17353153,-0.562558174,0.05498052,4.860845089,-22.04042816,51.46825409, 
714,542034450,-109.3564377,-80.17247009,178.0623627,9.899479866,-0.665794253,-0.076213397,2.476119518,-26.41015816,59.75802994, 
715,542051117,-110.3269119,-78.94406128,179.1152954,9.668663979,-0.826929986,0.235362619,5.623378754,-35.01922226,65.72011566, 
716,542067784,-111.6414261,-77.60248566,-179.2971649,10.31065845,-0.541432738,0.373782843,16.10513115,-46.15256882,68.50020599, 
717,542084451,-113.2549286,-76.14348602,-177.3281403,10.79241371,-0.35058555,0.096339241,19.93971443,-57.49426651,70.93668365, 
718,542101118,-114.8826523,-74.6505661,-175.3289032,11.51814651,-0.080912709,-0.155129865,20.08761978,-63.43640137,69.73904419, 
719,542117785,-116.3990173,-73.27731323,-173.151474,12.65996265,-0.611487329,-0.249313623,36.20903397,-67.49723816,58.97076797, 
720,542134452,-117.670845,-71.80646515,-170.828476,13.20397568,-2.56777668,-0.708319485,58.25265503,-76.68362427,59.92214584, 
721,542151119,-118.3704071,-70.08318329,-168.9098969,12.06997395,-2.427455664,-2.567587614,68.41809082,-81.10574341,73.94720459, 
722,542167786,-119.3581161,-68.26371002,-166.8633118,11.73699951,0.024142243,-4.207103729,57.0519371,-90.28672791,74.87023163, 
723,542184453,-120.3827972,-66.68197632,-165.2601166,11.49690723,0.917931795,-5.181404591,28.82661247,-78.53746033,64.33823395, 
724,542201120,-121.6155624,-65.44734192,-164.2875214,10.96561146,-0.091354102,-2.847467184,-19.28676605,-57.6946907,51.7819252, 
725,542217787,-122.7914505,-64.36602783,-164.0200958,8.61161232,-1.574270725,-0.684916019,-54.73031998,-39.55738449,51.79639435, 
726,542234454,-124.6228256,-63.46783829,-163.7294464,8.8285532,2.926983833,-0.730147243,-92.93679047,-35.52005768,41.10945129, 
727,542251121,-127.2054138,-62.89915848,-164.012558,7.271881104,1.284652472,-0.113976002,-168.8739777,-13.02604485,32.72140121, 
728,542267788,-130.0190277,-62.44288254,-164.1442108,7.001252651,-0.723326087,0.141051561,-174.6302643,-13.465868,24.28262901, 
729,542284455,-132.5457306,-62.23439789,-164.5005798,7.572375774,-0.998891771,-0.688783824,-169.3225708,-0.029835436,16.57004738, 
730,542301122,-134.7321167,-62.34809875,-165.0424957,7.70420599,-1.737141013,-0.55780381,-158.7594299,16.41037941,6.122549057, 
731,542317789,-136.3088837,-62.69656754,-165.6331635,7.896526337,-1.856458187,-0.682070613,-124.8265686,27.11676407,-2.366499901, 
732,542334456,-137.4493561,-63.29881287,-166.223053,7.961602211,-1.366438746,-0.701474667,-98.73782349,38.0844574,-12.35727024, 
733,542351123,-138.1504822,-64.13865662,-166.7279205,8.504379272,-1.60839963,-0.945661187,-67.997612,47.05130386,-23.29651642, 
734,542367790,-138.500061,-65.21743011,-167.1791687,8.718859673,-1.819757581,-0.871726394,-44.21100235,56.74481201,-33.76899719, 
735,542384457,-138.5078278,-66.52426147,-167.4932404,8.857913971,-1.733365774,-1.045940161,-16.41193771,64.51568604,-45.56318665, 
736,542401124,-138.3939514,-68.11656952,-167.677475,9.089842796,-1.639489174,-1.248384833,-2.106450319,74.99497223,-59.55035019, 
737,542417791,-138.2606201,-69.95537567,-167.6101837,9.362755775,-1.676353574,-1.436725736,13.04351425,82.10912323,-73.79749298, 
738,542434458,-138.3416748,-72.05606842,-167.2575531,9.823346138,-1.357425094,-1.491674662,16.41990852,90.18855286,-88.3354187, 
739,542451125,-138.7918243,-74.36260986,-166.496994,10.10557652,-1.471304893,-1.223075986,17.97212601,95.68762207,-100.7961197, 
740,542467792,-139.9043732,-76.81748962,-165.0971832,10.65463066,-1.801860332,-1.106972218,15.91467762,98.78349304,-111.1313629, 
741,542484459,-141.8887329,-79.37749481,-162.9185181,11.33932304,-2.00855875,-0.851896763,10.21431351,102.8240204,-117.1021042, 
742,542501126,-145.0284424,-81.99369049,-159.6226501,11.48279476,-2.638525248,-0.778051078,8.170038223,107.6678619,-118.4540329, 
743,542517793,-151.2399445,-84.54235077,-153.304184,11.56107712,-3.179905653,-0.961746931,5.29479599,106.8821793,-117.6598969, 
744,542534460,-165.9565887,-86.81040192,-138.3923035,11.29424953,-3.553684235,-1.396937132,10.83097076,101.7584381,-111.2146683, 
745,542551127,148.5319061,-88.24665833,-92.69975281,11.39216232,-4.213706493,-1.79445076,10.30283165,96.63375854,-101.136734, 
746,542567794,90.94708252,-87.59092712,-34.90967941,11.48220444,-4.253682137,-1.596611023,12.05612469,88.40617371,-89.17217255, 
747,542584461,70.14444733,-86.02871704,-13.95836449,10.79484177,-4.654331207,-1.158460617,8.802900314,84.52005768,-78.90071869, 
748,542601128,62.35464859,-84.49668884,-5.969014645,10.24855137,-4.623982906,-0.873748541,12.16569901,73.92738342,-67.46497345, 
749,542617795,58.55498123,-83.1663208,-1.854574442,9.591619492,-4.256186962,-1.438224554,19.3325634,63.21562958,-55.79668808, 
750,542634462,55.60232162,-82.05115509,0.98987031,9.752552986,-3.430808067,-1.88235569,-5.956768036,55.632267,-43.73525238, 
751,542651129,52.88806534,-81.19083405,3.15123868,9.196113586,-3.675048351,-1.741354585,-32.55638885,46.37606812,-30.37409019, 
752,542667796,50.43079758,-80.61803436,4.949931622,8.773843765,-4.220692158,-1.928050518,-38.81077194,35.62520218,-15.93458176, 
753,542684463,48.34827042,-80.35280609,6.401040077,8.545244217,-4.520206928,-2.674263239,-36.95991135,22.25048637,-2.311260223, 
754,542701130,46.45106888,-80.33963013,7.663368225,8.347963333,-4.390238762,-3.062728167,-36.98179626,10.88836288,8.386385918, 
755,542717797,45.09683228,-80.61014557,8.524151802,7.955367565,-4.590505123,-3.148323536,-28.08380127,-4.150663376,17.92427444, 
756,542734464,44.62748337,-81.14825439,8.711003304,8.156722069,-4.156980515,-3.33742857,-14.80282688,-20.54849434,24.3229847, 
757,542751131,46.98041916,-81.94838715,6.864634991,7.909920216,-3.679668188,-4.34002924,33.91471863,-44.02738571,23.3097229, 
758,542767798,50.70755768,-82.4726181,3.638600111,11.40139008,3.988138199,-1.577798247,34.18533325,-39.29563141,6.604836464, 
759,542784465,50.2296257,-82.3169632,3.775034428,11.54096508,5.061309338,4.439360142,-18.33140373,7.941434383,-6.297756195, 
760,542801132,54.46177673,-82.35494232,0.979280949,9.458821297,5.705235481,3.38693738,89.86941528,-17.97540092,-11.61786652, 
761,542817799,58.93523788,-82.52231598,-2.627096653,12.09912109,5.552034855,-4.339643955,56.01335144,-28.21955109,-6.957985401, 
762,542834466,57.12034225,-82.68297577,-2.978768826,12.61568737,-1.070245862,-2.177588463,-127.8784637,-6.284817696,7.061818123, 
763,542851133,56.63090515,-82.95539093,-3.77832365,10.72588444,-5.802893162,3.255883455,-75.02088928,-12.79299641,10.72119999, 
764,542867800,60.9455719,-83.36180115,-7.242102623,9.961784363,-2.90292716,1.401143193,54.65144348,-32.64769363,8.254889488, 
765,542884467,64.48622131,-83.63909912,-10.87286091,9.722641945,0.300290436,0.348885208,-1.799150229,-28.3887825,3.668223143, 
766,542901134,68.68945313,-83.91862488,-15.07673073,9.431751251,1.279176235,1.275240064,3.656045675,-30.59222603,4.702188015, 
767,542917801,74.14098358,-84.19580078,-20.29096603,9.473313332,2.581197023,-0.817786098,18.11988449,-34.85291672,5.600402355, 
768,542934468,77.37282562,-84.37523651,-23.96942139,9.742974281,2.031970263,-1.040426254,-23.55850792,-22.80835915,5.212153912, 
769,542951135,80.4563446,-84.52646637,-27.35365868,9.40575695,0.048574954,0.469867438,-15.00717258,-19.8666172,5.329105377, 
770,542967802,84.63143921,-84.65632629,-31.4924221,9.760007858,-0.120493978,0.333370268,5.386899948,-23.07100105,4.870623589, 
771,542984469,88.96416473,-84.74924469,-36.00097656,9.757648468,-0.240263656,0.440742791,-7.278205395,-24.09987259,4.346639156, 
772,543001136,94.87428284,-84.80503082,-41.92423248,9.681879997,0.309667856,0.449289083,2.829970121,-31.07036972,4.567618847, 
773,543017803,101.1518478,-84.79941559,-48.34703064,9.584960938,0.763436735,-0.064270489,-4.982939243,-33.46832275,4.670392513, 
774,543034470,107.5161514,-84.72303009,-54.87165833,9.493952751,0.624017358,-0.251918614,-5.844440937,-34.6146698,4.54444313, 
775,543051137,113.7728424,-84.58662415,-61.30060577,9.813193321,0.723124146,-0.408714324,-6.527867794,-35.35866547,5.142131329, 
776,543067804,119.8571854,-84.40312195,-67.65634155,10.02775383,0.500964046,-0.39234966,-12.40023041,-36.46493912,6.797006607, 
777,543084471,125.6975708,-84.1836853,-73.70594025,10.31732655,0.356080592,-0.770067632,-8.640558243,-36.32447815,8.574906349, 
778,543101138,130.7330933,-83.96574402,-78.95116425,10.214818,0.494868428,-0.871666551,-8.781511307,-32.46295929,9.926602364, 
779,543117805,135.4664001,-83.75653076,-83.82368469,10.0558815,0.764520705,-0.577097356,-4.566154003,-30.26695824,12.27712345, 
780,543134472,140.4127197,-83.53310394,-88.79472351,9.970199585,0.629367948,-0.842050254,2.454026699,-30.93073654,15.61124802, 
781,543151139,145.250824,-83.29946136,-93.70297241,9.906287193,0.612077475,-0.770419121,-0.168436274,-30.42863274,18.51245689, 
782,543167806,150.3776093,-83.01185608,-98.78361511,9.723258018,0.415494353,-0.792274654,7.02501297,-32.83371353,21.61365318, 
783,543184473,155.3473053,-82.68348694,-103.701828,9.637682915,0.593414068,-0.884126842,7.469208241,-33.1731987,23.76303101, 
784,543201140,160.0452118,-82.29612732,-108.322998,9.625887871,0.392254144,-1.064184904,9.057067871,-34.15042877,24.75555229, 
785,543217807,164.3269653,-81.88253021,-112.4781952,9.73832798,0.131818742,-1.525802374,12.03594494,-33.02134323,25.11792183, 
786,543234474,168.0134125,-81.47746277,-116.0767136,9.737166405,-0.098244399,-1.605744362,9.611335754,-29.98095512,24.55953979, 
787,543251141,171.291748,-81.0717926,-119.2171249,9.75401783,-0.148094952,-1.572300792,12.51167774,-28.01165962,23.77004242, 
788,543267808,174.1867065,-80.65888977,-121.9926453,9.742889404,-0.295962155,-1.603108883,11.33557034,-26.85049248,23.10929871, 
789,543284475,176.7980499,-80.22309875,-124.491539,9.657485962,-0.364555001,-1.538823128,10.88177299,-26.9780941,22.77196312, 
790,543301142,179.2132568,-79.76477051,-126.7711563,9.822938919,-0.28700462,-1.672293544,12.27855873,-27.26480675,22.78766632, 
791,543317809,-178.5684814,-79.30332947,-128.8570709,9.71739769,-0.459911495,-1.843594074,12.07972336,-26.52825546,22.87625694, 
792,543334476,-176.5258026,-78.83006287,-130.7649994,9.657529831,-0.53256911,-1.84253931,12.2179203,-26.4191227,22.88496971, 
793,543351143,-174.6251221,-78.32821655,-132.5205536,9.538123131,-0.600057602,-1.741578579,12.84817696,-27.39951134,23.08600807, 
794,543367810,-172.8227844,-77.78326416,-134.1604309,9.643095016,-0.485792786,-1.851844549,13.93335152,-29.2746582,23.77266884, 
795,543384477,-171.1628113,-77.21543884,-135.6948242,9.68732357,-0.519205749,-1.867450237,11.7691164,-29.97299385,24.42877769, 
796,543401144,-169.5171204,-76.61802673,-137.1384735,9.710287094,-0.774390936,-2.286630392,16.41711617,-31.0699501,25.28652, 
797,543417811,-168.0024567,-76.02814484,-138.5042725,9.651807785,-0.777855456,-2.308441401,13.29773521,-29.97020149,25.83594704, 
798,543434478,-166.5406189,-75.40436554,-139.7856445,9.462382317,-0.840970933,-2.023271799,15.24073601,-31.37457275,26.67464256, 
799,543451145,-165.1208191,-74.71821594,-141.0040131,9.479820251,-0.769886136,-2.257395267,16.5961895,-34.35886002,28.2623558, 
800,543467812,-163.759613,-73.99362946,-142.2047882,9.503878593,-0.876403928,-2.324440718,14.32367897,-35.7387886,30.28470039, 
801,543484479,-162.3930206,-73.20696259,-143.363205,9.607199669,-0.773235738,-2.38045001,17.33757591,-38.5264473,32.41212082, 
802,543501146,-161.0652466,-72.3543396,-144.4844513,9.707334518,-0.996108353,-2.439466476,17.41511536,-41.43597031,34.84420395, 
803,543517813,-159.7633362,-71.441185,-145.5522003,9.824129105,-1.325067997,-2.424986124,19.22296524,-44.05955505,37.00385284, 
804,543534480,-158.4930878,-70.47145844,-146.5765533,9.884171486,-1.621635795,-2.524568796,20.10795021,-46.35730743,39.34079361, 
805,543551147,-157.2785492,-69.47085571,-147.5819855,10.00737095,-1.825349808,-2.544452906,18.19213104,-46.99567795,41.59420395, 
806,543567814,-156.0594482,-68.42871857,-148.5354156,10.24140549,-1.851861477,-2.727796555,21.75115395,-48.45897293,43.46817398, 
807,543584481,-154.8615875,-67.35421753,-149.4427338,10.54475021,-1.745566487,-2.802330971,23.42339706,-49.34532547,45.23442078, 
808,543601148,-153.6295471,-66.22782898,-150.3399506,10.75014782,-1.79190135,-2.836535692,26.43162346,-50.88275146,48.27853775, 
809,543617815,-152.3751068,-65.06481171,-151.2708588,11.04147816,-1.972424865,-2.907644272,26.35492134,-50.98588181,51.99657059, 
810,543634482,-151.086792,-63.80664444,-152.2206116,11.74983406,-2.193542719,-2.690793276,27.85668182,-54.13576889,57.19651794, 
811,543651149,-149.7499695,-62.46891022,-153.2119293,12.207057,-1.694929481,-2.466729164,29.10526276,-55.87211609,62.76622772, 
812,543667816,-148.5157776,-61.01629257,-154.2165375,12.3701601,-2.188444138,-1.937228322,22.90203857,-59.55220795,68.97571564, 
813,543684483,-147.1734009,-59.4017601,-155.2011261,13.12123299,-2.469912529,-1.707267046,31.20624733,-65.82992554,76.15778351, 
814,543701150,-145.8885956,-57.65399551,-156.1697998,14.06121159,-1.630537987,-1.387075543,29.44442368,-70.24810791,82.87786865, 
815,543717817,-144.7346039,-55.73539734,-157.0321503,14.13984203,1.098846436,-0.305996537,27.90377045,-78.06233215,88.60642242, 
816,543734484,-143.8379974,-53.62100601,-157.4239044,12.68256474,2.018443346,-0.290958583,36.46535492,-94.71429443,84.86869049, 
817,543751151,-143.1037903,-51.23960114,-157.3878174,12.1854372,-0.060263745,-1.385865927,47.54753113,-115.2962341,83.8247757, 
818,543767818,-141.8967285,-48.70206833,-157.2962799,11.72233963,-2.311435938,-3.96646595,78.33994293,-122.6928635,89.76190948, 
819,543784485,-140.9446716,-45.98253632,-157.0563965,12.01429176,-3.639259577,-4.868022442,69.36397552,-133.4358673,94.0370636, 
820,543801152,-140.4750519,-43.46504593,-156.8418732,12.98486042,-0.687283576,-3.12563467,38.84362411,-122.5302353,88.49778748, 
821,543817819,-139.4008179,-41.6758194,-156.9654999,10.86865616,-0.008911701,-3.513429642,60.99462128,-78.52097321,73.26026917, 
822,543834486,-139.2254028,-40.03500748,-156.8736877,7.561210155,0.884543061,-3.765033007,15.62535572,-77.24489594,61.09553909, 
823,543851153,-138.8941193,-38.5880928,-156.7118683,7.407024384,-0.606023192,-4.389566422,27.47153091,-70.35372925,51.37127304, 
824,543867820,-138.7019501,-37.54296875,-156.7378235,4.717636585,-3.128257275,-4.085653782,11.97687626,-46.2035675,42.45600891, 
825,543884487,-140.0133514,-37.00295639,-156.5763855,10.08480453,0.513590097,0.170494795,-71.42668152,-29.42523384,15.48838806, 
826,543901154,-139.9516449,-37.96453476,-157.5644836,5.926812172,3.951505423,2.980731726,-30.98456573,74.57418823,-0.805544317, 
827,543917821,-140.0614014,-38.83195496,-158.1713257,2.665727377,2.323023796,2.156260014,-27.81692123,58.33696747,-11.26213169, 
828,543934488,-140.5623474,-40.20016098,-158.9321442,4.674948215,1.480785966,-1.239970207,-57.70072937,85.77134705,-24.98672867, 
829,543951155,-141.6031647,-42.13508224,-159.8791199,5.900238991,-0.190840751,-2.167341232,-98.46385193,117.3444824,-39.24853516, 
830,543967822,-142.2279053,-44.65302658,-161.0656891,6.407249451,-2.615693092,-1.214256048,-84.99060059,150.9732666,-52.0449791, 
831,543984489,-142.0559082,-47.52865219,-162.2601624,6.893537045,-2.310173512,-0.713687301,-39.88766479,166.8572235,-66.22945404, 
832,544001156,-141.2437439,-50.69211578,-163.3968811,7.814258575,-1.850533962,-1.660171747,-1.387478232,176.6642303,-82.32922363, 
833,544017823,-140.0387115,-54.14356995,-164.4929199,9.207462311,-2.429903269,-3.249745369,21.68920708,185.635849,-99.88453674, 
834,544034490,-138.7284393,-57.93555069,-165.6374817,10.57765102,-2.752856016,-3.462050676,23.14718437,197.7822723,-118.4915695, 
835,544051157,-137.1804352,-61.92520905,-166.8715363,11.15678406,-2.471648216,-3.346325874,30.32908058,202.7193146,-132.2273407, 
836,544067824,-136.0022583,-66.00063324,-168.1389313,12.00958633,-0.283783168,-3.786483049,3.908951044,200.7053375,-143.1932983, 
837,544084491,-135.4444427,-70.17871094,-169.8605042,12.64528656,-0.215006426,-3.602934361,-60.83833313,206.5568237,-146.7345428, 
838,544101158,-134.707489,-74.41424561,-172.3306122,13.33521557,-1.386124611,-3.509638548,-95.4838028,211.9527435,-146.8065338, 
839,544117825,-133.1566772,-78.64691925,-175.9209747,13.25303841,-1.597574234,-3.817389965,-115.0218353,212.5181427,-147.2672119, 
840,544134492,-128.7368774,-82.85463715,177.4855194,13.77943611,-1.373865962,-4.124139309,-123.9950485,213.5052185,-147.9858246, 
841,544151159,-108.5964966,-86.85309601,155.2637634,13.97185516,-1.632871866,-4.276246071,-118.88797,217.6012115,-148.8028107, 
842,544167826,-12.78391361,-87.44763947,57.71433258,14.50681782,-2.864123821,-4.336707592,-98.50951385,213.1597595,-145.6439362, 
843,544184493,15.02928543,-84.05567932,28.89719963,14.98974323,-5.747889996,-5.011168957,-54.91950226,195.0422974,-129.8801117, 
844,544201160,21.99633217,-80.57262421,21.82930183,15.80643272,-6.287957668,-6.677633286,-0.87760371,180.3268127,-119.2764969, 
845,544217827,25.47508621,-77.09597778,18.98140335,13.54402351,-5.953677654,-8.031100273,42.63732147,178.2023773,-113.5367737, 
846,544234494,28.28222656,-73.95066071,17.13796806,9.49034977,-3.637425423,-7.416285992,62.9732933,156.5417633,-109.2887955, 
847,544251161,31.66028786,-71.56309509,15.21591473,8.427347183,-5.729581833,-7.304163456,94.19597626,107.8289795,-100.4881744, 
848,544267828,36.16816711,-70.02622223,13.41871166,6.418234348,-8.403525352,-9.344517708,170.3483887,57.64482498,-80.22207642, 
849,544284495,39.83272552,-69.5519104,12.05442333,4.801077843,-6.649075985,-9.235344887,144.8449249,6.025559425,-39.17725754, 
850,544301162,42.0484581,-70.02635193,10.85068226,6.484341145,-1.115607142,-6.85601902,66.95459747,-36.76749802,0.391126752, 
851,544317829,43.52985764,-71.06268311,9.634723663,7.274212837,-1.818167329,-6.303207874,21.79348564,-61.01722336,24.96248627, 
852,544334496,44.69426727,-72.54180908,7.991585255,7.954274178,-3.342971087,-6.446657181,-22.15356827,-83.9930191,40.19229507, 
853,544351163,45.75513077,-74.15667725,5.78263855,8.833703041,-0.175818637,-4.904172421,-61.71765137,-94.00032043,42.52087402, 
854,544367830,43.78284836,-74.96976471,4.839926243,14.31777763,3.376594782,-0.229084998,-171.3021851,-44.02750778,24.16299248, 
855,544384497,37.98929214,-74.35933685,5.953008652,14.61173725,8.214709282,12.66392517,-281.7135315,40.47811508,-10.10249519, 
856,544401164,31.45337677,-73.42375946,8.508798599,9.032710075,0.43202424,18.44125366,-243.3439026,71.53569031,3.571386576, 
857,544417831,34.60468292,-75.39804077,5.88882494,7.195382118,-18.69998169,1.588087559,39.23880768,-121.2341537,29.71645546, 
858,544434498,43.45090485,-78.06286621,-0.452806443,15.53726006,-14.07527161,-7.219188213,162.2556915,-177.8933868,33.20529938, 
859,544451165,46.22950745,-78.52455139,-3.746283293,17.72371864,-0.137250096,-3.803034067,-24.60313034,-46.71513748,-8.50106144, 
860,544467832,51.10314178,-78.92973328,-7.69590044,9.392043114,7.570541859,-2.294896603,62.13012695,-49.61558151,-11.95869541, 
861,544484499,54.67759323,-79.67736053,-12.15662384,11.62874222,7.197889805,-3.524358273,-46.60218811,-65.45910645,6.200630665, 
862,544501166,53.87285995,-80.26328278,-13.62867832,8.06494236,3.607415438,0.857422829,-133.4941864,-31.81889343,20.0043354, 
863,544517833,58.02605057,-81.16427612,-17.72742081,8.735760689,-2.683162689,-0.456310451,8.164968491,-61.9473114,23.01301003, 
864,544534500,60.56538391,-81.57427216,-20.46718407,10.88139057,-1.142555594,-1.138516784,-8.44156456,-32.58840179,8.999931335, 
865,544551167,62.70856857,-81.80916595,-23.1017189,10.03210545,-1.90639329,1.274266839,-26.10173607,-25.61564255,1.998081565, 
866,544567834,68.01445007,-82.07065582,-27.97487068,10.39938259,0.281510323,0.667026579,30.60240364,-42.61782455,-2.404857635, 
867,544584501,72.16963959,-82.25881958,-32.27281952,10.91522598,1.686019659,-1.202363372,-4.423480511,-35.72739029,-0.931416452, 
868,544601168,74.36689758,-82.37705231,-34.86429977,10.52277946,0.740500629,-0.55290854,-20.56409264,-20.79007339,1.25210619, 
869,544617835,76.68067932,-82.55708313,-37.03624344,9.576272964,2.16975522,-0.005503608,11.30851364,-18.09142685,6.638951302, 
870,544634502,78.69476318,-82.8360672,-39.0685463,9.462490082,2.285563946,0.424310863,1.522050142,-17.57543373,13.50312805, 
871,544651169,81.88169098,-83.22813416,-42.16531754,9.550990105,1.22072053,0.899258018,8.37393856,-25.06013107,19.85025024, 
872,544667836,86.43991089,-83.65885162,-46.47681427,9.674338341,0.833748341,0.325131804,18.06350708,-30.8976078,23.158741, 
873,544684503,91.43978882,-84.05680084,-51.31138992,9.704652786,0.683683157,-0.0967118,13.13686943,-30.36895752,23.76038551, 
874,544701170,96.95737457,-84.41464996,-56.6553421,9.648665428,0.636453927,-0.143672287,13.57288742,-29.45305061,24.22485924, 
875,544717837,103.3105392,-84.716362,-62.88756561,9.52947998,0.918331623,0.005302057,10.45753288,-30.58989716,24.51512909, 
876,544734504,110.8495865,-84.94189453,-70.31830597,9.452605247,0.690187693,-0.054026276,9.813991547,-33.35153961,25.20054436, 
877,544751171,119.2863464,-85.05090332,-78.63774872,9.713655472,0.418111116,-0.497086108,10.42513275,-35.58378601,24.83644676, 
878,544767838,127.1137009,-85.05323792,-86.49015045,9.899578094,0.382742375,-0.621634722,1.726600289,-32.85214233,22.85440636, 
879,544784505,134.3363037,-84.96518707,-93.72233582,9.967315674,0.182950035,-0.792286217,2.533019066,-30.98765945,21.12554741, 
880,544801172,140.4616852,-84.82669067,-99.91426086,9.984708786,0.197247609,-0.932115138,-1.067765594,-27.43358231,19.21051025, 
881,544817839,145.7779388,-84.66182709,-105.3331833,9.900080681,0.010119345,-0.870337844,-3.352438688,-24.74384308,18.39670753, 
882,544834506,150.7695618,-84.45787048,-110.3925476,9.807435989,0.188482568,-0.825181246,-1.262255549,-24.49475479,18.56257057, 
883,544851173,155.621109,-84.20904541,-115.3286438,9.691702843,0.297132105,-0.69828254,-2.204409599,-25.48377419,19.88345337, 
884,544867840,160.666153,-83.88964844,-120.3908386,9.667011261,0.43623662,-0.743643165,2.021145821,-28.46407127,22.61629677, 
885,544884507,165.9064331,-83.51441956,-125.605217,9.788305283,0.549579442,-0.857521296,4.841058254,-30.39565659,26.92094612, 
886,544901174,171.2816925,-83.054039,-130.9246368,9.609734535,0.663297176,-0.775631726,6.919297695,-33.42802048,31.65214539, 
887,544917841,176.5476379,-82.4656601,-136.1320953,9.509525299,0.731199384,-0.638394713,7.37031889,-38.2366333,35.94460297, 
888,544934508,-178.4172974,-81.74220276,-141.1011505,9.643866539,0.510461748,-0.878002822,8.13794899,-43.0384407,40.7798996, 
889,544951175,-173.8673859,-80.89985657,-145.6596375,9.664437294,-0.071031451,-1.177626252,3.954211235,-46.62363434,45.11721802, 
890,544967842,-169.7338715,-79.94597626,-149.7949829,9.736755371,-0.399115384,-1.429556489,4.676973343,-49.74101257,49.56233215, 
891,544984509,-166.0736237,-78.90484619,-153.4548187,9.959773064,-0.446148515,-1.528355718,5.078635693,-51.62469482,53.03526688, 
892,545001176,-162.794693,-77.78163147,-156.677002,9.902568817,-0.719641328,-1.685442448,8.720209122,-53.44322586,56.25710678, 
893,545017843,-159.8734436,-76.57271576,-159.4889832,9.775291443,-0.847688317,-2.05283165,12.07184696,-55.74614716,59.23942566, 
894,545034510,-157.2581024,-75.295784,-161.9208832,9.864255905,-0.775519073,-2.393956184,16.68815613,-57.37541962,61.55856323, 
895,545051177,-154.9215393,-73.95122528,-163.9680481,9.721199036,-1.361420155,-2.825046062,23.05981827,-59.57419968,63.02825546, 
896,545067844,-152.9117126,-72.60586548,-165.6914368,9.754589081,-1.506435871,-2.630831242,22.85542107,-58.44853973,62.76977539, 
897,545084511,-151.1235962,-71.2095871,-167.0542908,10.14790821,-1.82705307,-2.523925304,30.85512733,-61.1071701,62.2918396, 
898,545101178,-149.5007935,-69.77732086,-168.2088623,10.76346684,-1.920810223,-2.664372921,33.34937668,-62.24012756,63.22233582, 
899,545117845,-147.8304596,-68.28650665,-169.2819061,12.35301971,-2.210476398,-2.6302104,41.38355637,-63.46665192,66.758461, 
900,545134512,-145.9951935,-66.82180786,-170.5656433,13.34371853,-2.614923239,-2.119973421,40.21397781,-56.62904739,73.17485046, 
901,545151179,-144.1378174,-65.11305237,-171.7562256,14.28410339,-1.628138661,-0.959971547,47.47775269,-66.45333099,83.12137604, 
902,545167846,-142.5940247,-63.16986465,-172.8546143,14.69965935,-0.987217247,0.065350354,34.59250259,-75.48194122,93.20490265, 
903,545184513,-141.413269,-60.93034744,-173.6684418,15.26620674,-2.134571552,0.697658122,28.9667263,-90.88430786,101.3361816, 
904,545201180,-140.435791,-58.52892303,-174.2673645,15.56605434,-2.317429066,0.866266906,28.87160301,-99.53980255,105.4658203, 
905,545217847,-139.7828674,-56.05548096,-174.5740204,15.1930275,-2.644269228,0.886640847,24.95726776,-106.6133118,103.3868408, 
906,545234514,-139.2493286,-53.58909607,-174.7811737,14.30001354,-0.935116827,1.034332395,23.10829735,-107.0397034,102.1099396, 
907,545251181,-138.1685638,-51.25567245,-174.9822998,11.76001263,-0.503854871,-1.403464794,56.51935577,-99.4862442,98.51860046, 
908,545267848,-136.7699127,-49.03737259,-175.177475,7.144115925,-2.095549583,-5.664081097,76.14611053,-92.1572113,96.12683105, 
909,545284515,-137.1525574,-46.61470795,-174.8474731,6.551733494,-1.660634756,-7.451704025,-7.064620972,-114.4443665,90.12592316, 
910,545301182,-137.9929657,-44.73081207,-174.8722992,8.480636597,-2.250348806,-6.043141365,-50.28736115,-81.84124756,77.68647766, 
911,545317849,-138.3809967,-43.46691513,-175.1379242,7.512560844,-3.380825996,-3.35461092,-33.18967056,-47.98148346,59.76857376, 
912,545334516,-138.1041718,-42.55688095,-175.4251404,5.157812119,-2.591506004,-1.00466466,6.033201694,-31.43191338,46.44590759, 
913,545351183,-137.2819519,-42.139328,-175.7366638,6.973179817,1.290119648,0.535139561,37.92345047,-8.328184128,27.75753784, 
914,545367850,-136.1648254,-42.62472153,-176.6742706,4.921173573,4.407234192,0.57901603,30.2786293,50.59291458,10.98629665, 
915,545384517,-136.1182556,-43.42685318,-177.6517334,3.655762434,1.582296848,0.632311106,-36.07054138,65.33153534,-1.702823281, 
916,545401184,-135.7457428,-44.70648193,-178.9653778,3.925018787,0.403994501,-0.045393314,-31.32212448,95.47257996,-11.96920109, 
917,545417851,-135.2483063,-46.51930237,179.3607941,4.54206419,0.482727528,-1.375582576,-40.79655457,127.7389374,-25.38494492, 
918,545434518,-134.5541534,-48.89179993,177.2840271,5.116169453,-0.056502447,-1.739736438,-49.4134407,160.7978363,-40.87098312, 
919,545451185,-133.5540009,-51.64560699,175.0138092,5.457831383,-0.471680343,-1.483856916,-43.65907669,178.3798981,-57.42571259, 
920,545467852,-132.0766602,-54.64314651,172.6561127,6.538198948,-0.822779298,-1.507871747,-23.49261093,185.3918304,-73.47447205, 
921,545484519,-129.9201508,-57.83437347,170.274292,7.897952557,-0.964568019,-2.562520981,11.61599064,186.4681396,-91.61519623, 
922,545501186,-127.4715042,-61.26089478,167.7764893,10.17162037,-1.119905353,-3.860922098,18.71992683,188.7324982,-112.167778, 
923,545517853,-124.7304306,-64.91521454,164.8102875,11.91409779,-0.859999835,-4.059835434,6.717522144,195.1896362,-128.8641052, 
924,545534520,-121.8467941,-68.66809082,161.1642761,13.10560131,1.323192596,-3.686571121,-27.13145828,196.5448456,-140.0425262, 
925,545551187,-118.7661057,-72.41832733,156.516983,14.01696873,1.337825656,-3.381438255,-77.23318481,194.6024475,-146.4597168, 
926,545567854,-114.7290421,-76.08920288,150.3230743,14.864604,0.142572224,-3.921216011,-114.6922684,189.9912415,-150.2513733, 
927,545584521,-108.0475845,-79.63496399,141.1873016,15.0141573,-0.291091204,-4.769665241,-134.3742828,185.5365448,-154.6974945, 
928,545601188,-94.34015656,-82.81932831,124.8815384,15.03020573,-0.129912764,-5.219965458,-144.0505981,183.5937347,-155.9150543, 
929,545617855,-64.72561646,-84.80944061,92.49681854,15.74033737,-0.543247402,-4.533513546,-154.8569489,183.3128967,-149.5735931, 
930,545634522,-26.97467232,-84.4491806,52.3740387,15.78133202,-1.793177962,-3.689094305,-131.7253571,173.5084991,-138.4876404, 
931,545651189,-3.644914627,-82.39212036,27.37754059,15.76568985,-3.006015539,-4.156333923,-89.80706024,162.186676,-131.9288788, 
932,545667856,8.091711998,-79.81124878,14.95286369,14.04321957,-5.767994404,-5.103540897,-31.69756889,150.2903137,-120.2934875, 
933,545684523,15.44725132,-77.12356567,7.998608589,10.85877323,-6.477990627,-4.920933723,33.2702713,141.5038605,-113.7847137, 
934,545701190,22.35072517,-75.05109406,2.777439356,8.503843307,-3.503001451,-5.39939785,111.0217514,94.06832886,-110.8219986, 
935,545717857,27.94789124,-73.70002747,-1.353505731,8.314687729,-2.199139833,-7.235040188,98.10324097,45.91430283,-94.19314575, 
936,545734524,31.2649765,-72.74767303,-4.402681828,8.328001022,-3.437184095,-4.628640175,24.88700867,24.54034424,-73.47595215, 
