PacketCounter,SampleTimeFine,Euler_X,Euler_Y,Euler_Z,Acc_X,Acc_Y,Acc_Z,Gyr_X,Gyr_Y,Gyr_Z,
0,524357486,59.42868423,-14.92190742,110.9176788,0,0,0,0,0,0, 
1,524374153,59.24161911,-15.08056068,110.9558945,2.614343882,7.919697285,5.019723892,3.187455654,-3.774620056,-0.067745589, 
2,524390820,59.0303421,-15.23428154,111.027359,2.597498655,7.918039322,4.99844408,6.002189636,-3.108460188,0.179807574, 
3,524407487,58.89637375,-15.34078598,111.1310043,2.593803167,8.074113846,5.010599613,7.009845734,-2.562026262,0.140338421, 
4,524424154,58.86345291,-15.40251541,111.2073669,2.566791058,8.12663269,4.983095169,7.605916977,-2.774739265,0.157806262, 
5,524440821,58.88891602,-15.43401623,111.2677765,2.590693235,8.258159637,4.879825115,7.090460777,-3.13181901,0.11046119, 
6,524457488,58.95970154,-15.45395756,111.2964249,2.597318172,8.196558952,4.85270977,5.775299072,-3.142114878,0.18010211, 
7,524474155,59.04889297,-15.46846581,111.3138428,2.65954113,8.183233261,4.83417654,5.2434268,-2.922832012,0.03786198, 
8,524490822,59.1235733,-15.48195457,111.3259659,2.662659645,8.16494751,4.963045597,3.7859478,-2.049797535,-0.056463201, 
9,524507489,59.1844368,-15.49794006,111.3437881,2.621040106,8.099251747,4.98367548,3.5772686,-1.595620155,0.194598928, 
10,524524156,59.24849701,-15.51107502,111.3582382,2.593700171,8.107578278,4.919505119,4.424075603,-1.304672599,0.238281399, 
11,524540823,59.31651306,-15.5209446,111.3846359,2.577991247,8.138663292,4.856246471,4.787967205,-1.170052171,0.241534173, 
12,524557490,59.38898849,-15.52953148,111.3926086,2.54322052,8.125332832,4.804312706,4.840486526,-1.273347974,0.238896027, 
13,524574157,59.48121643,-15.54575348,111.3827515,2.534397364,8.177688599,4.856763363,5.654688835,-2.052537918,0.484163344, 
14,524590824,59.59391403,-15.57863331,111.33815,2.540888071,8.168192863,4.836129665,6.417064667,-3.888700008,0.757117927, 
15,524607491,59.68901825,-15.60468102,111.2900848,2.636623621,8.169535637,4.699951172,5.227097511,-4.013984203,0.31049639, 
16,524624158,59.75072098,-15.62498379,111.2552872,2.655021191,8.123118401,4.80654192,3.082456827,-3.435534239,0.064908996, 
17,524640825,59.80915451,-15.64120007,111.2266922,2.667625666,8.111844063,4.900559902,3.139047384,-2.646764994,0.082146324, 
18,524657492,59.86585617,-15.65142345,111.2118835,2.653700829,8.220233917,4.899451256,3.409492493,-1.882316113,-0.005814083, 
19,524674159,59.91901779,-15.65606594,111.2081146,2.625417233,8.205833435,4.83010149,3.384724855,-1.350122213,-0.108879596, 
20,524690826,59.96948624,-15.65700722,111.1956329,2.608823299,8.18554306,4.841536045,3.279123783,-1.040528774,-0.181222662, 
21,524707493,60.01662064,-15.66175556,111.1793976,2.60035181,8.162513733,4.79349947,3.090690613,-1.206729293,0.001684035, 
22,524724160,60.06121445,-15.66673851,111.1837158,2.601351261,8.132189751,4.797661304,2.969414473,-1.086477876,0.095234416, 
23,524740827,60.11759186,-15.67634678,111.1775665,2.591319323,8.107552528,4.822021484,3.733941555,-1.09705615,0.404533446, 
24,524757494,60.17731476,-15.68192005,111.1745148,2.61211586,8.149284363,4.784161091,4.089522362,-0.643147647,0.387961954, 
25,524774161,60.24700165,-15.69038963,111.1762848,2.587257862,8.132043839,4.846695423,4.767028809,-0.46775189,0.675925493, 
26,524790828,60.33938217,-15.70219898,111.1809616,2.582239151,8.134133339,4.823797226,6.222343922,-0.435377568,0.936432481, 
27,524807495,60.44126511,-15.71195412,111.1871872,2.553711653,8.210272789,4.755666256,6.865774632,-0.256472856,0.91115278, 
28,524824162,60.54350662,-15.72568607,111.1893387,2.547547817,8.211860657,4.697278976,6.799103737,-0.565438867,1.044082761, 
29,524840829,60.62624359,-15.73815632,111.1934357,2.566501617,8.256464005,4.687456608,5.514484882,-0.746943176,0.883631647, 
30,524857496,60.68976974,-15.74785805,111.1918259,2.586490631,8.26473999,4.749018192,4.309727192,-0.673690796,0.749254704, 
31,524874163,60.74952698,-15.75451279,111.1896973,2.596404076,8.281172752,4.743414879,4.040370941,-0.688738286,0.540831327, 
32,524890830,60.79780197,-15.76013756,111.1900635,2.616037846,8.30257225,4.775671482,3.372353554,-0.5602265,0.54489094, 
33,524907497,60.83708191,-15.76547909,111.1875763,2.616879225,8.266607285,4.761688709,2.839456081,-0.530413449,0.539128125, 
34,524924164,60.87503815,-15.77516937,111.185585,2.583290577,8.202033997,4.750184536,2.74032855,-0.731140077,0.717027545, 
35,524940831,60.92353821,-15.79014206,111.1778793,2.586064816,8.140815735,4.691371441,3.340664625,-1.028023481,0.913643479, 
36,524957498,60.97200012,-15.80755806,111.1666183,2.61271596,8.142877579,4.719555378,3.37789917,-0.994336307,1.088687181, 
37,524974165,61.02246094,-15.82765198,111.1616058,2.593474865,8.220558167,4.720353603,3.569149494,-0.88651973,1.315141916, 
38,524990832,61.07497025,-15.84818077,111.1557236,2.585236788,8.228574753,4.716471195,3.701618433,-0.875224411,1.349475622, 
39,525007499,61.12601471,-15.86577511,111.1521988,2.596620321,8.288386345,4.652796745,3.648407459,-0.695679426,1.250341654, 
40,525024166,61.161129,-15.87730122,111.1538544,2.607248783,8.263809204,4.689374924,2.77299118,-0.19089143,1.11332655, 
41,525040833,61.19698715,-15.88732052,111.1604691,2.602607727,8.185096741,4.727020264,2.835076332,-0.079066403,1.069464684, 
42,525057500,61.23696899,-15.89817429,111.1636887,2.589112997,8.237260818,4.729066372,3.06756258,-0.198856995,1.05613327, 
43,525074167,61.27157211,-15.91047192,111.1681595,2.583161831,8.273222923,4.682525635,2.707224131,-0.380777627,1.059520602, 
44,525090834,61.29882431,-15.92301559,111.159584,2.581115007,8.271889687,4.656578541,2.195604086,-0.592011929,0.965502739, 
45,525107501,61.32590103,-15.93411732,111.146492,2.594637871,8.256955147,4.670736313,2.158427,-0.597954094,0.8685202, 
46,525124168,61.34959412,-15.94730663,111.1393967,2.60861969,8.170953751,4.679024696,1.950324059,-0.673165798,0.970689297, 
47,525140835,61.37422943,-15.95624733,111.1386185,2.60461998,8.194636345,4.730670929,2.128498793,-0.194951072,0.937559366, 
48,525157502,61.40376282,-15.96891403,111.1406479,2.599859953,8.241184235,4.74385643,2.416820526,-0.365185827,1.092490435, 
49,525174169,61.42951202,-15.98478794,111.1447601,2.572532415,8.291249275,4.734790325,2.202999353,-0.455208093,1.269890308, 
50,525190836,61.44890594,-16.00289726,111.1309662,2.589129925,8.269594193,4.692124367,1.761884928,-0.723923743,1.282338262, 
51,525207503,61.4618187,-16.0229702,111.1065674,2.560704708,8.234065056,4.761677742,1.375043511,-0.78503567,1.384776354, 
52,525224170,61.48244095,-16.04661751,111.0936356,2.575330019,8.19319725,4.715197563,1.782426119,-1.103849769,1.470668316, 
53,525240837,61.50952148,-16.07187653,111.0813751,2.57383585,8.194771767,4.710033894,2.221754313,-1.025519729,1.623608112, 
54,525257504,61.54152679,-16.0978775,111.069252,2.583196402,8.208945274,4.678971291,2.536732912,-1.012585282,1.688184142, 
55,525274171,61.57030487,-16.12080002,111.0626602,2.601480722,8.222318649,4.677720547,2.338810682,-0.954924583,1.510931611, 
56,525290838,61.59437943,-16.14527702,111.0466614,2.603368521,8.218553543,4.699832916,2.015040636,-1.132606387,1.52313602, 
57,525307505,61.6195755,-16.16940689,111.02388,2.614500761,8.208362579,4.736440182,2.046986103,-1.250386357,1.435444474, 
58,525324172,61.64740372,-16.19439316,110.9973907,2.631738663,8.224309921,4.668895245,2.161052465,-1.446029067,1.389405847, 
59,525340839,61.67040634,-16.21611595,110.9794846,2.65981245,8.238829613,4.692571163,1.921586394,-1.210840344,1.293934345, 
60,525357506,61.69865036,-16.23768997,110.9577026,2.654471636,8.252678871,4.713615417,2.199657202,-1.323145628,1.218396187, 
61,525374173,61.72441864,-16.25721931,110.9407043,2.659867764,8.248960495,4.677717209,2.064293861,-1.246077061,1.120133042, 
62,525390840,61.7522583,-16.27379608,110.920639,2.649696112,8.187601089,4.680931568,2.18357873,-1.190350175,0.943565488, 
63,525407507,61.77275085,-16.29207802,110.8906326,2.66020155,8.240773201,4.688218594,1.688241959,-1.425679684,0.929760277, 
64,525424174,61.78977966,-16.31356049,110.8624191,2.625663996,8.22759819,4.705634117,1.447514534,-1.626233578,1.043346167, 
65,525440841,61.80350876,-16.33572006,110.8333435,2.607853889,8.214009285,4.684385777,1.219081283,-1.767570853,1.017035604, 
66,525457508,61.8146553,-16.35536575,110.8015823,2.615218878,8.225664139,4.66365242,1.0434165,-1.777316451,0.843637526, 
67,525474175,61.82198334,-16.37812424,110.7660294,2.612511158,8.238329887,4.66244173,0.752129793,-2.070165634,0.906510293, 
68,525490842,61.8244133,-16.39988899,110.7240677,2.61760354,8.252316475,4.68689394,0.417358935,-2.179570198,0.785029173, 
69,525507509,61.82791901,-16.4213562,110.6790237,2.596185207,8.196688652,4.723797798,0.462962329,-2.240643501,0.73641634, 
70,525524176,61.83934402,-16.44579697,110.6238632,2.618523121,8.236042023,4.690351009,0.863698602,-2.591986179,0.761081398, 
71,525540843,61.84406281,-16.4682312,110.5821838,2.637813568,8.230998993,4.704251766,0.470646203,-2.526763439,0.670911908, 
72,525557510,61.85422134,-16.48974419,110.539917,2.657934427,8.193367004,4.737962723,0.776391327,-2.583680868,0.583297253, 
73,525574177,61.86802673,-16.50743866,110.4981766,2.654304266,8.212697983,4.720845699,1.013513803,-2.459318638,0.389498711, 
74,525590844,61.88729477,-16.52390099,110.4617691,2.670450687,8.153442383,4.743836403,1.419699073,-2.222663641,0.438899219, 
75,525607511,61.92806244,-16.53909874,110.423317,2.670376301,8.105348587,4.772058487,2.717558622,-2.218757629,0.35334, 
76,525624178,61.97638702,-16.54676247,110.3875656,2.67283392,8.265215874,4.72288847,3.261041164,-1.79902339,0.068430729, 
77,525640845,62.00855637,-16.55013657,110.344574,2.661635637,8.266218185,4.697005749,2.3574121,-1.515362501,-0.072880939, 
78,525657512,62.02908707,-16.55067635,110.3117447,2.657600641,8.255371094,4.690327644,1.650905013,-1.478384256,-0.234183341, 
79,525674179,62.04640198,-16.55222702,110.2802353,2.63403368,8.194999695,4.680291176,1.513121367,-1.369133115,-0.101074107, 
80,525690846,62.07518387,-16.55383873,110.2496033,2.639831543,8.181617737,4.694096565,2.221748114,-1.343053222,-0.076953351, 
81,525707513,62.11055756,-16.5597229,110.2233124,2.629332304,8.200746536,4.687328339,2.603947639,-1.538695931,0.11827305, 
82,525724180,62.14485168,-16.56970215,110.1893158,2.619132996,8.273443222,4.673561573,2.492077589,-1.828234673,0.251183748, 
83,525740847,62.17125702,-16.58032608,110.1448288,2.625141621,8.246154785,4.680798054,1.965179324,-2.035940886,0.189898968, 
84,525757514,62.18755341,-16.59130096,110.1026688,2.647114038,8.20963192,4.678487301,1.281159997,-2.298188925,0.088146105, 
85,525774181,62.19347763,-16.59739494,110.0608978,2.658686399,8.222575188,4.68445015,0.696659088,-2.088190794,-0.128767848, 
86,525790848,62.19986343,-16.60351181,110.0236588,2.646199465,8.190187454,4.685265064,0.742300928,-2.069787979,-0.110736512, 
87,525807515,62.21591568,-16.6036129,109.9881973,2.64300561,8.188500404,4.683286667,1.350769043,-1.853207111,-0.397675574, 
88,525824182,62.24213409,-16.60385895,109.942131,2.631896257,8.188459396,4.749686241,1.982057929,-1.846572995,-0.384228915, 
89,525840849,62.26882172,-16.60820198,109.9021912,2.634837627,8.294790268,4.724925041,1.989159226,-2.072022676,-0.210606843, 
90,525857516,62.28565598,-16.61287498,109.8540878,2.640668154,8.311926842,4.731874943,1.321730614,-2.350086927,-0.3278234, 
91,525874183,62.2938385,-16.61522484,109.8102493,2.635301352,8.214524269,4.715560436,0.810757279,-2.302844524,-0.447216958, 
92,525890850,62.30826569,-16.61401939,109.7646408,2.617409229,8.216189384,4.740780354,1.151937604,-2.343216419,-0.699405968, 
93,525907517,62.32582474,-16.61391068,109.7189484,2.6132195,8.193205833,4.694935322,1.33150816,-2.454170465,-0.672768712, 
94,525924184,62.35693741,-16.61213684,109.6708145,2.636560678,8.146941185,4.719430923,2.165444613,-2.398091555,-0.749273896, 
95,525940851,62.40355301,-16.61077118,109.6329803,2.623910427,8.236151695,4.69415617,3.148928165,-2.299937487,-0.654884815, 
96,525957518,62.45143127,-16.6048317,109.597702,2.650826216,8.178896904,4.647293091,3.28042388,-2.051699162,-0.821649134, 
97,525974185,62.50138855,-16.59513664,109.5604324,2.630083084,8.16925621,4.754268169,3.471200228,-1.798018336,-0.945896387, 
98,525990852,62.56534576,-16.58519363,109.514389,2.655473709,8.169603348,4.677315235,4.20311451,-2.187311649,-1.15490222, 
99,526007519,62.62156677,-16.56925964,109.4758148,2.631335258,8.320819855,4.679806709,3.863758564,-1.697468758,-1.299562573, 
100,526024186,62.67063904,-16.55561638,109.433815,2.606763601,8.288063049,4.697134018,3.442847013,-1.785980105,-1.181853414, 
101,526040853,62.71847153,-16.54091454,109.3962555,2.593966961,8.283226967,4.737247944,3.379519224,-1.772853732,-1.226790786, 
102,526057520,62.76273727,-16.52396965,109.359169,2.612512589,8.204249382,4.677167416,3.172210217,-1.75187695,-1.352101088, 
103,526074187,62.8202095,-16.50722504,109.3159103,2.612422705,8.107555389,4.671939373,3.998731852,-1.724125385,-1.327717543, 
104,526090854,62.90403366,-16.48744774,109.2833557,2.587812185,8.150461197,4.691398621,5.664569855,-1.446675897,-1.36856997, 
105,526107521,62.99993134,-16.46614838,109.2462387,2.577148914,8.259732246,4.614810467,6.418159008,-1.400829077,-1.44609952, 
106,526124188,63.0880661,-16.44363785,109.2086487,2.560139656,8.321393013,4.644487858,5.945572853,-1.445580959,-1.53496933, 
107,526140855,63.17130661,-16.41759109,109.1537933,2.528155088,8.352202415,4.577347279,5.384449005,-2.207084894,-2.145166159, 
108,526157522,63.23980713,-16.39860725,109.1076355,2.523725271,8.317597389,4.503306866,4.508149624,-2.409335852,-1.738359928, 
109,526174189,63.3192749,-16.39130592,109.0588608,2.506625891,8.16603756,4.647476673,5.25563097,-2.492064714,-0.990199983, 
110,526190856,63.42167282,-16.39159775,109.0101242,2.53665781,8.16401577,4.700042248,6.735256672,-2.46384573,-0.456693679, 
111,526207523,63.53485107,-16.39146423,108.9688644,2.580607176,8.35742569,4.571716785,7.4090271,-2.455855131,-0.453645915, 
112,526224190,63.63171005,-16.38551903,108.9362564,2.621594906,8.401016235,4.560864449,6.626275539,-1.756852388,-0.485360771, 
113,526240857,63.73192978,-16.38287544,108.9070511,2.623058319,8.260692596,4.702192307,6.959733486,-1.483833671,-0.126718849, 
114,526257524,63.87817001,-16.37440109,108.8822098,2.676092625,8.195412636,4.670836926,9.780416489,-1.236664534,-0.380060524, 
115,526274191,64.02526093,-16.35818672,108.8505859,2.624258041,8.428426743,4.4983778,9.742170334,-1.402141929,-0.97246325, 
116,526290858,64.13795471,-16.33708954,108.8194351,2.627876043,8.429722786,4.397510529,7.621841431,-1.486836672,-1.317639112, 
117,526307525,64.22455597,-16.30382347,108.7711639,2.641903162,8.499168396,4.430834293,6.004962921,-1.362512589,-2.09493351, 
118,526324192,64.31167603,-16.25976753,108.7358856,2.689479589,8.44280529,4.450191975,6.04624939,-1.076853991,-2.634618521, 
119,526340859,64.41381073,-16.1997509,108.70327,2.709068298,8.360621452,4.57908535,7.107007504,-0.229080036,-3.305742264, 
120,526357526,64.56501007,-16.11907578,108.673378,2.775369883,8.277442932,4.612114429,10.2137785,0.729289949,-4.221474171, 
121,526374193,64.72835541,-16.00383949,108.6699677,2.743840933,8.483858109,4.470320225,11.20268726,2.320851088,-5.742652416, 
122,526390860,64.81187439,-15.86518097,108.6538544,2.652544737,8.701264381,4.278848648,6.399859905,2.818499088,-7.091511726, 
123,526407527,64.81581879,-15.72049332,108.6463165,2.544509649,8.633499146,4.310083389,1.684304237,3.14686656,-7.318843365, 
124,526424194,64.80002594,-15.58464813,108.633194,2.476951599,8.398384094,4.362482071,0.551127791,3.0776546,-6.786355495, 
125,526440861,64.79897308,-15.44649315,108.6378098,2.500551224,8.468399048,4.402271748,1.616443157,3.67816329,-6.629034996, 
126,526457528,64.78663635,-15.3108511,108.6473694,2.459652662,8.491560936,4.488439083,1.042219162,3.904554129,-6.344247341, 
127,526474195,64.77262878,-15.1710186,108.6610413,2.373234749,8.447338104,4.409115314,1.04424274,4.306520462,-6.450592041, 
128,526490862,64.77509308,-15.03004646,108.6682892,2.304929972,8.510907173,4.363218307,1.980335951,4.121006966,-6.597006798, 
129,526507529,64.73989105,-14.87721634,108.6727753,2.328996897,8.628265381,4.343976498,-0.350260139,4.150167465,-7.355347157, 
130,526524196,64.67467499,-14.7030344,108.6767273,2.287210703,8.602813721,4.45923996,-2.172911882,4.617856026,-8.526502609, 
131,526540863,64.61812592,-14.52096176,108.6681137,2.223121405,8.378447533,4.546272278,-1.829586387,4.171362877,-9.24866581, 
132,526557530,64.59142303,-14.33672237,108.6537247,2.15319562,8.290898323,4.509887218,-0.076972589,4.013447285,-9.463108063, 
133,526574197,64.56827545,-14.17036438,108.6278458,2.125956297,8.294679642,4.477306366,-0.009194962,2.951864243,-8.760326385, 
134,526590864,64.54377747,-14.01559925,108.6037598,2.092292309,8.241745949,4.502968788,-0.027552867,2.790068626,-8.055932045, 
135,526607531,64.53951263,-13.86625099,108.5845337,2.059307337,8.374480247,4.538388252,1.235313654,2.705534458,-7.712248325, 
136,526624198,64.54030609,-13.72069836,108.5639114,2.047234535,8.493080139,4.516509056,1.538836837,2.52098155,-7.533047199, 
137,526640865,64.5451889,-13.57169342,108.5476151,2.027999163,8.504930496,4.502909184,1.878256559,2.888805866,-7.573542595, 
138,526657532,64.55086517,-13.43071175,108.5316849,2.051293612,8.528698921,4.586444378,1.951764822,2.701192617,-7.113115311, 
139,526674199,64.57282257,-13.30615807,108.5157318,2.027502775,8.340380669,4.552216053,2.942668915,2.245901108,-6.225749969, 
140,526690866,64.63076782,-13.18543053,108.5079041,2.044730902,8.258148193,4.563325405,5.243516445,2.592025042,-5.798755169, 
141,526707533,64.7137146,-13.0703516,108.5148239,2.067163229,8.404051781,4.602435589,6.952703476,3.14212203,-5.15474987, 
142,526724200,64.80706787,-12.96170521,108.5307465,2.099492788,8.489993095,4.539314747,7.730093956,3.482303143,-4.565477848, 
143,526740867,64.89527893,-12.86188507,108.5575943,2.071674585,8.432634354,4.4312644,7.59056282,3.848417997,-3.807495356, 
144,526757534,65.00205231,-12.77468014,108.5927124,2.003145218,8.315981865,4.420117378,8.826389313,3.966159821,-2.918017626, 
145,526774201,65.11319733,-12.69717216,108.6361923,1.985679507,8.513938904,4.48815012,9.211976051,4.149534225,-2.191538572, 
146,526790868,65.21641541,-12.62560081,108.6789017,1.933990717,8.662354469,4.463624001,8.733242035,3.922355652,-1.901084185, 
147,526807535,65.31531525,-12.55672073,108.7177124,1.905330062,8.668302536,4.385447502,8.437433243,3.658218145,-1.839082003, 
148,526824202,65.41740417,-12.48919296,108.7514114,1.862237692,8.700202942,4.391435623,8.557070732,3.297821522,-1.905483007, 
149,526840869,65.50495148,-12.42363739,108.7746429,1.849192619,8.662165642,4.31932354,7.560704231,2.712359905,-2.034231663, 
150,526857536,65.57650757,-12.35834503,108.7944717,1.851144791,8.608706474,4.315763474,6.567198753,2.520405054,-2.091962099, 
151,526874203,65.64437103,-12.29406166,108.8057022,1.859095573,8.577196121,4.325769424,6.248175144,2.057436466,-2.225885153, 
152,526890870,65.69734192,-12.2316885,108.8162231,1.846931934,8.602168083,4.318112373,5.353879929,1.954472899,-2.13939023, 
153,526907537,65.74250793,-12.16946602,108.8209686,1.826556087,8.659065247,4.327104092,4.813529968,1.601530194,-2.278915882, 
154,526924204,65.77700806,-12.10042286,108.8231888,1.794507146,8.692336082,4.359223366,4.139339447,1.569040537,-2.73025012, 
155,526940871,65.8079071,-12.03238964,108.8215027,1.793251038,8.67718029,4.384977818,3.900231838,1.394617915,-2.730967045, 
156,526957538,65.84208679,-11.95952415,108.8214188,1.800639391,8.653156281,4.392490387,4.133204937,1.60436058,-2.944820404, 
157,526974205,65.87936401,-11.88649368,108.8223419,1.813254118,8.600666046,4.382271767,4.341923237,1.637848973,-2.929644585, 
158,526990872,65.91444397,-11.81255531,108.8241959,1.803483725,8.596607208,4.345432281,4.231397629,1.681614876,-2.962653399, 
159,527007539,65.94062805,-11.74369335,108.8307571,1.799825907,8.642518044,4.373939991,3.733217001,1.619772673,-2.644901991, 
160,527024206,65.95769501,-11.67666245,108.8362656,1.794619918,8.675820351,4.373208046,3.185733557,1.509484529,-2.568537951, 
161,527040873,65.96849823,-11.61019611,108.8361206,1.761908531,8.692591667,4.296916962,2.779183388,1.308002353,-2.615870237, 
162,527057540,65.95851898,-11.54794312,108.8320847,1.785060048,8.693842888,4.282797337,1.475932121,0.898378313,-2.512945414, 
163,527074207,65.92575073,-11.48872375,108.8216171,1.764873624,8.67270565,4.306136131,0.054286115,0.557882965,-2.463493347, 
164,527090874,65.8790741,-11.43301868,108.8075638,1.754756689,8.68092823,4.361907959,-0.831682682,0.171022385,-2.397515059, 
165,527107541,65.83956146,-11.38292408,108.7913895,1.723520756,8.624207497,4.375694275,-0.416167974,-0.086404443,-2.138916731, 
166,527124208,65.80683136,-11.33775997,108.7742081,1.693771124,8.661627769,4.327341557,-0.006185467,-0.264041305,-1.889730453, 
167,527140875,65.75091553,-11.29934597,108.7528076,1.67320168,8.682482719,4.284759045,-1.435988903,-0.660321057,-1.616660833, 
168,527157542,65.65739441,-11.26619148,108.7300186,1.651854277,8.683080673,4.28201437,-3.681307316,-0.749357224,-1.308533788, 
169,527174209,65.54411316,-11.23888779,108.7024155,1.650356412,8.610861778,4.306046963,-4.929196358,-1.220157027,-1.128181934, 
170,527190876,65.43115997,-11.21277809,108.6766357,1.613585949,8.656447411,4.292867184,-4.894100666,-1.225234866,-1.045100689, 
171,527207543,65.32852173,-11.19758701,108.6493378,1.609589934,8.56835556,4.332846642,-4.284607887,-1.566537023,-0.474513739, 
172,527224210,65.22180176,-11.18645954,108.6229553,1.593922734,8.549890518,4.408611298,-4.510460854,-1.622129321,-0.227171883, 
173,527240877,65.13129425,-11.18571663,108.6022644,1.584913731,8.555833817,4.36032486,-3.463349819,-1.584030509,0.485379934, 
174,527257544,65.05335999,-11.19199848,108.5835037,1.597711802,8.553611755,4.427286625,-2.69078064,-1.730252981,0.892826736, 
175,527274211,64.99680328,-11.19789124,108.562912,1.604249358,8.590381622,4.423871517,-1.401021123,-1.720193863,0.875454903, 
176,527290878,64.9680481,-11.20178604,108.5458221,1.597722411,8.582660675,4.427737713,0.304996043,-1.544644475,0.836702943, 
177,527307545,64.94755554,-11.20279503,108.5308914,1.624312282,8.605353355,4.395496368,0.833373129,-1.357069492,0.744074523, 
178,527324212,64.92634583,-11.2085619,108.5182571,1.615687847,8.553136826,4.5037117,0.822359681,-1.348399639,1.070943832, 
179,527340879,64.91944122,-11.22428799,108.5112915,1.62240243,8.444514275,4.572191715,1.729074836,-1.483506918,1.68220377, 
180,527357546,64.93543243,-11.24846363,108.4989243,1.653838277,8.522231102,4.580320358,3.065353394,-1.934123635,2.036798477, 
181,527374213,64.96670532,-11.27828503,108.4866638,1.695210457,8.571414948,4.53708744,3.972869158,-2.217624664,2.291369677, 
182,527390880,65.0220871,-11.30220604,108.4728546,1.758624911,8.580599785,4.534245491,5.458828926,-1.896351457,2.046819687, 
183,527407547,65.0933609,-11.33588982,108.45755,1.725604415,8.518758774,4.491353035,6.402925491,-2.241418839,2.537085533, 
184,527424214,65.12702942,-11.37498569,108.4452133,1.797451615,8.671041489,4.444369793,4.188099384,-2.241719723,2.89978075, 
185,527440881,65.11289215,-11.42051983,108.434433,1.77661705,8.661397934,4.513355732,1.345652699,-2.308286905,3.29302454, 
186,527457548,65.09171295,-11.47276211,108.4134064,1.715930104,8.626195908,4.486632347,0.818338633,-2.996615648,3.419743776, 
187,527474215,65.0544281,-11.53715134,108.3884811,1.694188356,8.680228233,4.364753246,-0.197390676,-3.555907249,3.969379425, 
188,527490882,64.98851776,-11.61481094,108.3569336,1.686487794,8.704366684,4.312110424,-1.991394401,-4.244978905,4.531591415, 
189,527507549,64.86372375,-11.70586109,108.3117752,1.714619517,8.732683182,4.312114239,-5.704417706,-5.365356445,4.900376797, 
190,527524216,64.69416046,-11.81328487,108.2579498,1.735316396,8.611327171,4.326576233,-8.495339394,-6.215270519,5.583308697, 
191,527540883,64.48631287,-11.92484951,108.2098846,1.750700116,8.695101738,4.262242794,-10.79789066,-6.392004967,5.779700756, 
192,527557550,64.25226593,-12.05873966,108.153183,1.65652585,8.640307426,4.373807907,-12.48706436,-7.411737919,6.765522957, 
193,527574217,64.02783966,-12.24233055,108.0539169,1.651958704,8.619906425,4.591526985,-12.46740627,-11.02085018,8.326039314, 
194,527590884,63.79976654,-12.45892429,107.9196167,1.740881324,8.461057663,4.423686504,-13.15459919,-13.79488087,9.159473419, 
195,527607551,63.56385803,-12.69370461,107.7908401,1.738577247,8.421861649,4.47176218,-13.60640335,-14.16147041,10.17265129, 
196,527624218,63.31649017,-12.9417305,107.6645203,1.778037906,8.583442688,4.606500626,-14.2983036,-14.41733742,10.90102196, 
197,527640885,63.03781128,-13.19361019,107.5285645,1.806142807,8.725664139,4.720212936,-16.39072227,-15.34850121,10.6700058, 
198,527657552,62.73288345,-13.44044018,107.3572693,1.947654247,8.505526543,4.602390289,-18.42960548,-16.81656647,9.531251907, 
199,527674219,62.39558792,-13.65406704,107.20681,2.055252075,8.474684715,4.563462257,-20.18551254,-15.1478672,8.097858429, 
200,527690886,62.02477646,-13.85410786,107.062149,2.029291868,8.442615509,4.74715519,-22.14227486,-14.44410324,7.476129532, 
201,527707553,61.62492371,-14.05378819,106.9338379,1.979746819,8.365365982,4.930435658,-23.73514748,-13.9050827,7.678292274, 
202,527724220,61.22265244,-14.27493477,106.8201599,1.956632137,8.202588081,5.075751305,-23.64709473,-13.63817406,9.223319054, 
203,527740887,60.83143616,-14.53801346,106.7242126,1.960278511,8.105232239,5.223149776,-22.82369804,-14.32927227,11.67752457, 
204,527757554,60.47301483,-14.8295784,106.6018524,2.127282619,8.022900581,5.172188759,-21.26843262,-16.53294945,12.3623991, 
205,527774221,60.17200851,-15.12937641,106.4838943,2.265772104,7.723772049,4.793336391,-17.77606773,-16.56837463,12.86623478, 
206,527790888,59.91891479,-15.43235493,106.4069901,2.195967674,7.86981678,4.860612392,-14.30430126,-14.69663811,14.11747646, 
207,527807555,59.67206955,-15.77371597,106.3603592,2.093313932,7.940394878,4.915120602,-13.47539711,-14.40243721,16.93321609, 
208,527824222,59.3866806,-16.1553154,106.3583145,2.151800632,7.949576855,4.85534811,-15.07409286,-13.47197342,20.27671814, 
209,527840889,59.057827,-16.59461403,106.4182053,2.116528511,7.840386868,4.834523678,-16.65132523,-12.28538132,25.02314186, 
210,527857556,58.7490387,-17.09888268,106.4770737,1.98924768,7.712564945,4.896678925,-15.45401478,-14.49459743,28.28049469, 
211,527874223,58.5038681,-17.66621017,106.4866486,2.159401417,7.516536713,4.516088963,-12.51312065,-19.04911804,29.98085594, 
212,527890890,58.26066589,-18.25973701,106.5190964,2.443776369,8.24998188,4.797491074,-12.00578499,-18.92228889,31.92409897, 
213,527907557,57.97411346,-18.8891201,106.5533218,2.716852427,8.352855682,4.968871593,-14.61004829,-20.17373657,33.70828247, 
214,527924224,57.63177872,-19.53069305,106.6011505,2.908761978,8.300053596,5.16102457,-17.70862389,-20.10972977,34.63541031, 
215,527940891,57.25857925,-20.1905098,106.6713943,3.053525925,8.359941483,5.385464191,-19.10276222,-19.85074806,36.12626648, 
216,527957558,56.89163208,-20.88216019,106.6789246,3.151731491,8.056264877,5.360597134,-20.03019905,-24.09793854,35.6905365, 
217,527974225,56.54717636,-21.58190727,106.6722183,3.551593065,7.767093182,5.271294594,-19.02035141,-25.28285599,35.5001564, 
218,527990892,56.25813675,-22.24348068,106.6678619,3.83536458,8.114722252,5.995593071,-15.67464447,-24.10138321,33.51560974, 
219,528007559,56.07248688,-22.87302399,106.6615295,4.019462109,8.750254631,6.437292099,-9.12383461,-22.395504,32.31956863, 
220,528024226,55.90936661,-23.48692703,106.7353287,3.957310915,9.209189415,6.198367119,-5.878722191,-18.3181572,33.95144272, 
221,528040893,55.61366272,-24.07356262,106.9162827,3.841175318,9.167056084,5.624454975,-11.21935844,-12.69889832,35.8471489, 
222,528057560,55.13367844,-24.5570755,107.1338196,3.461192131,8.304543495,5.027077675,-21.31954956,-7.818573952,31.81719398, 
223,528074227,54.53600311,-24.96370506,107.3846588,3.582765579,8.08877182,5.049198151,-27.49581146,-4.011291027,29.02885818, 
224,528090894,53.84772491,-25.30661201,107.6687164,3.647172213,7.591093063,5.677863598,-32.03784943,-0.668476403,26.9473362, 
225,528107561,53.28512192,-25.75572205,107.912117,4.304986,7.785406113,6.937063217,-25.4526329,-6.565770626,30.75328255, 
226,528124228,52.76976395,-26.31342888,108.1196518,5.139861584,9.012685776,7.9271698,-23.42230415,-12.38213158,34.70728683, 
227,528140895,52.17131424,-26.86589813,108.3818283,5.183946133,8.729453087,8.12887001,-26.8111496,-10.26590347,36.09702301, 
228,528157562,51.96567154,-27.33271599,108.7445068,4.917753696,6.556064129,6.702170849,-0.341790169,-3.200487137,35.24223328, 
229,528174229,52.28439331,-27.72758865,109.2195129,4.730110168,7.673063755,6.44157362,34.41146469,4.13262558,35.43837357, 
230,528190896,52.69246674,-28.14318275,109.7096481,4.685382843,8.272783279,6.499863625,40.36889267,4.145811558,36.8381691, 
231,528207563,53.36826324,-28.60699654,110.1097107,4.981720924,9.416880608,6.492627621,54.04812241,-1.149431825,36.21169662, 
232,528224230,54.10918045,-29.06208038,110.3716202,6.014634132,11.4992075,7.04218483,54.08496475,-6.340839386,31.49070358, 
233,528240897,54.56982803,-29.44616508,110.5200424,6.491629124,11.06409836,7.280858517,33.98051071,-8.407109261,24.64967918, 
234,528257564,55.08602142,-29.70437622,110.5988464,6.631473541,10.41929054,7.33272171,35.26142502,-6.840158463,16.46881294, 
235,528274231,55.57546616,-29.80604362,110.6520996,6.475445271,9.973091125,6.986386299,32.89860535,-2.458188295,8.051185608, 
236,528290898,55.99007034,-29.75363541,110.6913757,6.229454041,9.644830704,6.615365505,27.98634911,2.198900938,0.022225479, 
237,528307565,56.27685547,-29.57877922,110.7302322,5.901150703,9.395722389,6.535367489,20.29610634,6.276972294,-6.097227573, 
238,528324232,56.48036575,-29.32668495,110.7669983,5.657982826,9.091054916,6.528715134,15.23065281,8.726041794,-10.03123474, 
239,528340899,56.67480087,-29.01747131,110.8008957,5.468195438,8.917050362,6.507734299,14.6015377,10.4507618,-12.99119282, 
240,528357566,56.92687607,-28.65719032,110.8068542,5.413086414,8.469614983,6.305621147,17.25474167,10.84487915,-16.38739204, 
241,528374233,57.24858856,-28.22365189,110.8060913,5.327676773,8.128085136,6.061578751,21.26084328,12.85019302,-20.32515335, 
242,528390900,57.63508987,-27.72904015,110.8040619,5.12609148,7.989352703,5.896522045,25.13405609,14.63884449,-23.53935814, 
243,528407567,58.05713272,-27.19301796,110.8050613,4.925134659,7.831681252,5.595892429,27.37182236,15.92875481,-25.67114639, 
244,528424234,58.51453018,-26.61901474,110.8190308,4.727065086,7.657648087,5.341704369,29.86170769,17.52398491,-27.37682724, 
245,528440901,59.02066803,-26.00920105,110.8448105,4.566324234,7.667895317,5.168218136,33.10947037,18.95941353,-29.04147911, 
246,528457568,59.55115128,-25.37166023,110.8640976,4.431019783,7.630391598,4.976355553,34.39823151,19.25619507,-30.83027267, 
247,528474235,60.08584595,-24.69263268,110.8731689,4.310857773,7.341241837,4.715014458,34.38781738,19.75131416,-33.44773865, 
248,528490902,60.65426636,-23.96285248,110.8955612,4.100921154,7.369423389,4.52300787,36.74514008,21.58261681,-35.94181824, 
249,528507569,61.20175934,-23.19902802,110.905777,3.85763216,7.410817146,4.356850147,35.18824387,21.65659332,-38.2730751, 
250,528524236,61.73272705,-22.4010334,110.9093399,3.591819286,7.252132416,4.115123272,34.03725433,21.96755219,-40.46392441, 
251,528540903,62.23991394,-21.56892204,110.9006729,3.342178822,7.112327576,3.895252943,32.33182907,21.97193336,-42.79955673, 
252,528557570,62.7371254,-20.69809151,110.8831253,3.09488678,6.974103451,3.728918791,31.55128098,22.24174309,-45.29135513, 
253,528574237,63.24822998,-19.79334831,110.8548737,2.862129688,6.82008791,3.601574898,32.17278671,22.2342701,-47.58401489, 
254,528590904,63.77043915,-18.85058403,110.8210602,2.651379585,6.785932064,3.527542353,32.7559433,22.54488945,-49.97735977, 
255,528607571,64.31072235,-17.87551117,110.7655106,2.533914804,6.634423733,3.390884638,33.46224213,21.81688118,-52.48281097, 
256,528624238,64.88301086,-16.87010956,110.703125,2.36908102,6.390433788,3.243397951,35.31501389,21.72848511,-54.52149582, 
257,528640905,65.48430634,-15.84013939,110.6367569,2.178456545,6.259825706,3.207690716,37.05438232,21.5737133,-56.19719315, 
258,528657572,66.11430359,-14.80105782,110.5932541,2.01463747,6.150526524,3.08817482,38.67963791,20.69201851,-57.17593765, 
259,528674239,66.7999649,-13.76167583,110.5351791,1.818040013,6.0227952,2.96602726,41.93205261,19.3961544,-57.72559738, 
260,528690906,67.52101135,-12.72020245,110.4712524,1.718962431,6.031868935,3.020520449,44.06551361,18.37179375,-58.24580383, 
261,528707573,68.23212433,-11.66956902,110.3987122,1.641769409,5.974031925,3.021453381,43.48180008,17.40532875,-59.1782074, 
262,528724240,68.91174316,-10.61053467,110.3254547,1.577892184,5.888533115,2.958543301,41.71460342,16.82700348,-59.89308167, 
263,528740907,69.57372284,-9.53621769,110.2543869,1.498245478,5.860017776,2.977664709,40.80923843,16.57332039,-60.92090988, 
264,528757574,70.20307159,-8.461826324,110.1838226,1.358210683,6.158369541,3.093565464,38.98226166,15.86072922,-61.14545822, 
265,528774241,70.76990509,-7.41473484,110.107254,1.420565128,6.646044254,3.322565794,35.32765579,14.40803814,-59.88189316, 
266,528790908,71.21289063,-6.406512737,110.0325623,1.424605608,6.801152229,3.534964561,28.05218315,13.23533249,-57.78945923, 
267,528807575,71.61865234,-5.455673218,109.9647903,1.399078131,6.768563271,3.704148054,25.99990273,12.0917387,-54.52782059, 
268,528824242,72.04029083,-4.555348396,109.9100952,1.434958696,6.961745739,3.740363121,27.16082382,11.53037834,-51.5152626, 
269,528840909,72.50741577,-3.713706255,109.8814774,1.463410735,7.256874561,3.799417973,30.11398697,11.45901299,-47.8424263, 
270,528857576,72.97803497,-2.925158262,109.8793793,1.472439647,7.743824959,3.661584377,30.50981331,11.7103281,-44.44475555, 
271,528874243,73.39176941,-2.197009325,109.8697433,1.393506289,8.155237198,3.305333138,27.21702385,11.46727848,-40.77468109, 
272,528890910,73.73553467,-1.530962348,109.8722992,1.252645612,8.278294563,2.944097281,23.065382,10.8588953,-37.1127243, 
273,528907577,74.03246307,-0.907546341,109.8761292,1.078150153,8.491313934,2.962879181,20.26203156,10.03237534,-34.73501587, 
274,528924244,74.27949524,-0.329104245,109.8644409,0.903443933,8.924093246,3.207920074,17.26008797,8.250405312,-32.47964859, 
275,528940911,74.47160339,0.183387473,109.8323135,0.809261858,9.196248055,3.275259733,13.98262691,5.892595291,-29.06486893, 
276,528957578,74.628479,0.640951455,109.7984314,0.738536,9.02285862,3.092278481,11.89735126,4.837484837,-25.96756935, 
277,528974245,74.80002594,1.061796427,109.7756348,0.670174181,8.841845512,2.844474316,12.79224491,4.836919785,-23.71568489, 
278,528990912,74.9895401,1.459166288,109.7688675,0.549924672,8.793130875,2.700469255,13.85999966,5.33495903,-22.15322685, 
279,529007579,75.18941498,1.817503929,109.7666855,0.334523588,8.733322144,2.629662752,14.47314072,4.932478905,-19.86871719, 
280,529024246,75.3476181,2.128493071,109.7616272,0.149316087,8.75909996,2.606498718,11.97766876,3.988684416,-17.20377731, 
281,529040913,75.4325943,2.374766827,109.750824,0.00855695,8.643120766,2.633119106,7.595939636,2.644360065,-13.56289005, 
282,529057580,75.5074234,2.555262804,109.731308,-0.054936711,8.426597595,2.600215912,7.011352062,1.134028435,-9.892224312, 
283,529074247,75.59573364,2.681105375,109.7026291,-0.074527912,8.440821648,2.409441948,7.850795269,-0.226525202,-6.870116234, 
284,529090914,75.66685486,2.779819965,109.6672668,-0.21424216,8.406544685,2.373722315,6.835595131,-1.026486754,-5.407117367, 
285,529107581,75.69968414,2.847125292,109.6070938,-0.413119733,8.621566772,2.496892691,4.609466553,-2.937194109,-3.958103657, 
286,529124248,75.6397934,2.872257471,109.5146408,-0.506503046,8.738521576,2.647348881,-0.857186675,-5.43758297,-1.989933848, 
287,529140915,75.48617554,2.856583118,109.3935089,-0.542250276,8.753599167,2.752822161,-6.394206524,-7.709623814,-0.058864411, 
288,529157582,75.26309204,2.804136992,109.2582932,-0.53451544,8.728672028,2.781574488,-10.51899529,-9.083850861,1.837443471, 
289,529174249,75.01457214,2.722101212,109.1193771,-0.456072956,8.831319809,2.90869379,-12.03954792,-9.760156631,3.45934391, 
290,529190916,74.73840332,2.613099813,108.9880447,-0.392305344,8.900856972,3.0686028,-13.72814465,-9.760810852,5.092526913, 
291,529207583,74.46611023,2.472470999,108.8635864,-0.282096326,8.971815109,3.154580355,-13.52114296,-9.891166687,6.980824947, 
292,529224250,74.20272827,2.303878307,108.7527542,-0.194273472,9.05241394,3.163862705,-13.03094864,-9.589968681,8.76345253, 
293,529240917,73.95028687,2.110383987,108.6553955,-0.138329804,9.035349846,3.196386099,-12.41825008,-9.261632919,10.36863518, 
294,529257584,73.69571686,1.891949415,108.5694427,-0.135190979,9.035429955,3.179965496,-12.58304119,-9.068347931,11.94602108, 
295,529274251,73.4205246,1.649739146,108.5010757,-0.135240555,8.950261116,3.215559483,-13.86986828,-8.516280174,13.56199551, 
296,529290918,73.12899017,1.379334569,108.4502335,-0.142229557,8.906935692,3.240384817,-14.8898344,-8.063910484,15.4358263, 
297,529307585,72.81938934,1.084913969,108.4154816,-0.129337922,8.827973366,3.284891367,-16.0043602,-7.64691782,17.04870796, 
298,529324252,72.49241638,0.765084207,108.3955688,-0.136052161,8.768685341,3.253691196,-17.06678009,-7.348275185,18.7233429, 
299,529340919,72.14946747,0.422118068,108.3984146,-0.172521144,8.796627998,3.303752422,-18.04415321,-6.580861568,20.41741371, 
300,529357586,71.79270935,0.067362756,108.4245987,-0.163495749,8.906560898,3.414358377,-18.87462234,-5.596665859,21.48518372, 
301,529374253,71.43744659,-0.290702611,108.4690704,-0.224127933,8.840473175,3.400532961,-18.76920128,-4.756631851,21.98996544, 
302,529390920,71.11772919,-0.640838861,108.5228806,-0.304993629,8.91127491,3.387428999,-16.61499596,-4.209105492,21.697752, 
303,529407587,70.81193542,-0.992240369,108.5676575,-0.429067612,9.163393974,3.605671644,-15.77035522,-4.87385273,21.58221054, 
304,529424254,70.50828552,-1.350031614,108.5956345,-0.506022096,9.257915497,3.792135,-15.64507771,-6.07676363,21.60156631, 
305,529440921,70.22057343,-1.711349964,108.6082306,-0.50225687,9.385256767,3.947220087,-14.69868374,-7.140191078,21.4809227, 
306,529457588,69.93783569,-2.065961599,108.6090546,-0.479440004,9.515069008,4.082352638,-14.41512489,-7.787656307,20.84782791, 
307,529474255,69.6543808,-2.401299238,108.6029739,-0.43332243,9.567712784,4.247664928,-14.46888161,-7.892168522,19.6041584, 
308,529490922,69.3817215,-2.709138155,108.5889969,-0.405784458,9.612114906,4.306098461,-13.83468342,-7.865618706,17.87726593, 
309,529507589,69.09211731,-2.972060204,108.5596008,-0.395833939,9.741314888,4.335370064,-14.89451027,-7.876475334,15.01535702, 
310,529524256,68.87876892,-3.203933716,108.5056992,-0.447480351,9.656242371,3.995454788,-10.39900494,-8.656378746,12.73996353, 
311,529540923,68.61962891,-3.392084122,108.4415588,-0.437836081,9.564977646,3.786011696,-13.19970608,-8.341932297,10.06315136, 
312,529557590,68.38508606,-3.537486553,108.3997574,-0.571500301,9.170406342,3.695900679,-11.76186752,-8.088952065,7.44747448, 
313,529574257,68.1796875,-3.655468225,108.3434143,-0.664869964,9.177652359,3.72852087,-10.0939064,-8.403416634,5.566712379, 
314,529590924,68.00976563,-3.755518913,108.2280121,-0.678617358,9.203794479,3.743917942,-8.111526489,-9.379727364,4.005443573, 
315,529607591,67.85738373,-3.838419914,108.0821228,-0.569179058,9.292159081,3.788356543,-7.200099468,-10.70875931,2.373094797, 
316,529624258,67.75778961,-3.895539045,107.8910065,-0.462803245,9.183421135,3.821143866,-4.238974094,-12.64738464,-0.075743191, 
317,529640925,67.69475555,-3.917107582,107.6572189,-0.338847488,9.194429398,3.843249321,-2.235766172,-14.21411705,-3.010973692, 
318,529657592,67.74409485,-3.933666945,107.4105148,-0.204665005,9.26708889,3.824596882,4.329211235,-16.67254448,-4.2954216, 
319,529674259,67.79132843,-3.97104001,107.1225967,-0.143355131,9.548282623,3.998211384,4.009199619,-19.46696472,-4.055513859, 
320,529690926,67.80413818,-4.006464005,106.8217773,-0.147721216,9.140475273,4.013770103,1.872573018,-20.09727097,-4.413093567, 
321,529707593,67.8332901,-4.029722691,106.4659653,-0.081996627,9.330312729,4.016094685,2.724228859,-21.06724739,-5.595744133, 
322,529724260,67.88284302,-4.044258118,106.0851212,-0.052452236,9.1863451,3.858154297,3.831642151,-22.26832199,-6.618648529, 
323,529740927,67.98901367,-4.065397263,105.7301788,-0.068130061,9.179373741,3.777469873,7.218864441,-22.68304253,-6.295403004, 
324,529757594,68.12957001,-4.122062206,105.3774109,-0.076994732,9.441524506,3.96066761,9.268532753,-23.34152031,-4.198059082, 
325,529774261,68.30988312,-4.267467022,105.0142822,0.139180824,10.00116158,4.445669174,11.56236076,-25.91566467,0.589260221, 
326,529790928,68.53742981,-4.510262489,104.6300964,0.762130439,10.5930109,4.926157475,14.22878075,-29.15285301,5.688704967, 
327,529807595,68.7806778,-4.79315424,104.2239532,1.347239256,10.24746227,4.911918163,15.07887936,-29.66780853,8.15508461, 
328,529824262,69.12016296,-5.049609661,103.8926392,1.566089392,9.001735687,4.29092741,21.13897514,-24.87454605,8.4081707, 
329,529840929,69.60665131,-5.25631237,103.70504,1.520131111,8.494306564,3.595238447,30.53540611,-17.26214981,8.219345093, 
330,529857596,70.10575104,-5.442004681,103.6134491,1.540261149,8.690037727,3.175478458,31.78087425,-11.39401817,9.119133949, 
331,529874263,70.48460388,-5.645615101,103.5572052,1.546414018,9.11276722,2.991675854,24.87977219,-8.126797676,11.44888306, 
332,529890930,70.73040771,-5.896013737,103.5544815,1.543064713,9.121906281,3.059504986,17.0411644,-7.489231586,14.65852833, 
333,529907597,70.91952515,-6.20143795,103.5544815,1.566560388,8.784838676,3.029479742,13.62965965,-8.378206253,17.82939529, 
334,529924264,71.11505127,-6.525915623,103.5521927,1.562820911,8.462406158,2.834882975,13.97722626,-8.821398735,18.86909676, 
335,529940931,71.31713104,-6.859101295,103.5394287,1.530745745,8.365262985,2.804455757,14.27103806,-9.522400856,19.16744232, 
336,529957598,71.47216797,-7.192202091,103.5139389,1.535858154,8.488833427,2.883672714,11.33029461,-10.16165543,18.93490028, 
337,529974265,71.53570557,-7.528242111,103.4705048,1.555024266,8.635381699,2.9312644,5.678070068,-11.15271091,18.77799988, 
338,529990932,71.49978638,-7.879842281,103.4223099,1.611295938,8.717476845,3.034039974,-0.370680481,-11.7627182,19.54350471, 
339,530007599,71.39085388,-8.26015377,103.3724365,1.632319927,8.741532326,3.12704277,-4.588839054,-10.91563797,21.61429596, 
340,530024266,71.20987701,-8.665551186,103.3907471,1.669164658,8.671210289,3.148925543,-8.549776077,-9.06235218,23.81904793, 
341,530040933,70.97541809,-9.084949493,103.4480591,1.65497601,8.492683411,3.041587353,-11.18045616,-5.792770863,25.80389595, 
342,530057600,70.71308899,-9.503445625,103.5886536,1.609068394,8.277759552,2.96723485,-12.02788258,-1.232121944,27.339077, 
343,530074267,70.43102264,-9.905527115,103.838089,1.590325356,8.255379677,2.947508574,-12.32482624,3.506786823,28.01049805, 
344,530090934,70.09876251,-10.29171181,104.1566925,1.595015049,8.501914978,3.023024797,-14.52607918,7.539107323,28.51624298, 
345,530107601,69.69741058,-10.67924595,104.5174103,1.64854157,8.551525116,3.064154148,-18.13384056,9.509934425,29.44364548, 
346,530124268,69.24798584,-11.05446625,104.9275818,1.768386245,8.253026009,3.094426155,-20.34541702,12.24034595,29.83455276, 
347,530140935,68.81532288,-11.37682915,105.4065781,1.892024636,8.515011787,3.241345882,-18.42646599,16.83132744,28.38160133, 
348,530157602,68.37036896,-11.64652348,105.936409,2.008593082,8.839506149,3.461544037,-18.44616508,20.4603672,26.62840843, 
349,530174269,67.95948029,-11.85638332,106.5090561,2.124941349,8.816311836,3.515144825,-15.78217888,23.84448814,24.35292816, 
350,530190936,67.57216644,-11.99702168,107.1123123,2.247127295,8.985236168,3.546244144,-13.92419243,26.81154633,21.31669998, 
351,530207603,67.1583252,-12.08037281,107.7485199,2.372102261,9.199040413,3.589214563,-15.07548809,29.65821457,19.03066826, 
352,530224270,66.69542694,-12.15283394,108.4146957,2.447255135,9.709920883,4.04694891,-17.62187576,31.33570671,19.3228054, 
353,530240937,66.21090698,-12.26340866,109.0887375,2.635886908,10.19791985,4.610193253,-18.78404236,30.62665367,21.83935547, 
354,530257604,65.77700043,-12.41836929,109.7305374,2.957392931,10.54210663,5.142640114,-16.08779716,27.60136986,23.73088455, 
355,530274271,65.47475433,-12.55756664,110.3252106,3.162320852,10.05143642,5.112384796,-8.707695961,25.32782745,21.9043293, 
356,530290938,65.3731842,-12.59973431,110.8806915,3.122153282,9.442911148,4.619324207,2.877941608,25.58732033,15.73187065, 
357,530307605,65.3432312,-12.51200867,111.3979492,2.741950512,8.921622276,4.072432518,6.665045261,26.8086834,7.738015175, 
358,530324272,65.29438019,-12.33929157,111.8490601,2.337374926,8.518982887,3.743252039,4.630466938,25.53781891,1.548317075, 
359,530340939,65.18793488,-12.13582325,112.2171402,2.009823561,8.255870819,3.610326052,0.020413352,21.88297462,-2.138260603, 
360,530357606,65.0572052,-11.93557358,112.4823151,1.972179651,8.316212654,3.692665339,-2.772109985,16.487463,-4.385826588, 
361,530374273,64.91397858,-11.75988388,112.6534729,2.05901885,8.502409935,3.948199272,-4.744199276,10.85409355,-5.353627682, 
362,530390940,64.80363464,-11.6222744,112.7373199,2.20068574,8.597632408,4.323306084,-3.810536146,5.480209351,-5.337155819, 
363,530407607,64.74248505,-11.52520466,112.770607,2.375382662,8.585063934,4.561410427,-1.479472637,1.753330112,-4.406747818, 
364,530424274,64.71954346,-11.45777512,112.7867737,2.479361534,8.689862251,4.729907513,0.607751012,0.064492784,-3.249387264, 
365,530440941,64.70627594,-11.3965683,112.8198776,2.556348801,8.696030617,4.791131496,1.404183984,0.847914696,-2.482638597, 
366,530457608,64.69300842,-11.3291111,112.8914566,2.443454027,8.629535675,4.638046265,1.869266391,3.072217941,-1.862779975, 
367,530474275,64.65310669,-11.25895309,112.9997253,2.20868063,8.530838966,4.267688274,0.707806945,5.109964848,-1.08931458, 
368,530490942,64.55902863,-11.17838383,113.1313934,2.064369678,8.466358185,3.803019285,-2.291331768,6.561309814,-1.095128894, 
369,530507609,64.4515152,-11.07789993,113.2586899,1.908872724,8.778736115,3.682709694,-3.155850172,6.917901516,-2.243397474, 
370,530524276,64.36116791,-10.97793007,113.3280869,1.696009874,8.978458405,3.731103182,-2.799500227,3.927899599,-3.632924795, 
371,530540943,64.34454346,-10.89263248,113.3116684,1.622470498,8.954296112,3.72671032,0.630469441,-0.978206694,-5.004331112, 
372,530557610,64.39673615,-10.82284164,113.2180176,1.671405077,8.976653099,3.880542517,3.869759798,-5.483673573,-6.128614902, 
373,530574277,64.47157288,-10.76447487,113.0727692,1.808083177,8.867754936,4.118513107,4.62817955,-8.602536201,-6.849396706, 
374,530590944,64.5626297,-10.71267891,112.9059372,1.890514374,8.62355423,4.354010105,5.379977226,-9.838274002,-6.987244606, 
375,530607611,64.66020966,-10.66832638,112.7461929,1.998265624,8.504654884,4.503659248,5.842630386,-9.753250122,-6.435584545, 
376,530624278,64.75491333,-10.62451744,112.6133499,2.035025835,8.42346859,4.627433777,5.966442585,-8.405944824,-5.750226498, 
377,530640945,64.83203888,-10.58258152,112.5050354,2.015056372,8.383187294,4.667906761,5.198316574,-7.150228024,-5.027294159, 
378,530657612,64.91423798,-10.54784012,112.4210129,1.940071702,8.29950428,4.569546223,5.78194046,-6.061035156,-4.0364151, 
379,530674279,64.99235535,-10.52249241,112.353096,1.878462553,8.334369659,4.509767532,5.708136559,-5.515343189,-3.154595137, 
380,530690946,65.05215454,-10.5029192,112.290535,1.790305972,8.449048042,4.494505405,4.701429367,-5.279168606,-2.659501553, 
381,530707613,65.11650848,-10.49167728,112.229538,1.736084938,8.41778183,4.454033852,4.98561573,-5.461774349,-2.188906431, 
382,530724280,65.20043182,-10.48459816,112.1705322,1.692922711,8.463804245,4.439153194,6.184865952,-5.476770401,-1.914415121, 
383,530740947,65.29653168,-10.47812462,112.1066208,1.704725981,8.570711136,4.415743828,6.869570255,-5.751403332,-1.992175341, 
384,530757614,65.3770752,-10.4660387,112.0456619,1.702532411,8.702850342,4.436131477,5.964712143,-5.493431568,-2.233920813, 
385,530774281,65.42105865,-10.4561739,111.9864655,1.707883596,8.582502365,4.391381264,3.795687675,-5.451300144,-2.061726809, 
386,530790948,65.4779129,-10.43990135,111.9352112,1.682816267,8.566214561,4.317034721,4.643851757,-4.939390659,-2.244793415, 
387,530807615,65.54776764,-10.42068672,111.8848495,1.692508459,8.694467545,4.28261137,5.449179649,-4.770321369,-2.356055021, 
388,530824282,65.5975647,-10.39780807,111.8286514,1.71645844,8.76444912,4.276784897,4.180614948,-5.003827095,-2.696902752, 
389,530840949,65.64125824,-10.371521,111.7815475,1.707117915,8.634745598,4.230927944,3.932760715,-4.356285572,-2.623035669, 
390,530857616,65.69413757,-10.33636761,111.7481003,1.675026059,8.692765236,4.252809525,4.629534721,-3.416715622,-2.777691603, 
391,530874283,65.74420929,-10.30325222,111.7215958,1.645268798,8.64838028,4.175479889,4.530950546,-3.141621828,-2.514943361, 
392,530890950,65.8129425,-10.2722168,111.7053299,1.607683659,8.663869858,4.155344486,5.739230156,-2.749696493,-2.197870731, 
393,530907617,65.89582825,-10.25170994,111.6833038,1.58883512,8.690341949,4.097886562,6.547734737,-3.219805479,-1.709257603, 
394,530924284,65.96347809,-10.22513008,111.6731644,1.646790862,9.044551849,4.293508053,5.765162945,-2.408919334,-1.740056396, 
395,530940951,66.00630188,-10.19519234,111.6650925,1.699969649,8.81247139,4.21707058,4.281880379,-2.295506239,-1.905104756, 
396,530957618,66.09207153,-10.15436363,111.6626205,1.682573795,8.82229805,4.144926071,6.921078682,-1.723613262,-2.364020824, 
397,530974285,66.2134552,-10.1086483,111.6617126,1.675374746,8.872943878,4.095617771,9.091920853,-1.438941002,-2.552581549, 
398,530990952,66.35417175,-10.05051708,111.6718521,1.644921422,8.748472214,4.012457371,10.36138439,-0.575824857,-2.982971191, 
399,531007619,66.52172852,-9.991203308,111.6897507,1.686885357,8.813296318,4.09264946,12.05107594,-0.132923573,-2.863148928, 
400,531024286,66.70624542,-9.928409576,111.7171478,1.678183675,8.804780006,4.166540623,13.14918423,0.359628141,-2.877710104, 
401,531040953,66.92391205,-9.869336128,111.7431717,1.698958278,8.795300484,4.129425049,15.12933159,0.209845006,-2.696923256, 
402,531057620,67.16082764,-9.802503586,111.7754822,1.669817448,8.762208939,4.029268742,16.35648918,0.749300182,-2.974616766, 
403,531074287,67.42251587,-9.739063263,111.8124161,1.597874761,8.767320633,4.041903973,17.90264702,0.975460947,-2.660740137, 
404,531090954,67.70963287,-9.677145004,111.8556519,1.577377319,8.736079216,3.999279737,19.44960594,1.049968481,-2.534079313, 
405,531107621,68.00793457,-9.608317375,111.9051437,1.633331537,8.793931007,4.021075726,20.22457314,1.740526319,-2.703648567, 
406,531124288,68.3092804,-9.544405937,111.9575653,1.621273756,8.778898239,3.960967779,20.41875458,1.670475602,-2.422215939, 
407,531140955,68.61169434,-9.48500824,112.0207443,1.616116881,8.723171234,3.872824192,20.5941143,2.168643236,-1.941195726, 
408,531157622,68.9056015,-9.439339638,112.0901871,1.615520954,8.932382584,3.906272411,20.17802238,2.378424406,-0.990169108, 
409,531174289,69.16573334,-9.40255928,112.17659,1.562006593,8.882642746,3.818043232,18.29841232,3.010827303,-0.192332372, 
410,531190956,69.41578674,-9.377249718,112.2771454,1.582780361,8.884943008,3.745547295,17.8494339,3.641272545,0.767677546, 
411,531207623,69.65336609,-9.359002113,112.3877716,1.58014369,8.897777557,3.750213623,17.19922829,4.050729752,1.352813125, 
412,531224290,69.87981415,-9.343899727,112.5082474,1.632749915,8.904582977,3.67031312,16.62847519,4.53505373,1.708919644, 
413,531240957,70.12812805,-9.329174995,112.6352158,1.624951601,8.912258148,3.505547762,18.00042152,4.880928993,1.833884478, 
414,531257624,70.39142609,-9.314795494,112.779129,1.600418806,9.119578362,3.615950584,19.06711769,5.843788147,2.171114683, 
415,531274291,70.64013672,-9.308308601,112.9272461,1.576768756,9.028039932,3.566455603,18.27886581,6.209787369,2.765362024, 
416,531290958,70.87426758,-9.30241394,113.0877838,1.553381443,9.021368027,3.519659519,17.52507591,6.898046494,3.010994434, 
417,531307625,71.1193161,-9.30382061,113.2595673,1.527456284,8.913759232,3.270222425,18.25705147,7.225313187,3.544559002, 
418,531324292,71.35938263,-9.306305885,113.4345093,1.537173152,9.094344139,3.210211039,17.99377823,7.402119637,3.644820452, 
419,531340959,71.55541992,-9.30797863,113.5951614,1.547828555,9.244976997,3.150324345,15.20544052,6.606058598,3.289275169, 
420,531357626,71.73871613,-9.302327156,113.7398605,1.545217872,9.165377617,2.996949673,14.303092,5.983707905,2.591700077, 
421,531374293,71.92192078,-9.289187431,113.8629379,1.579258442,9.338315964,2.916741848,14.11829567,5.111287594,1.810563445, 
422,531390960,72.07846832,-9.273035049,113.9654541,1.574870229,9.423939705,2.840658665,12.28397274,3.859733582,1.200314283, 
423,531407627,72.17289734,-9.259659767,114.0401917,1.572139502,9.486605644,2.75480032,8.289194107,2.302146912,0.861816347, 
424,531424294,72.19690704,-9.244988441,114.0901108,1.589744687,9.377063751,2.734555483,3.824681044,0.996910393,0.3568362, 
425,531440961,72.1789093,-9.23140049,114.1209183,1.598659754,9.32953167,2.807652235,1.085914373,-0.238831997,0.029070413, 
426,531457628,72.16706848,-9.222071648,114.1339951,1.581862211,9.166098595,2.802295685,1.310128093,-1.119294286,0.012716706, 
427,531474295,72.16138458,-9.220901489,114.1403351,1.544709206,9.170624733,2.936012506,1.615687728,-1.615437984,0.365518868, 
428,531490962,72.14357758,-9.231598854,114.1472397,1.523196697,9.100326538,3.024545431,0.869499981,-1.903516769,1.020755768, 
429,531507629,72.13150024,-9.24779892,114.1579895,1.529889107,9.239309311,3.120177031,1.241165757,-1.819391608,1.393433094, 
430,531524296,72.12010193,-9.26414299,114.1633453,1.590204597,9.200362206,3.123851776,1.226316929,-2.138762951,1.301477313, 
431,531540963,72.11793518,-9.274240494,114.1751251,1.5725317,9.225130081,3.157649755,1.869310737,-1.502632976,1.108434439, 
432,531557630,72.12308502,-9.281007767,114.198555,1.571608663,9.221143723,3.212416172,2.403175354,-0.870415509,1.103395104, 
433,531574297,72.14041138,-9.284141541,114.2346725,1.483540535,9.160042763,3.217401028,3.250225782,-0.132603347,1.110835552, 
434,531590964,72.15830994,-9.288378716,114.2753143,1.522199154,9.176876068,3.162373304,3.337872744,0.160758108,1.275474072, 
435,531607631,72.17488861,-9.291913033,114.3210144,1.51182735,9.175506592,3.158416986,3.294369698,0.387430519,1.304403663, 
436,531624298,72.19152069,-9.295957565,114.3645935,1.534650445,9.205931664,3.076141119,3.270933628,0.225417346,1.285040379, 
437,531640965,72.20465088,-9.297682762,114.4020691,1.532302618,9.165247917,3.070307016,3.016100168,0.018633239,1.072288394, 
438,531657632,72.21652222,-9.292271614,114.4341965,1.540578842,9.219844818,3.087073326,2.890495539,-0.12531653,0.574877024, 
439,531674299,72.21913147,-9.28272438,114.458519,1.549093008,9.253474236,3.099465609,2.273869991,-0.404021144,0.223611683, 
440,531690966,72.2161026,-9.273281097,114.4792633,1.543663859,9.222577095,3.071492195,1.880099893,-0.713255942,0.132007837, 
441,531707633,72.21796417,-9.262495995,114.4956512,1.553268671,9.176463127,2.988653183,2.135779142,-0.901893616,-0.012633464, 
442,531724300,72.21285248,-9.252194405,114.5168762,1.571792841,9.17702961,2.988553762,1.712144852,-0.898499846,0.019849841, 
443,531740967,72.20550537,-9.24386692,114.5376053,1.537457585,9.175309181,3.098935843,1.623524904,-0.667358041,0.214403898, 
444,531757634,72.19248199,-9.237652779,114.5664215,1.552967191,9.185450554,3.092734098,1.346190572,-0.334905237,0.456059694, 
445,531774301,72.18619537,-9.232266426,114.6035004,1.540884256,9.178239822,3.096968174,1.840362072,0.198152632,0.677993715, 
446,531790968,72.18350983,-9.227941513,114.6444931,1.533144832,9.204116821,3.112006664,2.107361794,0.478406847,0.832694471, 
447,531807635,72.18588257,-9.2219944,114.6943665,1.527095675,9.165919304,3.04558444,2.483638048,0.940754533,0.883343637, 
448,531824302,72.19468689,-9.211972237,114.7459335,1.519146562,9.191951752,3.066688776,2.897155046,1.191221118,0.704413295, 
449,531840969,72.19374084,-9.200369835,114.8016739,1.511748195,9.19124794,3.046554565,2.3600564,1.503759861,0.704041898, 
450,531857636,72.18994904,-9.187367439,114.8602753,1.504667401,9.219432831,3.096974134,2.200233221,1.622269988,0.65743953, 
451,531874303,72.18517303,-9.170024872,114.9236679,1.532502174,9.194814682,3.111040354,2.185864449,1.971307039,0.498948157, 
452,531890970,72.18208313,-9.146286011,114.9899902,1.556948185,9.246308327,3.079966307,2.341910124,2.41874814,0.2309113, 
453,531907637,72.17766571,-9.109026909,115.0800934,1.522119284,9.263804436,3.105025291,2.452736378,3.836488247,-0.158433765, 
454,531924304,72.17818451,-9.068451881,115.1809082,1.468211532,9.314545631,3.186147928,2.86507535,4.603627205,-0.122819304, 
455,531940971,72.18508148,-9.027807236,115.2885513,1.459549069,9.202750206,3.068998337,3.283843279,4.847921371,-0.041153211, 
456,531957638,72.21546173,-8.985147476,115.3968964,1.457010031,9.232308388,3.01286602,4.726325989,5.116201878,-0.091110803, 
457,531974305,72.25219727,-8.94332695,115.503006,1.480598569,9.293365479,2.886268854,5.043641567,4.773772717,-0.144935906, 
458,531990972,72.27062225,-8.901445389,115.5991745,1.469137073,9.258504868,2.881174088,3.874253988,4.386559486,-0.279351324, 
459,532007639,72.2899704,-8.860870361,115.6819992,1.468114376,9.265188217,2.928480625,3.815587997,3.707246542,-0.418313056, 
460,532024306,72.30299377,-8.817770958,115.7594528,1.53819263,9.28495121,2.989387989,3.369055986,3.401801825,-0.673274577, 
461,532040973,72.30364227,-8.778364182,115.8308334,1.571185827,9.26409626,2.898244381,2.561283112,2.961750746,-0.580684841, 
462,532057640,72.30780792,-8.740344048,115.8997192,1.547878504,9.163079262,2.85441947,2.769552231,2.952939272,-0.5012725, 
463,532074307,72.30918121,-8.708250046,115.9658508,1.527979136,9.186084747,2.903918266,2.55489254,2.60198164,-0.241303653, 
464,532090974,72.31045532,-8.682153702,116.0217438,1.520114183,9.181859016,2.877980471,2.46504283,1.989555955,-0.059632767, 
465,532107641,72.31700897,-8.655866623,116.0778122,1.493911862,9.255648613,2.991544962,2.789683819,2.070440769,-0.045059137, 
466,532124308,72.33070374,-8.627129555,116.1434174,1.481302381,9.33468914,3.078378916,3.234602928,2.263996363,-0.135132641, 
467,532140975,72.33553314,-8.593273163,116.2069168,1.461183429,9.297143936,3.047816038,2.733989239,2.556582928,-0.368022501, 
468,532157642,72.34838104,-8.555464745,116.2820969,1.433011889,9.238740921,3.059829712,3.314117193,3.278362036,-0.388269335, 
469,532174309,72.37973785,-8.517329216,116.3669891,1.422246218,9.214012146,3.028931141,4.515301704,3.883641243,-0.218598038, 
470,532190976,72.41958618,-8.48188591,116.4567184,1.400469661,9.212186813,2.97503829,5.062657833,4.106574059,0.019555299, 
471,532207643,72.45596313,-8.448319435,116.5495453,1.376864433,9.24845314,2.877579451,4.871446609,4.203633785,0.166149601, 
472,532224310,72.49188232,-8.417131424,116.6391144,1.393869281,9.22894001,2.874772549,4.813126564,4.010014534,0.252195477, 
473,532240977,72.53482056,-8.385375023,116.7246857,1.451351404,9.285363197,2.941639423,5.16756773,3.632022619,0.097840533, 
474,532257644,72.5745697,-8.349713326,116.8060684,1.431259751,9.246377945,2.983619452,4.953713417,3.590502739,-0.169600889, 
475,532274311,72.60292053,-8.317703247,116.8827744,1.403391957,9.239383698,2.984948874,4.226377487,3.265747547,-0.044226732, 
476,532290978,72.61436462,-8.284156799,116.9585342,1.429237604,9.238034248,2.966178894,3.204993963,3.268141985,-0.142092869, 
477,532307645,72.61978912,-8.252404213,117.0342712,1.411226988,9.104002953,2.920650244,2.853690147,3.32694912,-0.014656868, 
478,532324312,72.64039612,-8.226471901,117.115509,1.349303722,9.124229431,2.933083296,3.786236525,3.392492056,0.374496162, 
479,532340979,72.6683197,-8.208226204,117.2008438,1.34571743,9.209917068,2.902560949,4.249851227,3.435444593,0.868795633, 
480,532357646,72.69177246,-8.196613312,117.2833481,1.336640954,9.177026749,2.806330204,3.96845746,3.259279966,1.229217649, 
481,532374313,72.75456238,-8.188455582,117.3555069,1.317487717,9.155182838,2.648714542,6.233837605,2.590904236,1.234378695, 
482,532390980,72.81364441,-8.180068016,117.4151459,1.292101383,9.220962524,2.649372578,5.904035568,1.923578143,1.00862813, 
483,532407647,72.84513855,-8.171058655,117.4607315,1.358361244,9.268454552,2.775315046,4.132302284,1.197278619,0.74330622, 
484,532424314,72.79895782,-8.158965111,117.507164,1.404964209,9.245124817,3.000946999,-0.543431103,1.182346225,0.546267688, 
485,532440981,72.68626404,-8.147591591,117.5488281,1.375006318,9.108466148,3.11540699,-4.552100658,1.038953781,0.548777819, 
486,532457648,72.61998749,-8.136611938,117.596199,1.348520756,8.856134415,3.028264046,-1.671491146,1.631413698,0.766460061, 
487,532474315,72.6794281,-8.132575035,117.6433868,1.343770862,8.965738297,2.752437592,5.79424715,1.034727693,1.010254622, 
488,532490982,72.80908203,-8.135723114,117.6713638,1.307242155,9.22107029,2.616346121,9.860892296,-0.057763059,1.117520928, 
489,532507649,72.92784119,-8.145505905,117.66465,1.356168985,9.468641281,2.437495232,8.895945549,-2.209396839,0.869243979, 
490,532524316,72.95307159,-8.149497032,117.6201096,1.482819915,9.670388222,2.382300138,2.95078826,-4.274010658,-0.126814887, 
491,532540983,72.92740631,-8.151451111,117.5387497,1.603454947,9.533618927,2.242927551,-0.449970424,-6.468456268,-0.929376245, 
492,532557650,73.02878571,-8.156695366,117.3897781,1.726498485,9.214962006,1.839452267,6.61249733,-10.19889927,-1.866468787, 
493,532574317,73.29956818,-8.188856125,117.1967163,1.867527962,8.996500969,1.677746654,16.37343025,-13.23433876,-1.072731972, 
494,532590984,73.6974411,-8.246074677,116.9456787,2.02335906,8.790007591,1.593859315,23.46791458,-17.00621033,-0.5578143, 
495,532607651,74.25270081,-8.353786469,116.6265488,2.062514305,9.020498276,1.618380427,32.26735687,-21.82919884,1.329818487, 
496,532624318,74.79100037,-8.51159668,116.2521973,2.115040064,9.112854958,1.612751603,30.70951843,-25.73693085,3.553973913, 
497,532640985,75.3207016,-8.70825386,115.8376465,2.12817359,9.153164864,1.589952111,29.68454933,-28.96958542,5.312132359, 
498,532657652,75.84827423,-8.942036629,115.3745193,2.167743444,9.035396576,1.482687473,29.05479431,-31.93190575,7.087260723, 
499,532674319,76.36679077,-9.205746651,114.885849,2.195515156,9.199026108,1.604144096,28.05850983,-34.16001511,8.62865448, 
500,532690986,76.82798767,-9.488106728,114.358345,2.237476349,9.421010017,1.798426509,24.11425781,-36.40945816,9.496308327, 
501,532707653,77.18251801,-9.779513359,113.7948151,2.310982227,9.839137077,2.066017151,17.19800186,-38.44698334,9.808460236, 
502,532724320,77.40131378,-10.08494663,113.2194977,2.343401909,9.700118065,2.029158592,8.749389648,-39.23472595,10.65973759, 
503,532740987,77.56681824,-10.38458538,112.6542664,2.289509296,9.60428524,2.049274206,5.488371372,-38.42572784,10.59508705, 
504,532757654,77.71780396,-10.6753912,112.0760117,2.220826864,9.679288864,2.170889854,4.30836916,-38.93876266,10.03030396, 
505,532774321,77.85900879,-10.94212246,111.491272,2.155541182,9.711493492,2.221369743,3.4882195,-38.9019928,8.645698547, 
506,532790988,78.00762177,-11.18121815,110.9075623,2.07996583,9.830488205,2.329093218,3.792351961,-38.43642426,7.137504101, 
507,532807655,78.11715698,-11.40067101,110.3274918,2.0074687,9.804247856,2.376672029,1.366534352,-37.87306595,6.131084919, 
508,532824322,78.18282318,-11.5891695,109.7580643,1.922313809,9.669252396,2.419534445,-1.13173449,-36.28678894,4.625303745, 
509,532840989,78.22622681,-11.74886799,109.200386,1.893428683,9.652956009,2.483512402,-2.421057701,-35.2324028,3.114326239, 
510,532857656,78.26689148,-11.88238335,108.6596756,1.842222691,9.623171806,2.563564062,-2.456581593,-33.92155075,1.809365153, 
511,532874323,78.30743408,-11.98237705,108.1442413,1.772101402,9.612721443,2.685088873,-2.209545374,-32.04686356,0.170376316, 
512,532890990,78.33234406,-12.05207348,107.6501541,1.657230973,9.575791359,2.668832779,-2.917161465,-30.44630623,-1.334035397, 
513,532907657,78.32562256,-12.08908081,107.196228,1.549143672,9.407026291,2.602292299,-4.330127239,-27.73855019,-2.766851902, 
514,532924324,78.28353119,-12.10547447,106.7887115,1.381483912,9.333724022,2.65813446,-5.876354218,-24.82276535,-3.430092573, 
515,532940991,78.19903564,-12.11083412,106.4245758,1.301306009,9.320464134,2.75677824,-7.868089676,-22.19421005,-3.578184366, 
516,532957658,78.10289001,-12.1114397,106.1181641,1.196191072,9.270466805,2.846571922,-7.831037521,-18.81725121,-3.186231136, 
517,532974325,78.02114868,-12.11375237,105.8649673,1.165891528,9.404477119,2.931746483,-6.289505482,-15.78514099,-2.457534552, 
518,532990992,77.98317719,-12.10686588,105.671608,1.148910522,9.327290535,2.933437824,-2.896560907,-12.23801708,-2.271418571, 
519,533007659,78.01716614,-12.08653927,105.5425949,1.168154597,9.428609848,2.945570707,2.243468285,-8.382277489,-2.265847445, 
520,533024326,78.07828522,-12.04458523,105.471344,1.147193789,9.452464104,2.915866375,4.608979702,-4.806037426,-2.815905094, 
521,533040993,78.13005829,-11.97305775,105.4648666,1.05768609,9.406955719,2.839736462,4.873520374,-0.730621517,-3.755672932, 
522,533057660,78.15057373,-11.8821497,105.5154419,0.995245337,9.259149551,2.682502985,3.712868214,2.777774334,-4.193074703, 
523,533074327,78.16068268,-11.78585148,105.6118317,0.928717077,9.076425552,2.586111784,3.657404661,5.473690987,-3.94552803, 
524,533090994,78.18518066,-11.69928932,105.7363968,0.8748945,8.917224884,2.491064548,4.862591267,6.971221924,-3.023605585, 
525,533107661,78.24567413,-11.63888264,105.8747177,0.887214184,8.889672279,2.398385763,7.183968067,7.435279846,-1.315961838, 
526,533124328,78.33738708,-11.62437916,106.0100479,0.896539629,8.840854645,2.287208796,9.024395943,6.702219486,1.346562624, 
527,533140995,78.46782684,-11.66342354,106.1329346,0.91275996,8.77575779,2.141463757,11.19890881,5.335723877,4.342577934, 
528,533157662,78.62654114,-11.77099323,106.2396393,0.915869355,8.619945526,1.982527614,12.71226025,3.593989611,8.177348137, 
529,533174329,78.80058289,-11.95449924,106.3334961,0.97322911,8.56122303,1.840882301,13.48962212,1.977469087,12.49360752, 
530,533190996,78.94955444,-12.23446178,106.4068909,0.976899147,8.441449165,1.772041917,11.74974346,-0.292196572,17.93995667, 
531,533207663,79.08665466,-12.605299,106.4633865,1.040168285,8.318997383,1.712845922,10.84190559,-2.268285036,23.11040306, 
532,533224330,79.22179413,-13.05631447,106.5103149,1.250447392,8.43991375,1.913700938,10.62204266,-3.676157713,27.74014091, 
533,533240997,79.34264374,-13.55861187,106.5742874,1.571322799,8.546355247,2.110705376,10.02336311,-3.219483852,30.95905876, 
534,533257664,79.51086426,-14.08732128,106.6640625,1.861897349,8.636834145,2.047522545,13.27132988,-1.968491912,32.80092239, 
535,533274331,79.80433655,-14.60366535,106.7684631,2.208666801,9.042662621,1.824094415,21.05515862,-0.882163525,32.22670746, 
536,533290998,80.19080353,-15.09851456,106.8501511,2.448478222,9.717352867,1.4236691,26.3386364,-1.782225013,30.72294998, 
537,533307665,80.61736298,-15.56344986,106.8894272,2.631519079,10.21229076,1.082149267,28.10570717,-3.69906497,28.54674911, 
538,533324332,81.04407501,-15.99801731,106.8768921,2.704128981,10.27593231,0.802248299,27.27370644,-6.159405231,26.28979111, 
539,533340999,81.40779877,-16.40387154,106.8104553,2.726627588,10.33205223,0.797839522,22.57785416,-8.783686638,24.14863396, 
540,533357666,81.63526917,-16.80232048,106.7038498,2.643078566,10.05954266,0.762245357,13.67512417,-10.8731308,23.41015625, 
541,533374333,81.72877502,-17.21431732,106.5672226,2.541583061,9.680734634,0.648943245,5.058661461,-12.61539364,23.99704742, 
542,533391000,81.74365234,-17.65757942,106.4108276,2.425791502,9.300377846,0.521768868,-0.081980079,-13.96283627,25.70719528, 
543,533407667,81.75405884,-18.15405655,106.245018,2.30594492,8.948976517,0.366800636,-0.609322011,-14.9243269,28.80078316, 
544,533424334,81.82767487,-18.71571159,106.0796814,2.308851719,8.742306709,0.260819644,3.094796419,-15.40350246,32.69496536, 
545,533441001,81.99688721,-19.35067749,105.9136658,2.359055758,8.637479782,0.132878259,8.705154419,-15.9588995,37.08394623, 
546,533457668,82.28236389,-20.06866646,105.7511063,2.427139044,8.380464554,-0.061296966,15.62663651,-16.26066589,42.11388779, 
547,533474335,82.68254089,-20.88594437,105.5889359,2.472616673,8.13525486,-0.171513781,22.37904167,-16.72237206,48.12389755, 
548,533491002,83.21185303,-21.8205471,105.4213333,2.583475113,7.843271255,-0.279359013,29.85531044,-17.44352722,55.20762634, 
549,533507669,83.91383362,-22.88894653,105.2261276,2.731813669,7.54120779,-0.262497783,39.40801239,-19.20945549,63.19529343, 
550,533524336,84.78894806,-24.1121769,105.0047455,2.925756693,7.159990311,-0.374543726,48.93963242,-20.59790421,72.55206299, 
551,533541003,85.84402466,-25.5019207,104.7569885,3.317622662,6.998597622,-0.425663114,58.78356552,-21.50421906,82.71897888, 
552,533557670,87.09731293,-27.06450081,104.4637451,3.860293388,6.956053734,-0.469794601,69.10956573,-22.75458145,93.31871796, 
553,533574337,88.60903931,-28.79078484,104.0992279,4.496252537,7.105278492,-0.452421665,82.15311432,-24.41853142,103.4886475, 
554,533591004,90.33927917,-30.69028473,103.6572723,5.114332199,6.920951843,-0.709476829,92.34126282,-25.29093361,114.4532776, 
555,533607671,92.2529068,-32.76212311,103.1386795,5.807548046,6.694360256,-1.021327376,100.1264038,-24.86061287,125.5653229, 
556,533624338,94.18541718,-35.03181458,102.5363388,6.671261311,6.684266567,-1.168313622,97.45722198,-23.50653267,138.3200226, 
557,533641005,95.99543762,-37.53165054,101.8085098,7.545103073,6.536950588,-1.220310688,84.41267395,-22.94992638,153.166748, 
558,533657672,97.5745163,-40.28352737,100.8993454,8.470028877,6.66108942,-1.157535911,62.12953949,-23.83492661,169.5865173, 
559,533674339,98.89594269,-43.26848221,99.74445343,9.270482063,6.742121696,-1.128900647,34.7653656,-26.67923164,185.2350159, 
560,533691006,99.99764252,-46.42589951,98.31075287,9.844186783,6.873761654,-1.032305717,7.080385685,-30.26062775,197.435257, 
561,533707673,101.0196991,-49.67506027,96.56153107,10.0856514,6.707198143,-1.045275569,-15.09013176,-34.62605667,204.9957886, 
562,533724340,102.1817245,-52.90839386,94.50590515,10.06797886,6.409215927,-1.302651644,-24.88535309,-37.74693298,206.0427856, 
563,533741007,103.6750031,-56.02170563,92.17502594,9.910799026,5.997232437,-1.584349036,-22.57087517,-38.63559723,200.7226715, 
564,533757674,105.6532211,-58.91061401,89.59471893,9.832242966,5.708333015,-1.605940461,-10.19942951,-37.87388229,189.2268066, 
565,533774341,108.1350861,-61.4915657,86.78160858,9.899320602,5.626123905,-1.292299151,4.074404716,-36.46190643,173.0036011, 
566,533791008,110.9951553,-63.72241974,83.71594238,10.18859673,5.803229809,-0.729553342,9.926398277,-36.12551117,154.9190369, 
567,533807675,114.0812302,-65.59941864,80.38262939,10.60532188,5.818069458,-0.280131042,6.058694363,-37.10655594,137.2900696, 
568,533824342,117.1978912,-67.12247467,76.82459259,10.98132706,6.004930019,-0.108036056,-6.901127815,-38.86042786,119.9027176, 
569,533841009,120.098526,-68.30557251,73.19526672,11.18461323,6.252107143,-0.216489702,-25.76943398,-39.68757248,102.3871765, 
570,533857676,122.6022644,-69.1955719,69.68366241,10.9230032,6.516347885,-0.306115329,-44.43832779,-38.69961166,85.8627243, 
571,533874343,124.4823685,-69.82989502,66.54234314,10.60886765,6.532392025,-0.446930707,-62.03395081,-35.24043655,68.7447052, 
572,533891010,125.7111053,-70.24976349,63.96057129,9.994613647,6.317293644,-0.647037983,-70.14428711,-30.08744049,51.6254425, 
573,533907677,126.2240448,-70.48501587,62.13343811,9.406729698,5.920046806,-0.706638873,-70.72850037,-22.84681511,33.70088196, 
574,533924344,126.0957947,-70.56575012,61.07497025,8.733108521,5.570910931,-0.477291048,-65.80800629,-15.57849407,17.0759964, 
575,533941011,125.4364014,-70.51931,60.69573975,8.268014908,5.206467152,-0.384783268,-59.25270462,-9.137824059,2.871860266, 
576,533957678,124.4080963,-70.37195587,60.87081909,7.998308659,4.858920574,-0.482492,-50.0241127,-3.553979635,-8.534209251, 
577,533974345,123.1623001,-70.14450073,61.44048309,7.81888628,4.721286774,-0.540530145,-40.79475403,0.617904246,-17.01340294, 
578,533991012,121.8336258,-69.86326599,62.24543381,7.707841396,4.643285275,-0.701861441,-32.5496254,3.463342667,-22.33262444, 
579,534007679,120.496315,-69.54800415,63.17035675,7.60865736,4.685891628,-0.821181536,-26.38630676,5.272821426,-25.35886002, 
580,534024346,119.1585388,-69.22354126,64.14357758,7.55220747,4.761142254,-0.906112432,-23.80783463,6.73669529,-26.30542946, 
581,534041013,117.8253708,-68.90795135,65.14595032,7.540296078,4.720926285,-1.073377132,-22.00422859,8.431519508,-26.06772423, 
582,534057680,116.5136337,-68.61180878,66.17470551,7.571024418,4.673321724,-1.349805355,-19.36493492,10.35613918,-25.16809273, 
583,534074347,115.2330933,-68.34284973,67.25888824,7.60351181,4.518242836,-1.674252033,-14.49980068,13.00681305,-24.07164192, 
584,534091014,114.0073166,-68.10354614,68.42670441,7.590146542,4.366368771,-1.966617465,-6.664756775,16.22992897,-23.00306702, 
585,534107681,112.8530045,-67.89144897,69.68701172,7.49207449,4.270697594,-2.15302515,2.669312477,19.52148247,-22.05224991, 
586,534124348,111.7831573,-67.70024109,71.04039764,7.340183258,4.194386005,-2.394087315,12.79801464,22.63076782,-21.35934448, 
587,534141015,110.8166199,-67.52664185,72.46757507,7.219024181,4.18035984,-2.576829433,22.98180771,25.2134819,-20.63138962, 
588,534157682,109.9395065,-67.36461639,73.94137573,7.11948061,4.198865414,-2.631344795,30.83702469,27.0421524,-19.99556923, 
589,534174349,109.1406555,-67.22079468,75.41986847,7.120354652,4.199980259,-2.681796312,35.68441391,28.0361042,-18.64116478, 
590,534191016,108.4333191,-67.10942078,76.83821869,7.222045898,4.230979443,-2.70757699,37.76756668,27.78683853,-16.00729752, 
591,534207683,107.8286591,-67.0390625,78.13967896,7.44148159,4.30771637,-2.728052378,37.40534973,26.2856636,-12.51252365, 
592,534224350,107.3806,-67.01368713,79.24490356,7.66824913,4.443233967,-2.690335274,35.9265976,22.92286491,-8.304980278, 
593,534241017,107.1254501,-67.0320816,80.11197662,7.988848686,4.647954941,-2.565345049,34.33140945,18.45415115,-3.981842279, 
594,534257684,107.0535126,-67.08802795,80.75052643,8.55967617,4.739235401,-2.43889761,32.70516586,14.01080894,-0.185468763, 
595,534274351,107.1334152,-67.2067337,81.16927338,9.640601158,4.636719227,-2.264562368,29.67783546,10.18520737,4.942781925, 
596,534291018,107.4603348,-67.40621185,81.31723022,10.87300777,4.702010155,-2.207453251,29.52620888,5.606537342,11.41882229, 
597,534307685,108.1385498,-67.6680069,81.12674713,11.75093651,5.178404808,-2.09680891,31.8517437,-0.56712544,17.29768181, 
598,534324352,109.144371,-67.9671936,80.61834717,12.42400742,5.59706974,-1.920550108,33.82039642,-6.377912998,21.69757843, 
599,534341019,110.4053879,-68.21898651,79.90702057,12.1564312,5.77109766,-1.816605687,37.7787056,-11.06903553,20.61812401, 
600,534357686,111.7111435,-68.3186264,79.21521759,11.12048626,5.862232208,-1.384710789,41.50354385,-13.3850069,12.11964703, 
601,534374353,112.728035,-68.21328735,78.84829712,10.06648254,5.443431377,-1.021802664,42.28739548,-11.12558556,-1.737148285, 
602,534391020,113.2639923,-67.87242126,79.02783203,9.079232216,4.752437115,-0.914678216,43.87728882,-5.471160412,-19.35845375, 
603,534407687,113.2355118,-67.30440521,79.84457397,8.256715775,4.145397186,-0.862888038,45.32166672,2.526083708,-37.63483429, 
604,534424354,112.6631775,-66.55162811,81.22296143,7.86340332,3.872158527,-0.773157656,43.48084641,11.04672718,-53.16923523, 
605,534441021,111.706749,-65.67432404,82.91506195,7.939649105,3.994580746,-0.537217736,37.17233658,17.00504303,-63.19695282, 
606,534457688,110.6920166,-64.73838806,84.6085968,8.192333221,3.871222973,-0.548123062,33.10010529,18.23426247,-66.6971817, 
607,534474355,109.9043274,-63.79870224,86.08758545,8.649469376,3.952412367,-0.612496138,34.40988922,15.38406181,-65.17714691, 
608,534491022,109.5188828,-62.87548447,87.21035767,9.154165268,4.296592712,-0.49881202,38.81138611,8.582875252,-61.28369522, 
609,534507689,109.606842,-61.96739578,87.87746429,9.626616478,4.708534241,-0.154770836,42.49182129,-1.977130651,-56.48960495, 
610,534524356,110.1095657,-61.04692078,88.08363342,9.916311264,4.942155838,0.216754287,42.7752533,-14.41273403,-52.89844131, 
611,534541023,110.8090286,-60.08083725,87.95922089,9.916503906,4.822716713,0.469733983,37.21918869,-24.91096878,-51.98169708, 
612,534557690,111.3845825,-59.05691147,87.72811127,9.577736855,4.50752449,0.761078477,24.34643555,-29.89225578,-53.75337601, 
613,534574357,111.6360016,-57.98367691,87.54225922,9.269846916,4.204277039,0.981275141,7.360198975,-30.27426338,-56.74751282, 
614,534591024,111.4670715,-56.89017868,87.50178528,9.016461372,3.779209375,1.046471,-10.37768841,-26.58232498,-59.52971649, 
615,534607691,110.8770599,-55.81871796,87.65466309,8.821831703,3.478168726,1.040592432,-25.9393177,-19.76960373,-60.79068375, 
616,534624358,109.9671555,-54.81606293,87.97866058,8.635692596,3.442059994,1.090273499,-36.76691818,-11.93844986,-59.26609802, 
617,534641025,108.8577423,-53.91410828,88.41855621,8.580355644,3.455543995,1.01218605,-43.2559967,-4.820374489,-55.20246124, 
618,534657692,107.7462997,-53.12809753,88.91786194,8.704193115,3.477269173,0.91508925,-40.72735596,0.740947545,-49.44121552, 
619,534674359,106.8129959,-52.46350479,89.41107178,8.888373375,3.46189189,0.824503303,-30.54291916,3.862259865,-42.49040985, 
620,534691026,106.1669235,-51.92180634,89.87663269,9.182267189,3.449767113,0.769442737,-14.79904938,5.796094418,-35.15133667, 
621,534707693,105.8469238,-51.49993134,90.30573273,9.451871872,3.406498432,0.802541614,2.91377306,6.942367554,-27.88386345, 
622,534724360,105.7812271,-51.18992615,90.71604919,9.580920219,3.382481813,0.845974505,17.20205116,8.301433563,-21.27304077, 
623,534741027,105.8404083,-50.98846054,91.13632202,9.569092751,3.420973063,0.847695589,25.10087967,10.50592995,-15.16187954, 
624,534757694,105.9254837,-50.89022446,91.58429718,9.378731728,3.558169127,0.737957716,27.91484833,13.22441101,-9.548840523, 
625,534774361,105.9409714,-50.88637161,92.08057404,9.123214722,3.787585258,0.540131032,25.97997284,16.53004456,-4.650200367, 
626,534791028,105.8386917,-50.96692276,92.63790131,8.779430389,3.840780258,0.220630139,21.78666687,20.11581421,-0.420094371, 
627,534807695,105.6616516,-51.12860107,93.2532959,8.504413605,3.821723223,-0.175301567,20.05579376,23.48374367,3.719731808, 
628,534824362,105.4930115,-51.3636055,93.88698578,8.20106411,3.870434284,-0.474624991,21.50069046,25.21422768,7.855600357, 
629,534841029,105.4108582,-51.68072128,94.49620819,8.018322945,3.896762609,-0.77262944,25.65240479,25.4860611,12.93039417, 
630,534857696,105.4693069,-52.0856514,95.05284119,7.867823601,3.924983025,-1.051844001,31.75231743,24.83268166,18.56565857, 
631,534874363,105.6868744,-52.59005356,95.52076721,7.852035999,4.057011127,-1.296999574,37.24511719,23.14215088,25.16869926, 
632,534891030,106.0579071,-53.205616,95.86286926,7.743354797,4.298485279,-1.445892215,40.59341812,20.50138664,32.75341797, 
633,534907697,106.5501862,-53.94374466,96.04656982,7.65670681,4.444231033,-1.523766756,40.35765839,17.20447731,41.27926636, 
634,534924364,107.1585312,-54.81315994,96.0328064,7.678404808,4.576541901,-1.643324971,37.77480316,13.15534401,50.66874313, 
635,534941031,107.8777313,-55.80567169,95.79888153,7.788383961,4.732580662,-1.67224133,33.55212784,8.797253609,59.79427719, 
636,534957698,108.7313232,-56.91468811,95.31197357,7.980280876,4.827367306,-1.759810328,28.82282066,4.021529198,68.85823059, 
637,534974365,109.7597809,-58.12456894,94.5568924,8.321836472,4.853541374,-1.893433452,25.41229057,-0.553599298,77.15509033, 
638,534991032,111.0248642,-59.43035126,93.52478027,8.935343742,4.881048679,-2.111874342,24.85809898,-4.303802967,85.22014618, 
639,535007699,112.6020432,-60.84026718,92.17903137,10.02831841,4.892420292,-2.153686047,26.5068264,-7.410049438,94.07476044, 
640,535024366,114.6381683,-62.34705353,90.42037201,11.32715511,5.103264809,-2.382493019,31.23647308,-11.28888988,103.5356522, 
641,535041033,117.2626114,-63.91491699,88.14434052,12.47301579,5.431922436,-2.558898687,37.51576233,-15.85659885,112.1737518, 
642,535057700,120.450386,-65.4871521,85.3289032,13.11018753,5.724600315,-2.471185923,40.38982773,-19.23098373,118.0325928, 
643,535074367,124.1079941,-66.99343109,82.04129791,13.08308792,5.759799957,-2.517115593,40.76330948,-20.46988297,119.4173889, 
644,535091034,128.061615,-68.33963776,78.53091431,12.10457611,5.640372753,-2.918105841,44.22590637,-18.65858269,112.9932785, 
645,535107701,131.9857635,-69.45790863,75.24949646,10.56950188,5.279983044,-3.48437047,53.59876633,-12.6786871,97.57057953, 
646,535124368,135.4501343,-70.34915924,72.68703461,9.21163559,4.677169323,-3.974547863,65.31911469,-2.763253212,75.79751587, 
647,535141035,138.1295776,-71.02967072,71.14506531,8.426650047,3.942532539,-4.115076065,75.28794861,7.293570518,50.93124771, 
648,535157702,140.0371857,-71.49671936,70.46923065,8.246756554,3.377144814,-4.018131256,77.89091492,11.14771652,28.89758873, 
649,535174369,141.2166901,-71.73814392,70.29760742,8.397627831,3.133147001,-3.357541561,62.82758331,7.660385132,12.42115211, 
650,535191036,141.8807526,-71.74369812,70.13253021,8.537103653,3.025260448,-2.750478745,32.26719284,-3.132297754,3.372321844, 
651,535207703,142.1996765,-71.52746582,69.68367767,8.329216957,3.114053965,-2.301312923,-4.59007597,-16.90570068,-0.54477632, 
652,535224370,142.3019562,-71.16351318,68.95362091,8.051730156,2.822689056,-2.373311996,-33.52885437,-27.29912758,-1.535081625, 
653,535241037,142.2627563,-70.73200989,68.16300964,7.843225002,2.531319857,-2.726291418,-45.35333252,-31.40444946,-2.826565027, 
654,535257704,142.1027832,-70.28378296,67.54864502,7.695896626,2.204385042,-3.029694796,-42.50247955,-30.23875427,-6.012108326, 
655,535274371,141.9516144,-69.84602356,67.22525787,7.596512318,1.694420338,-3.143931627,-25.46842766,-26.21982002,-10.18309021, 
656,535291038,141.8787994,-69.43247223,67.24847412,7.577300549,1.380195618,-2.935091972,-1.223847985,-20.66526222,-14.92531395, 
657,535307705,141.925705,-69.04597473,67.56467438,7.608422756,1.375103116,-2.547379017,22.39390945,-15.52610111,-18.84435272, 
658,535324372,142.0667267,-68.67941284,68.08065033,7.709208488,1.592230082,-2.175770283,39.17590332,-11.87670422,-21.58669281, 
659,535341039,142.193222,-68.31795502,68.74038696,7.8569417,1.74173677,-2.036317587,46.25505447,-9.629516602,-24.01496887, 
660,535357706,142.1759491,-67.95455933,69.53115845,8.142032623,1.769931197,-1.96730268,44.83805847,-7.805782795,-26.57583618, 
661,535374373,141.9596405,-67.58324432,70.4360199,8.368632317,1.635737181,-1.842323303,39.11818314,-6.360282421,-29.14737511, 
662,535391040,141.5375214,-67.20245361,71.42591095,8.525515556,1.476510882,-1.75087142,31.35302162,-5.223893642,-31.33279991, 
663,535407707,140.9468536,-66.82394409,72.47528076,8.627698898,1.314528108,-1.770817399,24.37138176,-3.737061977,-32.65269852, 
664,535424374,140.2335052,-66.4665451,73.57346344,8.80581665,1.20782268,-1.845763326,19.54429054,-1.410453796,-33.06834793, 
665,535441041,139.4543915,-66.12963867,74.72888947,8.943582535,1.081430793,-2.095345259,18.58564377,1.092284799,-33.61708832, 
666,535457708,138.6366577,-65.8108902,75.96843719,9.046646118,1.048720241,-2.193738699,20.71395493,3.975818157,-34.70188141, 
667,535474375,137.7895813,-65.50926208,77.28144836,9.103421211,1.019671082,-2.147823095,22.80470848,6.709020615,-35.57805634, 
668,535491042,136.9221039,-65.23408508,78.66773224,9.182768822,0.901559293,-2.156669855,25.41195297,9.900263786,-36.00434494, 
669,535507709,136.0609283,-64.99446106,80.1021347,9.211988449,0.881380618,-2.284042358,28.25004196,13.06768703,-35.502285, 
670,535524376,135.2199402,-64.79237366,81.55860138,9.16713047,1.03796804,-2.346951962,30.52387047,15.81245136,-34.34497452, 
671,535541043,134.4232025,-64.6248703,83.00432587,9.129232407,1.121212959,-2.482705116,32.46654129,17.75933266,-32.62002945, 
672,535557710,133.673645,-64.45909882,84.44164276,9.121478081,1.10956037,-2.750387192,34.73611832,18.28504753,-32.30890274, 
673,535574377,132.9564056,-64.30873108,85.83377838,9.020356178,1.153736234,-2.78883934,34.12250137,18.64515495,-30.73877144, 
674,535591044,132.2302094,-64.20375061,87.16791534,9.052384377,1.251021624,-2.762521267,30.3650341,19.89400101,-27.58256149, 
675,535607711,131.5739288,-64.14754486,88.36808014,9.169508934,1.445994854,-2.746197462,27.27163887,19.65704346,-22.8891468, 
676,535624378,131.01297,-64.13172913,89.3983078,9.230969429,1.603337884,-2.757401228,23.79505348,18.19499397,-17.95071983, 
677,535641045,130.6017456,-64.14821625,90.24858093,9.303897858,1.757724643,-2.843068838,23.05463028,16.05414391,-13.24957752, 
678,535657712,130.3309784,-64.19473267,90.96217346,9.357532501,1.753881574,-3.022735834,24.11124039,14.56876278,-9.452848434, 
679,535674379,130.2122192,-64.26667786,91.58351898,9.30561924,1.635282397,-3.164924383,28.26341057,13.72438335,-6.666106701, 
680,535691046,130.2050934,-64.35897827,92.16075134,9.258319855,1.668294311,-3.263092518,32.59335327,13.61173725,-4.95709753, 
681,535707713,130.2571106,-64.46984863,92.69535828,9.157535553,1.771329522,-3.314277172,33.85296631,13.44865322,-3.374418974, 
682,535724380,130.3381042,-64.59008026,93.16325378,9.009755135,1.907797098,-3.275158167,31.99616814,12.45565987,-1.821127772, 
683,535741047,130.4198914,-64.71432495,93.55327606,8.880223274,1.947343349,-3.250974894,27.84778976,11.04672813,-0.338594556, 
684,535757714,130.4852142,-64.83342743,93.8677597,8.744969368,1.92251122,-3.220164061,22.77451324,9.346515656,0.68492341, 
685,535774381,130.5447845,-64.94593048,94.09523773,8.698836327,1.904303551,-3.159476995,17.71363831,7.384074211,1.826443672, 
686,535791048,130.6458588,-65.04966736,94.21553802,8.695588112,1.920321107,-3.010103464,14.37910938,4.967933178,3.190512896, 
687,535807715,130.8275604,-65.15300751,94.22478485,8.779008865,1.987605214,-2.969712973,13.17451668,2.826798916,4.987666607, 
688,535824382,131.1193085,-65.26011658,94.13499451,8.841593742,2.1074965,-2.977894783,14.37966251,1.115818501,6.766215324, 
689,535841049,131.48909,-65.35451508,94.00050354,8.819684029,2.276627779,-2.972777128,16.61120987,-0.182215333,6.909224987, 
690,535857716,131.8419647,-65.44857788,93.87569427,8.883116722,2.304578781,-2.871052742,16.12534714,0.035755359,6.707537174, 
691,535874383,132.1589813,-65.53845978,93.75979614,9.016816139,2.23082304,-2.807610512,14.44691753,0.082127184,6.356539249, 
692,535891050,132.4434967,-65.62095642,93.6411438,9.13189888,2.322429895,-2.780512333,12.33649445,-0.22733207,6.054590225, 
693,535907717,132.6859741,-65.69423676,93.50884247,9.226673126,2.465128899,-2.788414717,9.068499565,-0.817500055,5.85699892, 
694,535924384,132.8807373,-65.75613403,93.37783051,9.156506538,2.469980478,-2.853932619,6.265880108,-1.230095148,5.325817108, 
695,535941051,133.0227661,-65.80963135,93.28016663,9.037919044,2.394642115,-2.83349061,4.92343998,-0.951403022,4.386815548, 
696,535957718,133.1026154,-65.86016846,93.235466,8.900444031,2.286096573,-2.832900763,4.083369255,-0.108156033,3.363140106, 
697,535974385,133.1152344,-65.91697693,93.24680328,8.759337425,2.287938356,-2.853402615,3.117590427,1.157668352,2.691113234, 
698,535991052,133.0734558,-65.98252106,93.28542328,8.688040733,2.355775595,-2.95935607,1.347791433,2.002528906,2.615709782, 
699,536007719,132.9980927,-66.05093384,93.3336792,8.608596802,2.424434423,-3.020575285,-0.140363991,2.293169022,2.58351469, 
700,536024386,132.9011078,-66.11560059,93.38032532,8.520750999,2.423584938,-3.100639105,-1.52494812,2.110217571,2.450751305, 
701,536041053,132.7848053,-66.16830444,93.42129517,8.426643372,2.469525576,-3.067200661,-3.000163078,1.519089341,2.026464224, 
702,536057720,132.6465607,-66.20431519,93.45169067,8.227998734,2.492917776,-3.027858496,-4.900766373,0.652765274,1.471308827, 
703,536074387,132.4567566,-66.22813416,93.48569489,8.018592834,2.505212784,-2.976462603,-7.794220924,0.22294575,0.878131449, 
704,536091054,132.1938934,-66.25531006,93.5398407,7.825415611,2.483049154,-3.008063793,-11.07439137,0.723354101,0.708140135, 
705,536107721,131.8770599,-66.2946167,93.61831665,7.732509136,2.553101778,-3.07749629,-12.9778204,1.649721265,0.865818501, 
706,536124388,131.5556183,-66.34680939,93.69319153,7.72582674,2.669019938,-3.068234205,-13.45159817,2.101612806,1.51993525, 
707,536141055,131.2660065,-66.40441132,93.75138092,7.774048805,2.74300456,-3.064764977,-12.46307564,2.013415098,2.055663347, 
708,536157722,131.0178528,-66.45607758,93.80672455,7.837283134,2.781540394,-3.073682547,-10.13315105,1.724568009,1.851235747, 
709,536174389,130.7673187,-66.49332428,93.87984467,7.91064167,2.902684212,-2.992618322,-9.296972275,1.479927897,0.937169015, 
710,536191056,130.4516144,-66.51558685,93.98532104,7.972826004,3.024659395,-2.903120279,-11.42442799,1.482540607,-0.233082071, 
711,536207723,130.0390778,-66.52145386,94.1467514,7.973354816,3.055099487,-2.93223834,-14.15821838,1.877501845,-1.823734403, 
712,536224390,129.4742737,-66.50779724,94.41771698,7.931278229,3.146590233,-2.904723883,-17.26892662,3.167308331,-4.36593914, 
713,536241057,128.7315063,-66.47361755,94.83039856,7.916555405,3.231502771,-2.835880756,-20.15005112,5.087164879,-7.411194324, 
714,536257724,127.8215256,-66.4198761,95.37581635,7.967978954,3.23348093,-2.748776436,-22.89001274,6.990298271,-10.21627045, 
715,536274391,126.7715225,-66.34233093,96.05130005,8.056053162,3.305250406,-2.756662846,-24.1571331,8.826277733,-13.11827087, 
716,536291058,125.6040497,-66.23820496,96.84385681,8.228773117,3.424050093,-2.774387836,-24.80304337,10.47719193,-15.9034996, 
717,536307725,124.3400726,-66.11479187,97.72601318,8.671793938,3.489028692,-2.786649466,-25.71203232,12.01210976,-17.88942146, 
718,536324392,123.040329,-65.9720459,98.62163544,9.29233551,3.617781162,-2.778002739,-27.16674614,12.14873219,-18.79476357, 
719,536341059,121.8172989,-65.81453705,99.41130066,10.06136417,3.735112429,-2.796506405,-28.42880058,10.01441574,-17.91585732, 
720,536357726,120.7837143,-65.62780762,99.99378204,10.56168938,3.97753334,-2.897265673,-28.44729805,5.209617615,-16.60262108, 
721,536374393,119.9679337,-65.36923981,100.3533173,10.48246861,4.199187756,-3.002408981,-27.61416054,-1.370880008,-17.46826553, 
722,536391060,119.2546005,-64.99829102,100.6041183,10.07258224,4.138988018,-2.863039732,-27.43926048,-6.74634552,-22.03129387, 
723,536407727,118.4915695,-64.48149109,100.8476944,9.725654602,3.970896721,-2.699386835,-30.86226463,-10.74675846,-29.72315598, 
724,536424394,117.5828705,-63.83166504,101.1105957,9.437234879,3.842749834,-2.491995096,-38.6255722,-13.48731422,-37.20353317, 
725,536441061,116.541153,-63.09316254,101.2978745,9.325201035,3.666439772,-2.390982151,-50.75429535,-16.9155426,-41.30005646, 
726,536457728,115.4589233,-62.33982849,101.317482,9.339745522,3.795266628,-2.125295877,-62.19137192,-20.55279541,-40.42302704, 
727,536474395,114.4130096,-61.63827896,101.0931473,9.511345863,3.856365919,-1.967691064,-72.94806671,-24.69902039,-35.06669998, 
728,536491062,113.5519333,-61.03556061,100.6078568,9.769258499,3.886009455,-1.910290241,-75.52045441,-28.67945671,-26.93302345, 
729,536507729,113.0005722,-60.53672409,99.8782959,9.749955177,3.915848732,-1.755595565,-69.59989929,-32.67154312,-18.62458992, 
730,536524396,112.8140411,-60.10993958,98.97691345,9.549856186,4.035218716,-1.681007266,-56.49305725,-35.85078049,-12.74517155, 
731,536541063,112.9267883,-59.70346832,98.00084686,9.239123344,4.237285614,-1.649667621,-42.22316742,-37.75320053,-10.64345074, 
732,536557730,113.1297379,-59.27708054,97.02646637,9.013493538,4.561344147,-1.648732662,-36.50514603,-38.54317856,-11.52491951, 
733,536574397,113.2636414,-58.8058548,96.07555389,8.77774334,4.652509212,-1.381059766,-39.2093277,-39.33516312,-14.01761341, 
734,536591064,113.2931519,-58.26913071,95.09578705,8.452137947,4.651396275,-1.092161655,-46.68626785,-42.13530731,-17.04674149, 
735,536607731,113.1362076,-57.6827774,94.11705017,8.019490242,4.667124748,-0.860141993,-57.51484299,-43.71349716,-19.64884186, 
736,536624398,112.8139648,-57.07417297,93.17074585,7.582885742,4.628704548,-1.069394231,-65.46555328,-43.6662674,-21.25822639, 
737,536641065,112.4817429,-56.49021149,92.27212524,7.304039001,4.516263008,-1.364896536,-63.34509277,-41.98694229,-20.54904938, 
738,536657732,112.1723175,-55.93969345,91.4161911,7.139603138,4.780762196,-0.882574022,-59.5528717,-40.20001602,-19.29008675, 
739,536674399,111.8670502,-55.42020416,90.49187469,7.131008625,4.724776268,-0.293244064,-62.41849899,-41.91374588,-16.75380325, 
740,536691066,111.4753876,-54.96239471,89.69690704,7.148127556,4.44199419,0.059098456,-60.9576416,-36.69429016,-15.05000305, 
741,536707733,111.1250534,-54.54676819,89.02961731,7.290960312,4.451860905,0.379495829,-52.00307846,-31.84111977,-14.4207592, 
742,536724400,110.9839401,-54.1914711,88.38143921,7.484315395,4.668773174,0.174906746,-38.35229111,-30.06863403,-11.33852863, 
743,536741067,111.0494843,-53.90762329,87.64990997,7.678244591,5.164839745,-0.067107439,-29.8674202,-31.44006157,-6.239596844, 
744,536757734,111.2420731,-53.68502426,86.82724762,8.161164284,5.759582043,-0.312419653,-26.53103828,-33.2960968,-1.525265098, 
745,536774401,111.2943497,-53.54383469,85.98574066,8.265890121,6.387947559,-0.460405409,-35.76059341,-32.28037643,3.385783195, 
746,536791068,111.025116,-53.47039795,85.11756897,8.592982292,6.60892725,-0.343464047,-56.27309036,-31.78700447,7.495347977, 
747,536807735,110.5461349,-53.46335602,84.30019379,8.608908653,5.727074623,-0.381179005,-66.37453461,-28.76072502,10.38821983, 
748,536824402,110.1213226,-53.4817009,83.56738281,8.719568253,5.074828148,-0.556897402,-59.04313278,-25.48143768,10.54743004, 
749,536841069,109.8001709,-53.48301315,82.9453125,8.494429588,5.21562624,-0.723153889,-47.4830513,-22.18006706,8.068655968, 
750,536857736,109.497551,-53.48302841,82.42008209,8.672898293,5.940264702,-1.180948496,-41.69818878,-18.99662781,6.714176178, 
751,536874403,108.9347916,-53.53068924,82.17115784,8.678115845,5.891829491,-1.130679607,-43.98254395,-8.786365509,6.029925823, 
752,536891070,108.1168823,-53.61223221,82.28476715,8.354773521,5.288461208,-0.875110507,-41.79395294,4.048803806,3.756830454, 
753,536907737,107.3822327,-53.71269608,82.59117126,8.077431679,5.493029594,-0.92185241,-27.4728508,10.86401844,2.822220802, 
754,536924404,106.7840347,-53.81152725,82.95663452,8.040270805,6.188685417,-1.02270174,-16.40342903,12.78048706,2.260759354, 
755,536941071,106.1904755,-53.93709564,83.34642029,7.717177868,5.950592518,-1.026061654,-14.91611004,14.00350952,3.715588808, 
756,536957738,105.6188126,-54.08400345,83.74690247,7.46411705,5.827352047,-1.093512774,-13.04411793,14.63803005,5.015671253, 
757,536974405,105.1488647,-54.26599503,84.10936737,7.53125906,5.635993958,-1.460147858,-8.749743462,13.81159306,7.565263748, 
758,536991072,104.7847443,-54.4790535,84.45496368,7.564741135,6.121317863,-1.519563675,-3.176752806,13.61151218,9.646495819, 
759,537007739,104.5251541,-54.72951889,84.7450943,7.721648693,6.185284615,-1.456003189,0.431138992,12.19958496,12.41172218, 
760,537024406,104.3332977,-55.00714493,84.93919373,7.932581902,6.460608006,-1.568172574,-0.173673511,9.28410244,14.89437866, 
761,537041073,104.094986,-55.28905487,85.1135788,7.956202507,6.402019978,-1.591529846,-3.898839712,8.592288017,15.36790562, 
762,537057740,103.8923645,-55.53793716,85.21315002,7.794231892,6.424838066,-1.495290995,-5.422745228,5.547741413,14.11547852, 
763,537074407,103.7637939,-55.74176788,85.19572449,7.68422699,6.444591999,-1.531212091,-6.761175156,0.996142626,12.4723053, 
764,537091074,103.7358398,-55.88859558,85.04792786,7.601000309,6.356192589,-1.601412296,-7.20008564,-4.098552704,10.2066927, 
765,537107741,103.8291321,-55.99134064,84.73137665,7.565188408,6.479037285,-1.539895296,-8.321901321,-10.21206856,8.995100021, 
766,537124408,104.0619736,-56.06129074,84.17402649,7.639887333,6.567236423,-1.481424451,-11.95106316,-18.4727726,9.062129974, 
767,537141075,104.4756775,-56.10655975,83.3030777,7.722390175,6.457379341,-1.394015312,-16.72989655,-28.93412018,10.31289387, 
768,537157742,105.1588974,-56.15945435,82.07489777,8.051891327,6.515809059,-1.110111833,-18.38306999,-40.23337936,14.07410622, 
769,537174409,106.1186295,-56.16602707,80.4151001,8.521130562,6.621967793,-1.438851595,-23.31991768,-54.63932419,15.8375988, 
770,537191076,106.8912048,-56.17173004,78.60333252,8.818182945,7.424410343,-2.562726259,-42.12981796,-59.27655411,18.03741646, 
771,537207743,107.5125351,-56.25715256,76.73635864,9.370454788,7.017425537,-3.208115578,-54.00698471,-59.33020782,23.84018135, 
772,537224410,107.400177,-56.39531708,75.26486206,8.908260345,8.505372047,-2.057789326,-78.40958405,-45.54581451,23.12272072, 
773,537241077,107.1127014,-56.60310745,73.96574402,8.367465973,5.642436981,-1.879001498,-80.43434143,-38.72116089,25.21159554, 
774,537257744,107.0264664,-56.76481628,73.02919006,7.601586342,5.110894203,-1.368026376,-50.32310104,-27.98932076,18.87881279, 
775,537274411,107.1339874,-56.79478836,72.36173248,7.090154171,5.092114449,-1.295870423,-25.24216652,-21.77626801,8.708673477, 
776,537291078,107.4593506,-56.65758133,71.85642242,6.837418556,5.518280029,-1.12544775,-4.018478394,-19.66193199,-2.364958525, 
777,537307745,107.9567108,-56.34260178,71.3789978,6.887647629,6.077422142,-1.319580555,7.768594265,-22.1427002,-12.63827801, 
778,537324412,108.304306,-55.89342117,70.87334442,7.159758568,6.802927494,-0.961748958,-2.516130447,-25.79376602,-19.78121567, 
779,537341079,108.2557907,-55.31101227,70.33152008,7.213392735,6.922725677,-0.776485324,-27.91262627,-29.73677635,-26.83815384, 
780,537357746,107.703064,-54.63858795,69.84164429,7.19918251,6.8105793,-0.480100155,-55.40260696,-29.84133339,-32.57323456, 
781,537374413,106.7716751,-53.85958862,69.43344116,7.160482883,5.924803257,-0.538257718,-73.91704559,-28.86496353,-39.79512787, 
782,537391080,105.4808197,-53.00040054,69.23696136,7.225431442,5.483730316,-0.867564082,-85.06760406,-22.42175102,-46.96590424, 
783,537407747,104.1220398,-52.12055206,69.14704895,7.171554565,5.044643402,-1.000543118,-83.95303345,-18.01377296,-49.59610367, 
784,537424414,102.8218613,-51.26161194,69.10806274,7.864814758,4.952199459,-0.957240522,-77.9848175,-14.7735815,-49.18167496, 
785,537441081,101.5611801,-50.4331398,69.13697052,8.179134369,4.99277401,-1.028806925,-72.436203,-10.78563309,-48.228405, 
786,537457748,100.428299,-49.68881226,69.16566467,8.543656349,5.489987373,-1.467965961,-64.78767395,-8.790546417,-43.473423, 
787,537474415,99.54723358,-49.05143356,69.19106293,8.677089691,5.334033966,-1.574947715,-49.84970474,-7.010996819,-37.26922989, 
788,537491082,98.81316376,-48.51064682,69.26981354,8.265619278,5.293555737,-1.437823057,-38.63760376,-3.454524279,-31.97422218, 
789,537507749,98.2611084,-48.04876328,69.43949127,7.904540062,5.045125961,-1.811610103,-23.67243767,1.238533616,-27.87092781, 
790,537524416,97.77774811,-47.67573166,69.75926208,7.474779129,5.003264427,-1.78546083,-12.93013382,8.282241821,-23.42933273, 
791,537541083,97.37132263,-47.40760422,70.22889709,7.15796566,4.795639992,-1.704408169,-1.759045124,15.40024757,-17.93554497, 
792,537557750,97.15179443,-47.24422073,70.88654327,6.737020493,3.981589079,-1.581331491,17.66885185,23.96363068,-12.59401608, 
793,537574417,97.34456635,-47.17027283,71.67002869,6.592398167,4.309097767,-1.563355088,47.88520813,29.79764366,-7.929776192, 
794,537591084,97.8506546,-47.15557861,72.46526337,6.626433849,5.193488121,-1.077692747,67.16884613,30.71979713,-4.672083378, 
795,537607751,98.47631073,-47.19121933,73.21663666,6.993194103,6.014933586,-0.656454206,72.41384125,29.31948853,-1.744998932, 
796,537624418,98.9292984,-47.22126389,73.98826599,7.147614956,6.177515984,-0.268346429,62.96643448,30.04287148,-2.486248255, 
797,537641085,99.31048584,-47.26241302,74.71828461,7.195783138,5.024782181,-0.323324382,56.84912109,28.4265995,-1.784884691, 
798,537657752,99.84700012,-47.35150146,75.51490021,7.03723526,4.768719196,-0.450822204,69.14214325,31.51839066,0.362427115, 
799,537674419,100.5522842,-47.44734573,76.32017517,6.493947029,6.076356411,-0.531930268,79.70207214,31.87245941,0.34752208, 
800,537691086,101.222084,-47.57463074,76.99076843,6.1159482,7.204317093,-0.794884861,71.68198395,26.79247284,2.851161957, 
801,537707753,101.5571136,-47.74654388,77.60289001,5.937923431,7.426034451,-1.484686017,49.07887268,24.94683647,5.722015858, 
802,537724420,101.5904541,-47.97414398,78.24499512,5.532329559,7.114710808,-2.002476692,32.39543533,26.72480774,8.703136444, 
803,537741087,101.3877792,-48.22380829,78.87212372,5.201710701,7.20972538,-1.918245077,17.67408371,26.27774239,10.19879723, 
804,537757754,100.9560776,-48.45394897,79.54969025,4.800235271,7.107048988,-1.694783092,6.294404507,27.86037636,8.852967262, 
805,537774421,100.434288,-48.6345253,80.24641418,4.706931591,7.682928562,-1.467699766,1.847020388,27.88292694,6.068517208, 
806,537791088,99.85301971,-48.75876236,80.90448761,4.815408707,8.313583374,-1.469176888,-3.390886307,25.64910126,3.329050779, 
807,537807755,99.1688385,-48.81391907,81.52294159,5.008479118,8.799043655,-1.463712215,-11.30956459,23.3468399,-0.170894757, 
808,537824422,98.30079651,-48.78740692,82.10749817,5.188083649,9.354759216,-1.187174559,-23.8670311,21.28284836,-4.447769642, 
809,537841089,97.21056366,-48.65913391,82.6667099,5.450415134,9.885638237,-0.804388404,-38.36678696,19.58852386,-9.953438759, 
810,537857756,95.88211823,-48.37752533,83.21606445,5.874210358,10.62660217,-0.383978844,-53.18321609,18.45709991,-18.58428574, 
811,537874423,94.30349731,-47.90716553,83.77645111,6.552464962,11.66014385,0.004318878,-67.83282471,18.53418732,-29.38185501, 
812,537891090,92.51316833,-47.18085861,84.3493042,7.400402069,12.96668148,0.728178144,-80.21057129,19.25704956,-44.12890244, 
813,537907757,90.45149231,-46.1571846,84.9307251,7.833469868,13.41380024,1.026633382,-96.4653244,21.01869583,-61.23173141, 
814,537924424,88.14309692,-44.78092194,85.60379028,8.207411766,13.10365009,1.396968722,-107.8390198,28.00026894,-81.40596771, 
815,537941091,85.60700989,-43.06086731,86.38603973,8.199542046,12.31163788,1.358081341,-117.7191315,38.03937149,-100.3650131, 
816,537957758,82.89640808,-41.08141708,87.35453796,7.951195717,11.28459644,1.059015274,-121.7982864,53.46313858,-112.9905853, 
817,537974425,80.20131683,-38.97463608,88.45936584,7.571356773,11.06851482,1.31093502,-117.171402,67.4308548,-116.7017365, 
818,537991092,77.70108032,-36.91180801,89.58818054,7.128628731,10.70984077,2.072855234,-106.4743347,74.78013611,-110.3594589, 
819,538007759,75.65898132,-34.96466827,90.68979645,6.725111008,10.13918877,2.781954527,-81.84695435,77.62355804,-100.4696884, 
820,538024426,74.14082336,-33.12549591,91.73513794,6.482573986,10.1114254,3.505129099,-54.10024261,77.54949188,-92.10969543, 
821,538041093,73.17305756,-31.35088539,92.72248077,6.258410454,9.807062149,3.627768278,-24.59179306,76.667099,-87.17941284, 
822,538057760,72.60714722,-29.53686714,93.68699646,5.973833561,9.995582581,3.699347734,-2.765116215,78.32678986,-88.44793701, 
823,538074427,72.09688568,-27.60386086,94.668396,5.551267147,9.868864059,3.490170002,-0.586294293,83.06749725,-93.94455719, 
824,538091094,71.53598785,-25.54018211,95.70645905,5.059740543,8.833195686,2.778879404,-3.928661346,90.19017792,-99.35005188, 
825,538107761,71.05476379,-23.3404007,96.81304169,4.594902515,7.759943485,2.169033527,0.456067204,98.21517944,-104.7295227, 
826,538124428,70.71567535,-21.04446793,97.9667511,4.257189274,7.259932995,2.310626507,7.647294044,104.3138199,-108.2744522, 
827,538141095,70.50117493,-18.73916054,99.08733368,4.128471375,7.23045063,2.823604345,11.84368801,104.2121735,-108.5901642, 
828,538157762,70.33666229,-16.53336716,100.1107788,4.299487114,7.121877193,3.230362415,10.5631485,98.14899445,-104.199913, 
829,538174429,70.14440918,-14.48214626,101.008049,4.589307785,7.180018902,3.334158182,4.686323166,89.09314728,-97.42140198, 
830,538191096,69.84980774,-12.62508774,101.7611694,4.883646011,7.24539423,3.369483948,-5.260064125,78.06480408,-88.82739258, 
831,538207763,67.15444183,-9.164996147,105.8255692,14.9941206,9.970659256,-3.926851749,-113.6889801,297.5706482,-104.4912872, 
832,538224430,63.0930748,-6.319862366,108.2042313,-6.152816296,5.952666759,4.39381218,-222.6183014,198.8467712,-94.64617157, 
833,538241097,63.13713455,-5.858406544,107.6244431,8.266254425,3.978434086,2.250690937,0.70955348,-19.65115356,-39.56602097, 
834,538257764,63.10004044,-4.957135201,106.7826309,4.163029671,5.590049267,5.490484715,-5.229618073,-21.69828224,-70.25557709, 
835,538274431,63.6172142,-4.232152939,105.6940613,4.614727497,7.190284252,6.950224876,27.57239342,-39.97598267,-67.38783264, 
836,538291098,63.65510941,-3.806050777,104.5392838,5.532068253,7.070483685,4.320986748,-0.783718944,-51.85245132,-52.94476318, 
837,538307765,63.34622192,-3.303652763,103.8109818,5.053014278,6.581384182,2.818856716,-19.43740654,-26.84709167,-45.82239914, 
838,538324432,62.88370895,-2.865680456,103.2923737,4.122624874,5.184725761,2.533218622,-27.62441063,-17.08185005,-36.90908051, 
839,538341099,62.45767593,-2.457256317,103.0555878,3.2145257,4.551749706,2.720980167,-24.42232895,-2.59764576,-27.73496437, 
840,538357766,62.26290512,-1.861863494,103.2460251,3.091056585,3.718321323,3.432611942,-9.45586586,25.45360756,-25.82220459, 
841,538374433,62.44760895,-1.267767906,103.7742386,1.518243194,5.044480801,3.670277357,13.75771809,43.37751389,-16.36878204, 
842,538391100,62.47056961,-0.895759463,104.381073,1.030227304,6.661006927,3.777424812,3.881167412,41.37694168,-2.460339069, 
843,538407767,62.2678566,-0.693086445,105.0479202,0.592933118,6.867263317,3.157233238,-9.789175987,39.86186218,8.272274017, 
844,538424434,62.18344879,-0.660963595,105.5935516,-0.055708103,7.010539532,3.480164766,-2.860917091,28.64077568,14.03889656, 
845,538441101,62.06745148,-0.72248584,106.0290833,-0.400996,7.714948177,4.040827274,-4.829125881,20.15214539,15.97195148, 
846,538457768,61.9900856,-0.701262832,106.5328522,0.61577481,7.728443146,4.085176468,-2.450675011,26.06771088,13.54668713, 
847,538474435,61.73943329,-0.711758256,106.8655167,-1.324383855,8.932377815,3.882521868,-12.97846603,16.08097076,10.4604702, 
848,538491102,61.34877396,-0.882529438,106.8049774,-0.816034973,8.983297348,4.050099373,-21.68162346,-9.301123619,7.781910419, 
849,538507769,60.98682785,-1.031236649,106.687706,-0.488453478,8.502251625,4.15822649,-20.02936935,-11.69396782,4.936357975, 
850,538524436,60.87915039,-1.079911709,106.6619949,-0.455417573,8.029272079,3.994087696,-4.690646648,-3.997169256,2.319658995, 
851,538541103,61.07429504,-1.165322542,106.6503143,-0.770363748,8.479514122,4.478007317,13.49074459,-4.329555035,4.662974834, 
852,538557770,61.33600616,-1.363820434,106.5525513,-0.772768736,8.664123535,4.66454792,17.36600685,-12.1116209,8.141216278, 
853,538574437,61.69830322,-1.598283768,106.4483337,-0.705037951,8.704808235,4.833539963,23.36972427,-13.44101429,9.919418335, 
854,538591104,62.07278824,-1.840572715,106.4101028,-0.474751681,8.907150269,4.905846119,24.19385147,-10.11354351,12.28519249, 
855,538607771,62.24632263,-2.131433725,106.4137115,-2.334633589,9.469988823,4.069555759,12.21387291,-9.201782227,16.08200073, 
856,538624438,60.81191254,-4.562996864,103.1309662,-0.479447752,10.02641392,5.991950512,-95.73853302,-243.6454163,35.03950119, 
857,538641105,61.21199799,-4.578328133,103.2420044,0.135998294,7.575334072,2.597658396,26.32649994,4.107710838,4.595953941, 
858,538657772,61.68110275,-4.970806122,103.0213318,-2.075142384,9.395270348,3.428466558,28.82578659,-24.09928894,14.95545769, 
859,538674439,62.27365112,-5.250130177,102.7889252,-0.986648798,9.52113533,3.773370028,36.08247757,-21.39367676,8.869862556, 
860,538691106,62.86222076,-5.619907856,102.456543,-1.21669054,10.02088356,3.730879545,35.18753815,-29.10458374,11.15989876, 
861,538707773,63.51898575,-6.041857243,102.0492401,-1.428665757,9.866877556,3.018383265,38.67657852,-34.38256836,12.26127243, 
862,538724440,64.45362854,-6.489893436,101.5617447,-1.248328447,9.201905251,1.793000937,54.6280632,-39.18616486,12.05848408, 
863,538741107,65.8884964,-7.064602852,100.9124908,-1.347391605,10.60514736,1.602266788,83.21916962,-50.85251617,15.72164059, 
864,538757774,67.60102844,-7.82587719,100.0773544,-1.075996518,11.2261343,1.343221784,97.96152496,-64.94878387,23.03725243, 
865,538774441,69.75955963,-8.723661423,99.00180817,0.565588534,9.482954979,0.740750134,121.9048386,-80.33280945,27.67468071, 
866,538791108,72.1293335,-9.869371414,97.68759918,2.146854162,10.54271126,1.364598751,131.1073608,-97.24781799,40.28772736, 
867,538807775,74.26928711,-11.25249672,96.23168945,3.322662592,10.6557312,1.539618015,114.0360947,-107.4339142,55.34069824, 
868,538824442,76.17700958,-12.90279961,94.60448456,3.837061167,10.9281044,0.581212878,95.67327118,-118.7946548,72.09877777, 
869,538841109,78.0378418,-14.69976807,92.8273468,3.648563147,10.30167961,-1.265221834,87.84003448,-126.2105331,82.68995667, 
870,538857776,80.17956543,-16.4600563,90.85480499,4.657999516,9.141842842,-1.442703485,98.31755829,-133.1076202,82.86121368, 
871,538874443,82.33396149,-18.06280136,88.72267151,5.978628635,9.996219635,-0.055809677,92.89129639,-136.5489044,77.15106201, 
872,538891110,84.12479401,-19.49463081,86.40263367,8.042211533,10.37453461,1.251893997,64.22187805,-142.1761475,70.42679596, 
873,538907777,85.47936249,-20.72577858,83.96311188,9.086679459,11.08588123,1.946569085,32.54031754,-144.7438202,61.73781967, 
874,538924444,86.3904953,-21.78198242,81.53189087,8.645682335,11.03854465,0.150593519,3.396121502,-141.2746582,54.16980743, 
875,538941111,86.91645813,-22.50777626,79.29201508,8.022514343,9.567798615,0.143493801,-17.4949379,-127.9830627,36.78015137, 
876,538957778,87.08532715,-22.93329239,77.3328476,7.001700401,9.324983597,0.529329538,-33.6641655,-110.7916565,20.37572098, 
877,538974445,87.08401489,-23.13686943,75.70023346,5.630869865,8.718922615,0.623437524,-36.80514908,-91.83092499,8.15140152, 
878,538991112,87.21338654,-23.19385338,74.28329468,4.925273895,8.64058876,1.401733398,-24.07733727,-79.41802979,0.055222325, 
879,539007779,87.43254089,-23.13012123,72.95031738,4.889334679,9.197058678,2.419421434,-16.69800186,-74.46038818,-6.729946613, 
880,539024446,87.58432007,-23.06918144,71.65916443,4.114659786,10.44769859,3.327074051,-19.66217422,-72.22564697,-6.230042458, 
881,539041113,87.47093201,-22.95561218,70.45031738,4.240157127,9.97290802,3.009044647,-33.5130043,-67.60441589,-9.16186142, 
882,539057780,87.27748871,-22.73852348,69.41418457,4.184382915,9.997030258,2.230992079,-34.08176804,-57.84480286,-15.10758495, 
883,539074447,87.04820251,-22.34588242,68.60598755,4.217432499,9.857476234,1.374757767,-30.67367935,-44.78203583,-25.21523857, 
884,539091114,86.88442993,-21.73424911,68.04424286,4.493899822,9.543270111,1.502545118,-20.79448128,-30.47447395,-37.76842499, 
885,539107781,86.54732513,-20.89157677,67.69926453,4.606158733,9.541630745,1.27281332,-26.06150436,-17.57818794,-51.0532608, 
886,539124448,86.13770294,-19.89655876,67.53804779,4.18558836,8.829556465,0.093203709,-26.25601006,-6.467841625,-59.63613129, 
887,539141115,85.95636749,-18.83797646,67.46160126,3.322974443,8.116013527,-1.152092695,-10.71313858,-1.166457415,-63.14507294, 
888,539157782,86.24538422,-17.77853775,67.42341614,2.827306747,8.09784317,-1.199603081,18.29573059,0.925855637,-63.05516815, 
889,539174449,86.57563019,-16.72090721,67.32609558,3.32649374,8.774121284,-0.414052874,19.7457943,-2.818170547,-63.17087555, 
890,539191116,86.77094269,-15.72615242,67.14430237,3.079699039,8.575496674,0.415167809,10.32757854,-8.215816498,-59.68515778, 
891,539207783,86.82460022,-14.84601784,66.89452362,2.729418039,8.244929314,0.369369298,0.924954712,-12.70988464,-53.02998734, 
892,539224450,86.83747864,-14.05803585,66.58899689,2.053393126,7.630490303,-0.404596388,-2.148021936,-16.33987617,-47.68729401, 
893,539241117,87.11899567,-13.3461237,66.26573181,1.723584533,6.798895836,-1.02674973,13.94460678,-17.79638481,-43.14868927, 
894,539257784,87.61441803,-12.74725628,65.9641037,1.421049237,7.897651196,-0.594128907,27.28044319,-17.18879509,-36.20443726, 
895,539274451,88.06389618,-12.26315784,65.67198944,2.074023485,8.529573441,-0.029261658,24.80630493,-17.23125458,-29.16765404, 
896,539291118,88.29124451,-11.82912922,65.39572906,2.129256487,7.996950626,0.784892559,11.81306267,-16.60182762,-26.04214287, 
897,539307785,88.43060303,-11.41838741,65.18263245,1.917488813,7.583432198,-0.038182132,7.420449734,-13.04443264,-24.49317741, 
898,539324452,88.6240387,-11.04526901,65.02133942,1.740517735,7.816110134,-0.274557292,11.35538769,-10.14465427,-22.12654877, 
899,539341119,88.99488831,-10.7208271,64.91478729,1.762330532,7.550662994,0.289487034,22.67347145,-7.105811596,-19.09606552, 
900,539357786,89.44834137,-10.4350071,64.87101746,1.671519876,7.824747562,0.55268389,28.35805321,-3.581776857,-16.68881798, 
901,539374453,89.88596344,-10.18702316,64.88549805,1.326651931,8.144106865,0.283523202,28.04888535,-0.296256721,-14.38035774, 
902,539391120,90.30563354,-9.978316307,64.95937347,0.906034827,8.252774239,-0.129315242,27.59556007,3.105683804,-12.03504753, 
903,539407787,90.71559906,-9.801972389,65.09100342,0.624893725,8.311976433,-0.02944481,27.59410286,6.44792223,-10.15110111, 
904,539424454,91.05704498,-9.643352509,65.23807526,0.550614834,8.959256172,0.061992958,23.61764908,7.313167095,-9.146073341, 
905,539441121,91.2533493,-9.509012222,65.38650513,1.162498713,9.431263924,0.040397137,14.9029007,7.381952286,-7.723582268, 
906,539457788,91.27706146,-9.423604012,65.54161835,2.154645205,9.411184311,0.207559854,4.599927425,7.831457615,-4.811379433, 
907,539474455,91.15129089,-9.421360016,65.73442078,3.507388115,9.379990578,0.562080622,-4.002606869,10.16889858,0.134364277, 
908,539491122,90.81033325,-9.549250603,65.98577881,4.668833733,9.747184753,1.031944752,-16.31568909,13.76271915,7.914446831, 
909,539507789,90.26016235,-9.830007553,66.27788544,4.77060461,9.399653435,0.565207958,-28.39422226,16.18379974,17.15714073, 
910,539524456,89.74123383,-10.19333935,66.62406921,4.156341076,8.82796669,-0.290346622,-25.85386658,19.19988823,22.25010872, 
911,539541123,89.46723175,-10.57515717,67.00465393,3.417576075,8.684887886,-0.558975399,-10.65724277,21.04219055,23.49601173, 
912,539557790,89.44577789,-10.91605186,67.41000366,2.776112318,8.932847977,-0.047631145,4.912628174,22.43774223,21.09766579, 
913,539574457,89.46114349,-11.20175171,67.80728912,2.084826231,9.322544098,-0.097968489,7.159558296,21.96558571,17.77592468, 
914,539591124,89.54430389,-11.42322254,68.19565582,1.689810038,9.151063919,-0.368896335,11.22494316,21.46679688,13.89599705, 
915,539607791,89.57057953,-11.55576992,68.52632141,2.135000706,9.34059906,-0.622558296,7.190615654,18.11604881,8.51417923, 
916,539624458,89.4641037,-11.63041782,68.77083588,2.768128395,9.212317467,-0.188535109,-1.77958405,13.07132626,5.008790016, 
917,539641125,89.21757507,-11.69047451,68.93095398,3.455360174,8.873487473,0.309451908,-11.19213104,8.101758003,4.115687847, 
918,539657792,88.78466797,-11.77368069,69.02204895,4.174138546,8.819455147,0.675888717,-23.20216751,3.996645451,5.476371288, 
919,539674459,88.11234283,-11.93122101,69.01781464,4.645195007,8.662086487,1.191702247,-38.72597885,-1.774918556,9.818266869, 
920,539691126,87.26272583,-12.24229527,68.95881653,4.390377522,8.343615532,0.524764776,-50.0460968,-5.487000942,18.86585999, 
921,539707793,86.48173523,-12.73035622,68.89775848,3.822059155,8.207728386,0.094284251,-45.97999191,-6.446938992,29.38344002, 
922,539724460,85.90111542,-13.3540163,68.86334229,3.029170513,7.785118103,-0.333444595,-33.63458252,-5.771029472,37.52621841, 
923,539741127,85.76383972,-14.08311272,68.84842682,2.576522827,8.040483475,-1.347611666,-6.786478043,-5.321805477,43.88261795, 
924,539757794,85.93106079,-14.83630466,68.8254776,2.819626093,8.191365242,-2.689313889,11.33727455,-5.875061512,45.28820038, 
925,539774461,86.66976929,-15.60487747,68.76294708,3.066612005,9.286198616,-3.333454609,44.95954895,-7.857336998,46.09227371, 
926,539791128,87.29173279,-16.36849022,68.56562805,2.917193413,11.09811687,-2.834950924,35.65398407,-15.04137421,45.45811462, 
927,539807795,87.60594177,-16.97004318,68.2172699,2.653588057,10.94721889,-1.01431787,14.43126392,-22.86242867,35.47299957, 
928,539824462,87.52880096,-17.40931892,67.67706299,3.346407413,9.972415924,0.044932932,-12.64333153,-33.30538559,25.33245277, 
929,539841129,87.37834167,-17.73831558,66.94271088,3.289500237,9.83427906,1.45226562,-20.77074051,-44.08536148,18.16890717, 
930,539857796,86.83136749,-18.01104164,66.08924866,3.994881868,9.592478752,1.598873496,-46.96974564,-50.7457695,14.1993475, 
931,539874463,86.12874603,-18.34664345,65.21394348,4.016553402,8.815122604,0.78301388,-56.97021484,-52.2860527,17.350214, 
932,539891130,85.36854553,-18.70098686,64.44733429,3.722417593,8.509466171,-0.051467352,-58.65388107,-46.31328964,18.28116035, 
933,539907797,84.70516205,-19.11268234,63.81827545,3.57532239,9.089244843,0.344512194,-50.46949387,-38.95077896,21.82853508, 
934,539924464,84.07995605,-19.51919174,63.25934219,3.646732569,9.034593582,1.190853715,-47.04568481,-35.11503601,21.48961639, 
935,539941131,83.67784119,-19.86663055,62.69585037,3.681313038,8.726288795,1.67032516,-33.96176147,-35.10816574,17.64126015, 
936,539957798,83.55744171,-20.15305138,62.10709381,3.340506315,8.851187706,1.359494686,-17.74777412,-36.13062286,13.69699097, 
937,539974465,83.56650543,-20.39111328,61.513134,3.521163464,9.565526009,1.410624623,-10.24077511,-36.05479813,10.75552082, 
938,539991132,83.57887268,-20.64884377,60.90534973,3.677040339,9.966153145,1.27410984,-10.47537708,-36.90292358,11.85768318, 
939,540007799,83.58599854,-20.90478516,60.31666183,3.729925156,9.611858368,1.555929422,-10.53690243,-35.76722336,11.88737202, 
940,540024466,83.69857788,-21.09902191,59.7461586,3.941418648,8.728030205,2.028736353,-3.945986986,-34.2841568,8.36438179, 
941,540041133,84.02377319,-21.23585892,59.21376038,3.959760904,8.288764,2.17700839,9.550437927,-31.73266029,5.297303677, 
942,540057800,84.4283905,-21.31404305,58.69152069,4.353909016,8.640322685,2.500757217,14.48765945,-30.76624298,2.047749996, 
943,540074467,84.78618622,-21.36966705,58.20299149,4.284762383,8.248253822,1.734195352,12.38857746,-28.74445915,1.071145773, 
944,540091134,85.33747101,-21.47935295,57.82826996,3.647791386,7.554619789,2.041038275,26.45808983,-22.67485619,5.065387726, 
945,540107801,86.11869049,-21.68685913,57.56693268,3.780105829,7.976264477,2.368276834,42.70859909,-16.73057747,11.63767719, 
946,540124468,86.95211792,-21.97395134,57.3134079,3.982104063,8.841666222,3.454916954,45.96411896,-16.40498543,16.64820099, 
947,540141135,87.63452148,-22.31645012,57.06165314,3.601409912,9.534384727,2.525143147,36.88243103,-16.22829819,20.17454529, 
948,540157802,88.10422516,-22.6885891,56.90294647,3.835226059,9.089660645,1.212014794,26.18361855,-10.91005039,22.29891396, 
949,540174469,88.42205811,-23.05528831,56.81420898,4.167896748,9.076827049,0.607698798,18.65452385,-6.860550404,22.15775108, 
950,540191136,88.73922729,-23.39115334,56.82450485,4.237857342,9.412143707,1.247736096,20.92853928,-1.224546909,20.47430992, 
951,540207803,89.05865479,-23.68098068,56.88920593,3.906229496,9.007253647,0.806031346,22.37609673,1.926765919,17.77062225, 
952,540224470,89.60986328,-23.83937263,56.98045731,3.318296432,8.470198631,0.078028604,36.94615173,3.600542784,9.879361153, 
953,540241137,90.33101654,-23.88607979,57.15487289,3.254434586,8.699453354,0.638959765,49.16872406,8.265310287,3.129751921, 
