PacketCounter,SampleTimeFine,Euler_X,Euler_Y,Euler_Z,Acc_X,Acc_Y,Acc_Z,Gyr_X,Gyr_Y,Gyr_Z,
0,529721867,-125.340065,-56.40651703,-170.4114227,0,0,0,0,0,0, 
1,529738534,-125.3369217,-56.40852737,-170.3837128,8.359750748,-4.53895998,-3.212298155,1.526868939,0.788275599,1.973695278, 
2,529755201,-125.2821884,-56.3909111,-170.4253082,8.320371628,-4.530376911,-3.192883968,1.568643332,0.769360602,1.960620165, 
3,529771868,-125.2080002,-56.36621857,-170.4703064,8.282736778,-4.547646999,-3.209031582,1.412969351,0.789236128,1.931011677, 
4,529788535,-125.1386032,-56.32588577,-170.5439453,8.271990776,-4.539384365,-3.225839138,1.243310928,0.78625232,1.916118264, 
5,529805202,-125.0828094,-56.27825928,-170.5798187,8.308642387,-4.528842449,-3.228957415,1.210155368,0.678409994,2.096572399, 
6,529821869,-125.0366974,-56.23852158,-170.5776825,8.346662521,-4.528657436,-3.245433569,1.274904132,0.672493458,2.081076384, 
7,529838536,-124.9997711,-56.20763016,-170.5617218,8.365598679,-4.539496422,-3.226452351,1.526388764,0.556794465,1.929942369, 
8,529855203,-124.9593353,-56.18332672,-170.5706787,8.358148575,-4.541777134,-3.217617512,1.632150054,0.574499249,1.932484388, 
9,529871870,-124.9174423,-56.16501617,-170.5875702,8.341844559,-4.525350571,-3.207065105,1.484300852,0.692817211,1.850895524, 
10,529888537,-124.8724594,-56.15002441,-170.6091003,8.312638283,-4.532906532,-3.216262341,1.365841985,0.822058856,1.907755494, 
11,529905204,-124.8289185,-56.13389587,-170.6318359,8.310900688,-4.530677319,-3.219916105,1.279501677,0.764302194,1.949619651, 
12,529921871,-124.7818604,-56.11781311,-170.6433716,8.319169998,-4.520770073,-3.226114511,1.378878832,0.831240892,1.992200613, 
13,529938538,-124.7346268,-56.09998322,-170.6521759,8.34215641,-4.518897057,-3.242610216,1.540495038,0.70618701,2.069896698, 
14,529955205,-124.6918411,-56.08268738,-170.6618958,8.347382545,-4.519974709,-3.228830338,1.534450293,0.617515743,2.015277386, 
15,529971872,-124.6497955,-56.06487274,-170.6727753,8.340648651,-4.527095795,-3.215368271,1.53077507,0.561206281,2.073661804, 
16,529988539,-124.604538,-56.04994965,-170.6914215,8.347557068,-4.538928509,-3.189720631,1.503945708,0.73817724,2.021309376, 
17,530005206,-124.5605087,-56.0359993,-170.7092896,8.325788498,-4.538366795,-3.220297098,1.371950507,0.71416533,1.976884246, 
18,530021873,-124.5175476,-56.02249908,-170.7251587,8.324838638,-4.540004253,-3.224976063,1.348258972,0.705853999,1.918692112, 
19,530038540,-124.473587,-56.00883865,-170.7308197,8.328631401,-4.535009384,-3.225200653,1.30021596,0.764487863,1.949472189, 
20,530055207,-124.4275284,-55.99516296,-170.7446289,8.318668365,-4.518525124,-3.21964097,1.353720903,0.810974896,1.973163724, 
21,530071874,-124.380722,-55.98115158,-170.7553864,8.322511673,-4.520237923,-3.237929344,1.365995646,0.820073724,2.009207249, 
22,530088541,-124.333992,-55.96702194,-170.7737427,8.329721451,-4.520676613,-3.203032017,1.428183317,0.800736129,1.998001695, 
23,530105208,-124.2852554,-55.95301819,-170.7931824,8.343484879,-4.537466526,-3.235652685,1.450504661,0.840090096,2.032310009, 
24,530121875,-124.2353897,-55.93951797,-170.8122864,8.338129997,-4.526984215,-3.215385437,1.507365108,0.869045377,2.010168076, 
25,530138542,-124.1867218,-55.92683792,-170.8287201,8.336538315,-4.520598412,-3.218698978,1.482072473,0.864037991,1.955215693, 
26,530155209,-124.1382217,-55.91399765,-170.8444366,8.348489761,-4.532625198,-3.228239298,1.431314468,0.879386365,1.984497666, 
27,530171876,-124.0862045,-55.90052414,-170.871109,8.332337379,-4.509516716,-3.185373545,1.479978681,0.950858593,2.080122709, 
28,530188543,-124.0373459,-55.88623428,-170.897049,8.325574875,-4.545832157,-3.22388339,1.412565947,0.834231138,2.078995466, 
29,530205210,-123.9893417,-55.87066269,-170.9191742,8.32030201,-4.5339818,-3.230415583,1.418373585,0.763892293,2.108161926, 
30,530221877,-123.9451523,-55.85360718,-170.9375305,8.330799103,-4.532962799,-3.18928957,1.347477794,0.635918498,2.117792606, 
31,530238544,-123.9008789,-55.83752441,-170.9379578,8.351782799,-4.527994156,-3.192302704,1.419718146,0.615005732,2.038700104, 
32,530255211,-123.8561249,-55.82092285,-170.957901,8.338522911,-4.542308331,-3.191708088,1.384315133,0.619865656,2.093466759, 
33,530271878,-123.8121109,-55.80384445,-170.9720154,8.325889587,-4.525806904,-3.202566385,1.300561786,0.616049469,2.12596941, 
34,530288545,-123.769516,-55.78638077,-170.9905396,8.312023163,-4.523985386,-3.216097593,1.237925649,0.588938415,2.138212204, 
35,530305212,-123.7285767,-55.7690773,-171.0067291,8.298975945,-4.540835381,-3.240764856,1.311114192,0.507233918,2.063743353, 
36,530321879,-123.6865005,-55.75232697,-171.0187531,8.327020645,-4.541116714,-3.226600647,1.335606217,0.565854967,2.047818661, 
37,530338546,-123.6459045,-55.7354126,-171.0297089,8.353572845,-4.526747704,-3.209855795,1.38082552,0.488747954,2.003572702, 
38,530355213,-123.6048965,-55.72059631,-171.0429688,8.3367939,-4.539334774,-3.225919247,1.272048473,0.632281482,1.957661986, 
39,530371880,-123.563385,-55.7048645,-171.0592041,8.322888374,-4.538180828,-3.202857971,1.341048956,0.586626887,1.988678932, 
40,530388547,-123.5178909,-55.68984985,-171.0761719,8.302252769,-4.519913197,-3.218134165,1.399804235,0.709145188,2.020681858, 
41,530405214,-123.4734573,-55.67322922,-171.0955658,8.311332703,-4.519969463,-3.213817596,1.392018318,0.631910145,2.081998825, 
42,530421881,-123.4309998,-55.65657806,-171.1135101,8.311388969,-4.520564556,-3.238934278,1.313937664,0.612354815,2.071177244, 
43,530438548,-123.3909607,-55.6391449,-171.1243591,8.33936882,-4.531285763,-3.222048044,1.364042759,0.486000985,2.042279959, 
44,530455215,-123.3520813,-55.62204361,-171.1322784,8.366223335,-4.539918423,-3.205009699,1.36551559,0.459415019,2.004834175, 
45,530471882,-123.3100662,-55.60594177,-171.1460266,8.359973907,-4.526507854,-3.195081234,1.334697008,0.615121007,2.042542458, 
46,530488549,-123.2693176,-55.58892441,-171.1638947,8.315858841,-4.531861782,-3.207897186,1.223473907,0.596859157,2.109378815, 
47,530505216,-123.2273941,-55.57304764,-171.1803894,8.306095123,-4.522675514,-3.224367142,1.278592348,0.648020506,2.058332682, 
48,530521883,-123.185936,-55.55647278,-171.1906586,8.304674149,-4.531562328,-3.229008198,1.27962327,0.616343915,2.0865767, 
49,530538550,-123.1429138,-55.53899002,-171.2046204,8.323468208,-4.535188675,-3.206510544,1.343174815,0.611919403,2.147631168, 
50,530555217,-123.1020737,-55.52096176,-171.2171478,8.321831703,-4.522697449,-3.212887764,1.336169839,0.524119079,2.130483627, 
51,530571884,-123.057663,-55.50322723,-171.2363892,8.337182999,-4.532814503,-3.235169649,1.300548792,0.684653044,2.216305017, 
52,530588551,-123.0168991,-55.48420715,-171.2544098,8.355404854,-4.529445171,-3.243850708,1.328940392,0.504442096,2.19549489, 
53,530605218,-122.9749222,-55.46761703,-171.2726288,8.348993301,-4.538936615,-3.213163614,1.397480011,0.596378863,2.084207773, 
54,530621885,-122.9341202,-55.45208359,-171.2867584,8.343196869,-4.5424366,-3.207159996,1.410817981,0.582951427,2.005724192, 
55,530638552,-122.8939972,-55.43473816,-171.2953491,8.337645531,-4.542176723,-3.208812714,1.399240971,0.508738637,2.092615128, 
56,530655219,-122.8561478,-55.41731262,-171.3041077,8.332878113,-4.516530037,-3.198621988,1.355833888,0.454266876,2.065984488, 
57,530671886,-122.820282,-55.39966583,-171.3153381,8.326458931,-4.538577557,-3.207342625,1.257097006,0.437311232,2.080365658, 
58,530688553,-122.7871704,-55.38175964,-171.325058,8.331676483,-4.539897442,-3.214795351,1.230370164,0.35212338,2.04600668, 
59,530705220,-122.7525406,-55.36522675,-171.3314514,8.324956894,-4.540173531,-3.20782876,1.373865247,0.370654166,1.963853598, 
60,530721887,-122.7185135,-55.34922409,-171.3397522,8.337844849,-4.528179169,-3.191608667,1.251302004,0.441121161,1.976986766, 
61,530738554,-122.687355,-55.33418655,-171.3442688,8.329223633,-4.527192593,-3.244053841,1.17914474,0.414439112,1.899028063, 
62,530755221,-122.6542587,-55.32003021,-171.3493347,8.352550507,-4.536203861,-3.228192806,1.252640367,0.478381217,1.879818559, 
63,530771888,-122.6213608,-55.30553436,-171.3537903,8.353957176,-4.520721436,-3.215872526,1.29775703,0.43907854,1.886375308, 
64,530788555,-122.5851059,-55.29175949,-171.3625488,8.336800575,-4.546472073,-3.232811451,1.36447823,0.547125697,1.910797119, 
65,530805222,-122.5469513,-55.27927017,-171.3755188,8.312390327,-4.540356636,-3.226508856,1.351390123,0.668632388,1.901704669, 
66,530821889,-122.5075607,-55.26683044,-171.3874512,8.319852829,-4.521981716,-3.230068684,1.38147223,0.702748477,1.922783613, 
67,530838556,-122.4670181,-55.25482941,-171.4017181,8.319103241,-4.522300243,-3.222078562,1.36885798,0.773772478,1.941417098, 
68,530855223,-122.4278488,-55.2420578,-171.4145966,8.328170776,-4.528688908,-3.215573072,1.370638132,0.705937326,1.958795428, 
69,530871890,-122.3873444,-55.22768402,-171.4268188,8.344659805,-4.517823696,-3.181839943,1.40072,0.690479875,2.069083214, 
70,530888557,-122.3463287,-55.21281052,-171.4412079,8.353885651,-4.507257938,-3.213525772,1.41592133,0.685856879,2.11193347, 
71,530905224,-122.3068314,-55.19734955,-171.4553223,8.345079422,-4.534048557,-3.193066597,1.405522466,0.624808967,2.125879526, 
72,530921891,-122.2650986,-55.18214035,-171.4699402,8.35308075,-4.516964912,-3.187495708,1.422606111,0.707064152,2.168268442, 
73,530938558,-122.2290497,-55.16547012,-171.47966,8.330570221,-4.526825905,-3.194325447,1.248772621,0.566181421,2.192933321, 
74,530955225,-122.1923981,-55.14979172,-171.4899597,8.317317963,-4.524825573,-3.231034756,1.312676311,0.584507346,2.144768953, 
75,530971892,-122.1569519,-55.13357925,-171.4991608,8.330962181,-4.52077055,-3.22073102,1.311543226,0.537988365,2.157799482, 
76,530988559,-122.121254,-55.11827087,-171.5090179,8.324005127,-4.52987051,-3.221278191,1.323343992,0.576593041,2.125328779, 
77,531005226,-122.0876236,-55.10416412,-171.5189667,8.328415871,-4.519879341,-3.231638193,1.278035402,0.577271879,2.048747063, 
78,531021893,-122.0521088,-55.09011841,-171.526886,8.334914207,-4.533462048,-3.227851868,1.378437042,0.596455693,2.063986778, 
79,531038560,-122.0173798,-55.07717514,-171.5337219,8.344659805,-4.525986671,-3.226968288,1.372776628,0.614525497,2.006268501, 
80,531055227,-121.9824295,-55.06446457,-171.5434875,8.318265915,-4.535796165,-3.203731775,1.275281906,0.699623644,2.050065994, 
81,531071894,-121.9460373,-55.0525589,-171.5524445,8.326637268,-4.521872044,-3.224281549,1.377770901,0.721138299,2.016077757, 
82,531088561,-121.9120789,-55.03842926,-171.5596161,8.319308281,-4.53753376,-3.209704876,1.385762334,0.569626451,2.086781979, 
83,531105228,-121.8789902,-55.02562714,-171.5661926,8.345103264,-4.53724432,-3.204708576,1.39657104,0.582778573,2.008765459, 
84,531121895,-121.842392,-55.01267242,-171.5756683,8.348329544,-4.527853489,-3.205226898,1.432210803,0.689160883,2.095797539, 
85,531138562,-121.8083267,-55.00016403,-171.5852509,8.339326859,-4.529993057,-3.21747613,1.347548127,0.670297086,2.063487053, 
86,531155229,-121.7766495,-54.98717117,-171.5909576,8.328627586,-4.545427322,-3.22495389,1.354233027,0.575581372,2.049655914, 
87,531171896,-121.7459106,-54.97399902,-171.5968323,8.32763195,-4.531650543,-3.218239784,1.274142265,0.595469654,2.080621958, 
88,531188563,-121.7152405,-54.96296692,-171.6020966,8.348944664,-4.52511692,-3.206815958,1.322255611,0.64054805,1.967900515, 
89,531205230,-121.6826477,-54.95143127,-171.6085968,8.320254326,-4.516889095,-3.214250088,1.362839103,0.677660882,2.038950205, 
90,531221897,-121.6526947,-54.93657303,-171.6149292,8.316830635,-4.514057636,-3.216064453,1.261118054,0.548969805,2.204472065, 
91,531238564,-121.6207123,-54.92276382,-171.6207581,8.320734024,-4.515222549,-3.235076904,1.347599387,0.613436878,2.18192029, 
92,531255231,-121.5866547,-54.90882111,-171.6278076,8.332463264,-4.513712406,-3.219065428,1.399477959,0.665430725,2.232274771, 
93,531271898,-121.5539551,-54.89565277,-171.6356964,8.344171524,-4.532342911,-3.216703415,1.353477597,0.680862427,2.198799133, 
94,531288565,-121.521759,-54.88320923,-171.6434326,8.351221085,-4.541969299,-3.181794643,1.395405412,0.668952465,2.152696133, 
95,531305232,-121.4898453,-54.87047958,-171.648468,8.342039108,-4.530202389,-3.191117525,1.406175733,0.650191247,2.173686028, 
96,531321899,-121.4609299,-54.85751343,-171.6532898,8.334403992,-4.540117264,-3.207848787,1.254663587,0.635335743,2.193919659, 
97,531338566,-121.4369431,-54.84532928,-171.6521759,8.312017441,-4.533168793,-3.210448742,1.282415152,0.474244803,2.052217722, 
98,531355233,-121.4135818,-54.83449936,-171.6483612,8.307243347,-4.526153088,-3.22551918,1.313060641,0.486564487,1.974380612, 
99,531371900,-121.391861,-54.82332993,-171.6453552,8.32550621,-4.528988361,-3.226089478,1.261207938,0.459005207,1.994140744, 
100,531388567,-121.3706589,-54.81089401,-171.643158,8.335577011,-4.537721634,-3.204758167,1.22926867,0.432150275,2.077241421, 
101,531405234,-121.3513718,-54.7997818,-171.6394348,8.341431618,-4.523550034,-3.228377104,1.1802845,0.442818016,2.003592014, 
102,531421901,-121.3301468,-54.7894249,-171.6358643,8.351177216,-4.52289629,-3.204659462,1.233417988,0.517568648,2.00914979, 
103,531438568,-121.3078079,-54.77956772,-171.6342621,8.341150284,-4.529100895,-3.21928525,1.230408549,0.583687782,2.029101849, 
104,531455235,-121.2859268,-54.76861191,-171.6318207,8.326113701,-4.526732445,-3.232519865,1.217243552,0.551966488,2.099383593, 
105,531471902,-121.262207,-54.75747681,-171.6319733,8.316542625,-4.538779259,-3.211739302,1.23180449,0.616856217,2.163799286, 
106,531488569,-121.2409134,-54.74775314,-171.6328735,8.319915771,-4.522678852,-3.225305557,1.07838428,0.676533818,2.114251614, 
107,531505236,-121.2182236,-54.73733521,-171.6335754,8.312297821,-4.503183365,-3.239715815,1.202362657,0.641367614,2.154027939, 
108,531521903,-121.2009964,-54.7274437,-171.6285248,8.314172745,-4.520630836,-3.201523304,1.131300092,0.519348741,2.055099249, 
109,531538570,-121.1826935,-54.71606064,-171.622406,8.320392609,-4.53498745,-3.19011426,1.224594474,0.463986814,2.140146017, 
110,531555237,-121.1656036,-54.7032547,-171.6165314,8.319652557,-4.542442322,-3.194476843,1.146360397,0.434250534,2.235182047, 
111,531571904,-121.1532822,-54.69102097,-171.6097412,8.331659317,-4.51906395,-3.213448524,0.970772445,0.39229691,2.184276819, 
112,531588571,-121.1413727,-54.67879486,-171.6024323,8.328602791,-4.532405376,-3.208163977,0.868872404,0.450181603,2.232799768, 
113,531605238,-121.1284103,-54.66518402,-171.5953979,8.32379055,-4.53968811,-3.23969388,1.001110911,0.379042327,2.298983335, 
114,531621905,-121.1141891,-54.65087128,-171.5903168,8.340755463,-4.528152943,-3.237021208,1.007052898,0.409457445,2.382070541, 
115,531638572,-121.1011505,-54.63657379,-171.5804291,8.355031013,-4.523683071,-3.223914385,1.119864106,0.312538952,2.334648848, 
116,531655239,-121.0900345,-54.62613297,-171.5679016,8.356207848,-4.534486771,-3.236078978,1.119428754,0.373189867,2.116710424, 
117,531671906,-121.0777512,-54.61780167,-171.5570831,8.335132599,-4.521186352,-3.238483429,1.132299066,0.483619034,2.051141977, 
118,531688573,-121.0653229,-54.60859299,-171.5479431,8.325001717,-4.533808708,-3.232988119,1.146565318,0.465779752,2.116569519, 
119,531705240,-121.052536,-54.60260391,-171.536972,8.34352684,-4.529301643,-3.222869396,1.235594988,0.538968027,1.946847081, 
120,531721907,-121.0365295,-54.59701538,-171.5284271,8.333475113,-4.547662258,-3.227706671,1.342220783,0.614602387,1.979900002, 
121,531738574,-121.0196304,-54.59272385,-171.5198364,8.337388039,-4.535732746,-3.224190474,1.379397631,0.675458193,1.939496279, 
122,531755241,-120.9997101,-54.59019852,-171.5147247,8.363088608,-4.53105402,-3.230242252,1.378616333,0.85181427,1.936115146, 
123,531771908,-120.9766235,-54.58835983,-171.5105133,8.371068954,-4.507371426,-3.267036915,1.558238149,0.890835404,1.927368641, 
124,531788575,-120.9510956,-54.59034729,-171.5048981,8.393854141,-4.508868694,-3.265098095,1.801353931,0.964394987,1.719994903, 
125,531805242,-120.9223099,-54.59575272,-171.4988861,8.404348373,-4.509488583,-3.233709812,2.024543285,1.065974951,1.558455825, 
126,531821909,-120.8899078,-54.60189056,-171.4945984,8.370675087,-4.526630402,-3.242814064,2.094504118,1.190708756,1.599692345, 
127,531838576,-120.8542938,-54.6067276,-171.4953613,8.342932701,-4.532001495,-3.196622372,2.069441795,1.294401765,1.767494082, 
128,531855243,-120.8225784,-54.61206055,-171.4934845,8.304660797,-4.53067112,-3.223993778,2.01386261,1.213516712,1.696713209, 
129,531871910,-120.7928696,-54.61472321,-171.4882813,8.290236473,-4.524894714,-3.24063158,2.030344248,1.0589571,1.804376364, 
130,531888577,-120.7666016,-54.61581039,-171.4806824,8.268979073,-4.517460346,-3.211950779,2.002195835,0.917446792,1.841412187, 
131,531905244,-120.73806,-54.61580658,-171.4758453,8.277562141,-4.523561001,-3.241816282,1.974137068,0.996807873,1.976058006, 
132,531921911,-120.712532,-54.61306763,-171.4721375,8.300642014,-4.507899761,-3.209178925,1.762396932,0.946632445,2.147086859, 
133,531938578,-120.6860809,-54.60974121,-171.4728394,8.33327961,-4.496411324,-3.205720425,1.615392923,1.065078497,2.272512197, 
134,531955245,-120.6561508,-54.60409164,-171.4783173,8.37112999,-4.503252506,-3.215541601,1.617749095,1.131658673,2.489912748, 
135,531971912,-120.6240005,-54.59644318,-171.4872894,8.402400017,-4.513638973,-3.204069614,1.64425838,1.149036884,2.653155327, 
136,531988579,-120.5896683,-54.58896255,-171.4955902,8.407428741,-4.515833378,-3.184593678,1.795270801,1.151316404,2.663387775, 
137,532005246,-120.5542984,-54.58102417,-171.504364,8.374689102,-4.51739502,-3.164730072,1.836020827,1.160998225,2.717085123, 
138,532021913,-120.5207901,-54.5754509,-171.5128632,8.312428474,-4.539699554,-3.163031816,1.700977683,1.256033778,2.625621557, 
139,532038580,-120.4935379,-54.56908417,-171.5166473,8.274895668,-4.559465885,-3.182172298,1.513364792,1.125076294,2.617797375, 
140,532055247,-120.4737625,-54.56358337,-171.5144806,8.264433861,-4.558764458,-3.192173004,1.400835395,0.95733875,2.467617273, 
141,532071914,-120.4589539,-54.55994797,-171.5023041,8.293906212,-4.562298298,-3.199229479,1.486228108,0.790612817,2.249627352, 
142,532088581,-120.450058,-54.55829239,-171.488678,8.328667641,-4.55522871,-3.191747665,1.391435504,0.703350306,2.071094036, 
143,532105248,-120.4443054,-54.56068802,-171.468399,8.356564522,-4.550407887,-3.198261023,1.46824801,0.675137997,1.783309937, 
144,532121915,-120.4413986,-54.56482697,-171.4456787,8.336382866,-4.555274963,-3.190486431,1.374300718,0.690377533,1.686327457, 
145,532138582,-120.4394608,-54.5709877,-171.4221954,8.352675438,-4.546639919,-3.184933186,1.390231848,0.715887725,1.574195027, 
146,532155249,-120.4389648,-54.57979202,-171.3963318,8.341493607,-4.536424637,-3.233819246,1.52101028,0.674625754,1.377092361, 
147,532171916,-120.4387207,-54.59037781,-171.3678131,8.349031448,-4.521804333,-3.21731019,1.607453108,0.680644751,1.269032478, 
148,532188583,-120.4381714,-54.60413361,-171.3404083,8.332663536,-4.523890972,-3.212096214,1.626739383,0.787872255,1.124884248, 
149,532205250,-120.4293747,-54.61779404,-171.3183441,8.351564407,-4.525829792,-3.210931063,1.817477345,0.984488189,1.25804472, 
150,532221917,-120.4183121,-54.63169098,-171.3009491,8.343528748,-4.498189449,-3.2304039,1.753701687,1.125332236,1.3381356, 
151,532238584,-120.4039688,-54.6429863,-171.2852936,8.352840424,-4.498232365,-3.212281227,1.773538709,1.165762067,1.558058858, 
152,532255251,-120.3871002,-54.65281677,-171.2744751,8.357136726,-4.506054401,-3.179451466,1.800636768,1.212441087,1.697456121, 
153,532271918,-120.3679581,-54.66176987,-171.2658081,8.378373146,-4.524645805,-3.190698624,1.855601668,1.243330121,1.792620063, 
154,532288585,-120.350174,-54.67170334,-171.2544098,8.384932518,-4.525827885,-3.183434248,1.890690923,1.212274551,1.71867609, 
155,532305252,-120.332428,-54.68150711,-171.2438965,8.36223793,-4.529583454,-3.161354303,1.915420294,1.200953841,1.733467698, 
156,532321919,-120.3200912,-54.6935463,-171.2289429,8.336598396,-4.529443264,-3.174690723,1.78713882,1.155529737,1.566242099, 
157,532338586,-120.3129501,-54.70463562,-171.2111816,8.326818466,-4.528934002,-3.166964293,1.576833129,1.075246811,1.595850587, 
158,532355253,-120.3077011,-54.71630478,-171.1901398,8.322091103,-4.548666,-3.176071167,1.582147717,1.028017044,1.540053368, 
159,532371920,-120.3069,-54.72682571,-171.1636963,8.330369949,-4.533007145,-3.175491571,1.672701478,0.787052691,1.483897448, 
160,532388587,-120.308197,-54.73894882,-171.1338654,8.360936165,-4.551891804,-3.194217682,1.77954483,0.701467812,1.335062027, 
161,532405254,-120.3120499,-54.75685501,-171.1009369,8.37948513,-4.542589664,-3.181530952,1.792722583,0.786156297,0.991698146, 
162,532421921,-120.3175812,-54.77787018,-171.068634,8.406514168,-4.547596931,-3.152282476,1.780889511,0.835729659,0.814125359, 
163,532438588,-120.3274307,-54.80408478,-171.0289154,8.404900551,-4.536547184,-3.167921066,1.717254639,0.881947637,0.491225928, 
164,532455255,-120.3427429,-54.83525467,-170.9893341,8.414902687,-4.571746349,-3.161224365,1.402756453,1.033216357,0.247380272, 
165,532471922,-120.3514023,-54.86973953,-170.9515991,8.380437851,-4.506994247,-3.176067352,1.806374192,1.137216687,0.088274173, 
166,532488589,-120.3615417,-54.90908813,-170.908844,8.367588997,-4.491829872,-3.241051197,2.031983614,1.106814504,-0.259757608, 
167,532505256,-120.3814163,-54.95139694,-170.865097,8.346721649,-4.477222919,-3.190951109,1.599974036,1.120120049,-0.449394017, 
168,532521923,-120.4006805,-54.99305344,-170.8136597,8.333140373,-4.471842289,-3.16342926,1.78757441,1.023099422,-0.453210324, 
169,532538590,-120.4149933,-55.03347397,-170.7686768,8.351385117,-4.494982243,-3.189826727,1.939227343,1.083763003,-0.322009265, 
170,532555257,-120.430687,-55.0739212,-170.7243195,8.364343643,-4.448823929,-3.181865454,1.808538437,1.12643373,-0.29223451, 
171,532571924,-120.4458923,-55.11347198,-170.6832581,8.399014473,-4.454016685,-3.188973188,1.697225451,1.195011735,-0.178501293, 
172,532588591,-120.4581909,-55.15161514,-170.6469116,8.408457756,-4.455274105,-3.159785509,1.780928016,1.222443104,-0.059632767, 
173,532605258,-120.4694061,-55.18654251,-170.6136932,8.355044365,-4.411015987,-3.178132772,1.711940169,1.210443497,0.171938077, 
174,532621925,-120.4827652,-55.21681976,-170.5838318,8.338432312,-4.428107738,-3.142788649,1.382534862,1.20129931,0.497795492, 
175,532638592,-120.4981003,-55.24050903,-170.5505676,8.351233482,-4.438434601,-3.130817175,1.425384879,0.913041353,0.796785355, 
176,532655259,-120.5035553,-55.25737,-170.5230713,8.346971512,-4.444184303,-3.150006533,1.73846209,0.880769432,1.259094715, 
177,532671926,-120.5100861,-55.26765823,-170.5020905,8.343705177,-4.426560879,-3.13130188,1.560581803,0.75713706,1.652070403, 
178,532688593,-120.5178528,-55.27357101,-170.4815216,8.332249641,-4.422278404,-3.133456945,1.40530479,0.677007675,1.918186545, 
179,532705260,-120.5288696,-55.27544785,-170.4572144,8.331178665,-4.450106144,-3.140252352,1.347163916,0.480250895,2.090470076, 
180,532721927,-120.545639,-55.2752037,-170.4264526,8.372965813,-4.462753773,-3.147750139,1.410875559,0.178033888,2.065549135, 
181,532738594,-120.5656128,-55.27492142,-170.3869629,8.397094727,-4.470721245,-3.106818676,1.455633759,0.040916286,1.9953444, 
182,532755261,-120.5870895,-55.27770996,-170.3493958,8.414392471,-4.495446205,-3.137369633,1.378654838,0.131585255,1.840861678, 
183,532771928,-120.6102448,-55.28527069,-170.3129883,8.406839371,-4.471913338,-3.15333724,1.317786098,0.25957191,1.589126945, 
184,532788595,-120.6359482,-55.29919815,-170.2715759,8.387526512,-4.456718445,-3.161565304,1.414640307,0.309542239,1.18334496, 
185,532805262,-120.6699371,-55.31906128,-170.2178345,8.368555069,-4.478693008,-3.212288141,1.544766188,0.126616389,0.66577661, 
186,532821929,-120.7104797,-55.34532166,-170.1517639,8.391384125,-4.487370491,-3.188568354,1.779788256,-0.038963322,0.121749975, 
187,532838596,-120.7549973,-55.37709045,-170.0789185,8.397267342,-4.497607231,-3.171601295,1.78078711,5.12254E-05,-0.239549205, 
188,532855263,-120.8053513,-55.41434479,-170.0079346,8.390190125,-4.45171833,-3.139004946,1.435271621,0.174076691,-0.513835549, 
189,532871930,-120.8548279,-55.45465851,-169.9454803,8.339885712,-4.440343857,-3.165675402,1.22931993,0.432636887,-0.572706401, 
190,532888597,-120.9165039,-55.49536896,-169.88237,8.322979927,-4.445809841,-3.173792124,0.608122349,0.392770737,-0.62384212, 
191,532905264,-120.9776535,-55.53423691,-169.8155518,8.343577385,-4.373734951,-3.188670635,0.877849638,0.208244041,-0.606809616, 
192,532921931,-121.0424271,-55.57542419,-169.7366028,8.350234032,-4.403538227,-3.276257038,1.197739482,-0.021162495,-0.905633152, 
193,532938598,-121.1098404,-55.6186142,-169.6516418,8.317936897,-4.378036976,-3.196468353,1.335177302,-0.112433359,-1.102850914, 
194,532955265,-121.178772,-55.66068649,-169.5624847,8.320315361,-4.384485245,-3.198191404,1.473421693,-0.263727576,-1.119281411, 
195,532971932,-121.2431946,-55.70022202,-169.4759979,8.336802483,-4.371736526,-3.183288574,1.687300444,-0.292465031,-0.960956514, 
196,532988599,-121.3068237,-55.73406601,-169.3972931,8.425200462,-4.348781586,-3.158664942,1.441264987,-0.286638111,-0.55869627, 
197,533005266,-121.3679657,-55.76200485,-169.32724,8.444696426,-4.332371235,-3.141795635,1.075272322,-0.160098568,-0.064486369, 
198,533021933,-121.4226379,-55.78217697,-169.2722626,8.459012985,-4.342178822,-3.140412331,0.8131392,-0.017858453,0.573276222, 
199,533038600,-121.4672012,-55.79687881,-169.2297668,8.456415176,-4.33865118,-3.187916279,0.773452401,0.188240543,1.09206152, 
200,533055267,-121.5080948,-55.80668259,-169.194397,8.464473724,-4.330218315,-3.210037947,0.766652107,0.173308328,1.432684779, 
201,533071934,-121.5434189,-55.8146019,-169.1600952,8.442458153,-4.338962555,-3.213608027,0.90895617,0.230206907,1.605711102, 
202,533088601,-121.5833282,-55.82193375,-169.1257172,8.419518471,-4.354135513,-3.217411518,0.896226823,0.06747666,1.549901366, 
203,533105268,-121.623497,-55.82950974,-169.0864258,8.372350693,-4.365531921,-3.186816454,0.919060647,0.0556564,1.530358911, 
204,533121935,-121.6663666,-55.83370209,-169.0541382,8.303897858,-4.369388103,-3.138537645,0.47218287,0.119662531,1.809434772, 
205,533138602,-121.7136459,-55.83335495,-169.0259705,8.277165413,-4.367281437,-3.135727644,-0.077305533,0.142906055,2.144026518, 
206,533155269,-121.7668381,-55.83086014,-169.0002747,8.330994606,-4.374326229,-3.193381786,-0.366908342,0.039802141,2.230507612, 
207,533171936,-121.8301926,-55.82714462,-168.9661713,8.303126335,-4.338006496,-3.241952181,-0.63070637,-0.194035411,2.170240879, 
208,533188603,-121.9053268,-55.81906509,-168.9225311,8.262499809,-4.338865757,-3.195703745,-0.860759676,-0.603006184,2.223246336, 
209,533205270,-121.9882584,-55.80399323,-168.8726044,8.214588165,-4.347096443,-3.170894146,-0.942246497,-1.043890476,2.440813303, 
210,533221937,-122.0746231,-55.7768364,-168.8201294,8.164126396,-4.332764626,-3.151726007,-1.128373861,-1.435905337,3.043671846, 
211,533238604,-122.1665421,-55.73530579,-168.7725983,8.135486603,-4.29977417,-3.151431322,-1.702777147,-1.758267164,3.857003927, 
212,533255271,-122.2578888,-55.67570877,-168.7385406,8.121850014,-4.241397858,-3.185324192,-2.341673136,-1.950989723,5.012226582, 
213,533271938,-122.318924,-55.59143448,-168.7238159,8.140563965,-4.183652401,-3.239036798,-1.417631149,-2.226275444,6.587152004, 
214,533288605,-122.3791885,-55.47845459,-168.7090149,8.196063042,-4.214905739,-3.433913231,-1.295176864,-3.195024967,8.017058372, 
215,533305272,-122.433876,-55.34379578,-168.6815033,8.31966877,-4.248365879,-3.353717327,-0.515398085,-4.14498806,8.95366478, 
216,533321939,-122.4747086,-55.19524002,-168.6497803,8.416935921,-4.412087917,-3.276548862,0.495746821,-4.699119568,9.592549324, 
217,533338606,-122.5056839,-55.03853989,-168.6363525,8.467012405,-4.36709404,-3.262818098,0.072343089,-4.376590729,10.38266087, 
218,533355273,-122.5396194,-54.87802887,-168.6416931,8.488081932,-4.392076969,-3.216676474,-0.907195866,-4.035980701,10.88158607, 
219,533371940,-122.5884552,-54.71509933,-168.6352997,8.471126556,-4.465424538,-3.26586175,-1.246653795,-4.454517365,10.79956055, 
220,533388607,-122.650116,-54.55023575,-168.6001282,8.288945198,-4.429842949,-3.12449646,-0.63684082,-5.359863281,10.36872959, 
221,533405274,-122.7212906,-54.38276291,-168.5285339,7.542627811,-4.594751358,-3.108500004,0.483760059,-6.485106468,9.839213371, 
222,533421941,-122.8189316,-54.20556641,-168.4092865,6.809535027,-4.71561718,-2.879530191,1.073608041,-8.144515991,9.440896988, 
223,533438608,-123.010643,-54.00475311,-168.2577057,6.11894846,-4.714558125,-2.583037376,-3.039633751,-9.890650749,9.94530201, 
224,533455275,-123.2889481,-53.78398895,-168.1183624,5.725953579,-5.15805912,-2.590354443,-8.758482933,-10.29947376,11.02285862, 
225,533471942,-123.6222153,-53.51481628,-168.0461121,6.182593346,-5.301640034,-2.232867956,-15.45949173,-9.908502579,14.654603, 
226,533488609,-123.9609985,-53.25068665,-168.0707855,7.065611362,-5.471581459,-1.769860625,-20.62016296,-6.895205975,16.23472977, 
227,533505276,-124.2999496,-53.08410263,-168.015213,9.45254612,-5.656817436,-2.98429203,-16.9367981,-6.064601898,9.717446327, 
228,533521943,-124.6282196,-53.06752777,-167.7315063,13.03320122,-2.975364447,-6.125653744,-5.396194458,-7.832910538,-2.398969412, 
229,533538610,-124.9291916,-53.20276642,-167.2650299,12.66584873,-2.182617903,-5.713830471,5.15919733,-8.014074326,-13.51203823, 
230,533555277,-125.0558853,-53.38418198,-166.9029388,8.245231628,-5.303396225,-3.938857079,10.76934433,-3.261044502,-13.45522976, 
231,533571944,-125.214325,-53.54319,-166.5811615,6.502236843,-5.349378109,-3.868025064,7.147843838,-2.873394728,-11.61923981, 
232,533588611,-125.4875412,-53.67718887,-166.267868,8.243297577,-3.986834764,-4.552749634,0.056642506,-3.47921133,-10.36301041, 
233,533605278,-125.7262726,-53.8403244,-166.0770264,10.11274433,-3.933189154,-4.355814457,-3.756622553,1.205334067,-9.22478199, 
234,533621945,-125.8002167,-54.03812027,-166.0489807,9.433869362,-4.734494209,-3.958601236,-1.728620768,7.141117573,-7.467801094, 
235,533638612,-125.8417664,-54.25663376,-166.0532684,7.921872616,-4.911969185,-4.123495579,-1.31642282,8.772340775,-7.800844669, 
236,533655279,-125.9751053,-54.5004158,-166.003952,7.942247391,-4.61686182,-4.12643528,-4.035033703,8.085320473,-10.21652222, 
237,533671946,-126.1650391,-54.76711655,-165.9338837,8.431801796,-4.477403164,-3.939586401,-6.472315311,8.420040131,-11.71010208, 
238,533688613,-126.397583,-55.06141281,-165.8609924,8.626249313,-4.384093761,-3.826772928,-8.774812698,9.341155052,-13.10717869, 
239,533705280,-126.6363525,-55.40013123,-165.7962952,8.663384438,-4.481615543,-3.809104681,-9.457036018,11.19041061,-15.06361389, 
240,533721947,-126.8296204,-55.81126404,-165.7293396,8.502056122,-4.460064411,-3.944456577,-6.553476334,13.7869215,-18.5596962, 
241,533738614,-126.9515533,-56.30051422,-165.6698456,8.712500572,-4.286474705,-3.95232749,-2.506612539,16.83017349,-22.15890503, 
242,533755281,-126.9643555,-56.85892868,-165.6812439,8.620742798,-4.035192013,-3.923759699,0.629447162,21.20290947,-24.07549095, 
243,533771948,-126.8857651,-57.47337341,-165.7776947,8.493022919,-3.968160868,-3.81071949,1.923317313,25.38423157,-25.14169693, 
244,533788615,-126.7247238,-58.13508224,-165.9343109,8.451423645,-4.14993763,-3.725244522,3.841502428,28.51488304,-26.35585594, 
245,533805282,-126.4471054,-58.83985519,-166.1539764,8.829927444,-3.893245935,-3.772057295,7.53740406,31.4874897,-27.4106617, 
246,533821949,-126.0767593,-59.57726669,-166.4553986,8.911518097,-3.675226927,-3.47522521,8.796616554,34.4173851,-27.74650574, 
247,533838616,-125.6585312,-60.34369659,-166.8158417,8.864293098,-3.797451258,-3.330547571,8.521103859,36.49702072,-28.46100616, 
248,533855283,-125.2045135,-61.1492424,-167.2111664,8.816271782,-3.846503735,-3.0036695,8.648139,38.28371048,-30.17461586, 
249,533871950,-124.787117,-61.95236969,-167.5221558,8.700866699,-3.970802307,-3.075145245,9.842965126,36.13768387,-31.60795403, 
250,533888617,-124.3768616,-62.76999283,-167.7783203,8.89282608,-3.406228781,-2.836458683,12.18513107,34.95030594,-33.58773041, 
251,533905284,-123.960556,-63.62107468,-168.1247101,9.006152153,-3.306319475,-2.429359674,7.595349789,37.6777916,-34.22841644, 
252,533921951,-123.5046463,-64.46539307,-168.4777679,8.863985062,-3.633027315,-2.511663675,9.454452515,37.08343506,-34.21695328, 
253,533938618,-123.0596542,-65.29384613,-168.7875061,8.867618561,-3.403119802,-2.750520468,10.99167252,35.11673355,-34.47184372, 
254,533955285,-122.6088257,-66.10951996,-169.1029663,9.093613625,-2.66575408,-2.161409616,10.90623856,34.34362793,-34.15818405, 
255,533971952,-122.1812973,-66.87572479,-169.4141846,9.143712044,-2.834300518,-1.83663702,9.616872787,32.18008804,-32.0679245, 
256,533988619,-121.7043686,-67.61003876,-169.7257843,9.131867409,-3.391999245,-1.925077081,12.44181538,30.69633484,-30.79525757, 
257,534005286,-121.1955032,-68.30709076,-170.041626,9.268015862,-2.892603874,-2.234926462,14.00849724,29.13164139,-29.22081947, 
258,534021953,-120.6945496,-68.98751831,-170.3848114,9.444694519,-1.992016196,-1.765858293,11.91282368,28.67915535,-28.41582298, 
259,534038620,-120.2029724,-69.62470245,-170.7725677,9.557581902,-2.396504641,-1.580471396,8.750510216,27.70898819,-26.01614189, 
260,534055287,-119.6990356,-70.20588684,-171.1695099,9.451438904,-2.859700918,-1.921714067,8.873431206,25.73023605,-23.34174538, 
261,534071954,-119.1505585,-70.7631073,-171.6071625,9.412032127,-2.180289745,-1.585978508,9.150457382,25.30469704,-22.03018379, 
262,534088621,-118.6551132,-71.28046417,-172.043808,9.339209557,-1.791717768,-1.432409525,5.936519146,23.69651604,-20.26547432, 
263,534105288,-118.2497406,-71.75507355,-172.4639435,9.21349144,-2.171194077,-1.304469109,1.385125875,21.81444931,-18.40905762, 
264,534121955,-117.8503799,-72.17956543,-172.8461761,9.333990097,-2.550144434,-1.189761281,3.119261742,19.45370483,-16.31568909, 
265,534138622,-117.4539185,-72.56712341,-173.1916809,9.316883087,-2.227524281,-1.754591703,4.977031708,17.54754066,-14.86845303, 
266,534155289,-117.2031403,-72.8999176,-173.4247437,9.349030495,-1.638849854,-1.3446244,2.639917135,14.05916119,-13.02011108, 
267,534171956,-117.0712891,-73.16916656,-173.5441742,9.446013451,-2.2948699,-0.811453521,2.001582623,10.42858982,-10.58809853, 
268,534188623,-116.9656906,-73.37268829,-173.594635,9.448199272,-2.029661894,-0.773816943,4.368273735,7.4963274,-7.651931763, 
269,534205290,-117.0243225,-73.49981689,-173.5035706,9.393149376,-1.541692972,-1.225024462,2.644562721,3.221591473,-4.67231369, 
270,534221957,-117.1798172,-73.55693054,-173.3700256,9.564083099,-1.699550152,-1.242391586,-0.720261097,0.677852869,-1.232899189, 
271,534238624,-117.3970718,-73.56739807,-173.1822052,9.493746758,-1.920482039,-1.71650672,-1.29625237,-1.416849732,0.844194651, 
272,534255291,-117.6660309,-73.54532623,-172.9346313,9.552752495,-2.150038242,-1.121901393,-0.955155313,-3.20411706,2.10259819, 
273,534271958,-117.9741821,-73.501091,-172.616333,9.510172844,-2.368073702,-1.245242953,0.761619329,-4.906541824,2.686285973, 
274,534288625,-118.3147202,-73.44478607,-172.2578583,9.654981613,-2.136222124,-1.389939785,1.124986649,-5.874612808,2.947599649, 
275,534305292,-118.627121,-73.37937164,-171.9310455,9.587985039,-1.803321362,-1.996579528,0.987164795,-5.684758663,3.634942293, 
276,534321959,-118.9764023,-73.2960434,-171.5651245,9.406218529,-2.165156603,-1.821255088,1.030911207,-6.80078125,4.208846092, 
277,534338626,-119.2709198,-73.21321106,-171.2240601,9.427384377,-2.460526943,-1.350891829,2.881634235,-6.436262131,4.329417706, 
278,534355293,-119.533226,-73.13230896,-170.9277649,9.575124741,-2.183435917,-1.447378159,2.234708309,-5.742233753,4.545678139, 
279,534371960,-119.7664948,-73.06233215,-170.7321167,9.694727898,-2.066399574,-1.623809576,-1.802884579,-3.92359066,4.797412872, 
280,534388627,-119.9125671,-73.00280762,-170.6321869,9.635357857,-2.168544769,-1.901197195,-2.061713696,-2.176932573,5.065104485, 
281,534405294,-119.9786835,-72.95401764,-170.5949554,9.588502884,-2.174279213,-1.737729073,-0.862565458,-0.903904378,5.050121307, 
282,534421961,-120.026619,-72.9072876,-170.5615997,9.636996269,-2.244091272,-1.710857153,0.010846977,-0.784203172,4.970592022, 
283,534438628,-120.0335388,-72.86774445,-170.5653839,9.646221161,-2.208098888,-1.661345005,0.345835447,-0.001325457,4.917497158, 
284,534455295,-119.9961929,-72.83452606,-170.6070709,9.505653381,-2.391591787,-1.699568748,0.829262495,0.767945707,4.925732613, 
285,534471962,-119.8803253,-72.81999969,-170.7145996,9.38012886,-2.367913723,-1.941418409,1.763959527,2.341615677,4.529465675, 
286,534488629,-119.6763382,-72.82450867,-170.9008942,9.331346512,-2.296771765,-1.854547381,2.543444157,4.138885021,4.215159893, 
287,534505296,-119.3965149,-72.84589386,-171.1453705,9.363977432,-2.4489429,-1.93968904,3.757127523,5.545176029,3.821761608, 
288,534521963,-119.0330429,-72.88414001,-171.4647369,9.416899681,-2.379413128,-1.609977365,4.482056618,7.205660343,3.544926167, 
289,534538630,-118.6190338,-72.92915344,-171.8446198,9.407973289,-2.210818291,-1.712865829,4.039674282,8.331069946,3.646609068, 
290,534555297,-118.1812744,-72.96792603,-172.2553558,9.490078926,-2.16693306,-1.5193398,3.683350801,8.623697281,4.175358295, 
291,534571964,-117.6857071,-73.00699615,-172.7038574,9.592328072,-2.296560526,-1.784484744,4.984874249,9.216952324,4.397024155, 
292,534588631,-117.1334686,-73.05171204,-173.2067566,9.537025452,-2.221335411,-1.531193018,5.258379459,10.22286606,4.448941231, 
293,534605298,-116.5525513,-73.09690094,-173.7501984,9.499009132,-2.241849899,-1.597285748,4.642470837,10.86263371,4.644597054, 
294,534621965,-115.918541,-73.14959717,-174.3344421,9.509442329,-2.359770775,-1.675095916,5.475153446,11.69992733,4.436954975, 
295,534638632,-115.2076569,-73.21317291,-174.9749298,9.587171555,-2.371772766,-1.503172874,6.847227573,12.85722637,4.127297401, 
296,534655299,-114.3996811,-73.29026794,-175.7034149,9.661067963,-2.209572077,-1.717735887,7.602484703,14.558465,3.847581863, 
297,534671966,-113.5125504,-73.37672424,-176.5432434,9.519678116,-2.105278254,-1.645424128,5.931407452,16.50568581,3.896822214, 
298,534688633,-112.5625153,-73.46607208,-177.4362335,9.498822212,-2.467206955,-1.563417196,6.628165722,17.37168312,3.818320513, 
299,534705300,-111.5229645,-73.5712204,-178.3933868,9.603084564,-2.458222151,-1.390833139,8.281924248,18.68388367,3.025152445, 
300,534721967,-110.4195557,-73.68083191,-179.4182587,9.635795593,-2.429044962,-1.19157958,8.178570747,19.75810432,2.819514751, 
301,534738634,-109.3010483,-73.78804779,179.5357513,9.373117447,-2.152861118,-1.209801316,7.826946259,19.9371376,2.673304319, 
302,534755301,-108.1852951,-73.89179993,178.5225372,9.238684654,-2.3419981,-1.133170128,9.523431778,19.24651527,2.289394855, 
303,534771968,-107.1213684,-73.977005,177.6020966,10.03636456,-2.444242001,-0.736519873,11.72438526,17.3404541,2.508063555, 
304,534788635,-106.1500397,-74.06484985,176.700882,9.94210434,-2.313662291,-0.227233648,7.249951363,16.98816872,1.954187155, 
305,534805302,-105.4528275,-74.13689423,175.9754486,9.431159019,-2.491152048,-0.181181058,0.913772166,13.84409714,1.830976248, 
306,534821969,-105.0267105,-74.19369507,175.5695801,9.307714462,-2.711914778,-0.243962377,3.074715853,8.476436615,1.190299273, 
307,534838636,-104.8900681,-74.23331451,175.4910583,9.237959862,-2.402764797,-0.108664654,4.588989258,3.001821756,0.752219439, 
308,534855303,-105.026268,-74.25919342,175.6707306,9.329297066,-2.485314369,-0.353769779,3.121291876,-1.300107121,0.453575313, 
309,534871970,-105.3150787,-74.29502869,175.9960785,9.501723289,-2.592772245,-0.610691667,2.378638506,-3.428983212,-0.761958599, 
310,534888637,-105.6531219,-74.35657501,176.3663025,9.501479149,-2.436493874,-0.821110606,2.015565634,-3.693907976,-2.474065065, 
311,534905304,-106.0063782,-74.43981171,176.7328033,9.535644531,-2.266291142,-0.832420826,0.898480773,-3.224184513,-3.739742517, 
312,534921971,-106.3238831,-74.53460693,177.0404663,9.64074707,-2.181912899,-1.080675483,-0.347596377,-2.056194067,-4.163363934, 
313,534938638,-106.5964584,-74.63493347,177.2768555,9.622693062,-2.180067301,-1.015735149,-1.767090678,-0.805077672,-4.162198067, 
314,534955305,-106.8553314,-74.73474884,177.4873657,9.581904411,-2.207182884,-0.920384645,-2.433123589,-0.363719583,-4.016885281, 
315,534971972,-107.1237717,-74.82670593,177.6984558,9.598327637,-2.132259369,-0.878909409,-2.965816259,-0.461009443,-3.57356739, 
316,534988639,-107.4220963,-74.91316223,177.9211426,9.607995033,-2.174622536,-0.916576564,-4.085181236,-0.68673414,-3.310716867, 
317,535005306,-107.7046738,-74.99593353,178.1303406,9.59488678,-2.086156368,-0.998758435,-3.913754702,-0.504986346,-3.043998718, 
318,535021973,-108.0126114,-75.06839752,178.335144,9.572440147,-1.946112633,-0.906411171,-5.686423302,-0.586140335,-2.432777643, 
319,535038640,-108.3744965,-75.12245178,178.5776825,9.683574677,-2.073465824,-0.86427182,-6.728591919,-1.443832994,-1.570167661, 
320,535055307,-108.7974854,-75.15748596,178.8868103,9.651839256,-1.941158295,-0.887877047,-6.530887604,-2.744087458,-0.827078998, 
321,535071974,-109.3347855,-75.16540527,179.2939911,9.626994133,-1.986552835,-0.772962809,-7.701798916,-4.67004776,0.196321413, 
322,535088641,-110.0378494,-75.13749695,179.8520355,9.593752861,-1.892885566,-0.637620449,-8.894493103,-7.560941696,1.372072816, 
323,535105308,-110.9859695,-75.06071472,-179.3876038,9.624808311,-1.866633773,-0.441116571,-11.88080025,-11.53864002,2.903176308, 
324,535121975,-112.2836304,-74.91956329,-178.3134155,9.516056061,-2.031920195,-0.302273959,-14.6852808,-17.59392738,4.418352604, 
325,535138642,-114.0403671,-74.68996429,-176.7640228,9.54178524,-2.380875111,-0.024741951,-14.76576614,-26.80015373,5.776695251, 
326,535155309,-116.2770081,-74.35871124,-174.6871643,9.524184227,-2.7451334,0.529512644,-13.17885208,-37.55906677,6.536512852, 
327,535171976,-118.9577026,-73.89817047,-172.1380768,9.882773399,-2.428110838,0.932183146,-12.8080759,-48.93598175,7.754303455, 
328,535188643,-121.8433609,-73.26419067,-169.463028,10.46813011,-1.461151958,0.544567466,-18.27391434,-57.51325226,12.50341606, 
329,535205310,-124.6809921,-72.44696045,-167.0451202,11.04096127,-0.918605149,-0.701634824,-30.71066856,-61.85037613,20.21166992, 
330,535221977,-127.3029404,-71.50291443,-165.0362244,11.70996284,-1.040289044,-1.532562852,-41.76943588,-62.71170425,26.62382126, 
331,535238644,-129.6952209,-70.47260284,-163.2492981,12.18161869,-0.478838116,-2.616339207,-41.22019958,-65.0978241,29.39282417, 
332,535255311,-131.9703217,-69.3633194,-161.436203,13.39495182,0.295500457,-2.500203848,-33.34817886,-71.07234955,28.74908257, 
333,535271978,-133.8009033,-68.15490723,-159.7786102,13.00017929,-0.960450828,-2.898454666,-16.11257935,-75.06723785,31.51108551, 
334,535288645,-135.4407654,-66.91786957,-158.1213684,12.49067783,-0.725380778,-2.41671133,-5.440022469,-78.52084351,29.10102463, 
335,535305312,-136.7068481,-65.75360107,-156.6819916,11.70829201,-1.892813802,-1.922724485,4.228031158,-73.73829651,26.51297188, 
336,535321979,-137.4911957,-64.66966248,-155.5863953,10.12356281,-3.233523607,-2.202617645,13.7234993,-65.82787323,27.1272583, 
337,535338646,-137.863205,-63.69207382,-154.8682098,8.49215126,-4.694617271,-3.125356674,17.5773201,-55.45794678,28.6413784, 
338,535355313,-137.9286194,-62.89323807,-154.3773041,7.292302132,-4.622561932,-4.195586681,23.48418236,-43.8821373,25.27490044, 
339,535371980,-137.8679504,-62.36014175,-153.9897919,6.870155811,-2.418566942,-3.367166281,25.38018227,-30.30034447,16.40419388, 
340,535388647,-137.7685852,-62.28268433,-153.7315979,6.645747662,0.265475422,-0.035074092,20.78239632,-7.64999485,0.664035916, 
341,535405314,-137.7576294,-62.64156342,-153.5584106,5.590468884,-1.038972616,-0.571419716,10.96759605,13.28143883,-15.09952831, 
342,535421981,-137.573349,-63.38758469,-153.4390869,5.55752182,-0.797982097,-1.001322865,18.51656342,31.43770409,-29.59982109, 
343,535438648,-137.3781128,-64.47537231,-153.2092438,5.892712593,-0.846956253,-1.320958138,25.16703033,44.528965,-45.61450577, 
344,535455315,-137.0947571,-65.88703156,-152.9245148,6.433839321,-0.894505799,-1.289588451,33.56176758,57.83586502,-59.78815842, 
345,535471982,-136.6320953,-67.60157776,-152.6209412,6.752689362,-1.636000037,-1.817406178,45.52450943,70.66984558,-72.57463837, 
346,535488649,-135.8627319,-69.56679535,-152.3348999,7.252777576,-2.699766159,-2.368187189,63.14065933,81.37478638,-83.05232239, 
347,535505316,-134.4588013,-71.71479797,-152.3014832,7.933316708,-3.987014294,-2.778678417,87.0949707,91.49481964,-88.3543396, 
348,535521983,-132.0808563,-73.94776154,-152.819046,8.303598404,-4.79488039,-3.196175575,113.9294968,99.14527893,-88.33636475, 
349,535538650,-128.9460602,-76.12677002,-153.9294281,8.230476379,-3.842496157,-3.333220005,124.601326,98.71640778,-85.35991669, 
350,535555317,-125.1029739,-78.16677856,-156.0464783,9.349839211,-4.563680172,-3.289517879,107.5886383,97.0415802,-77.89803314, 
351,535571984,-119.7631226,-80.00918579,-160.0125122,10.51618481,-4.616811275,-3.140557766,87.54911804,98.13375092,-66.38760376, 
352,535588651,-113.1990814,-81.18405151,-165.8569183,9.560508728,-10.54336834,-8.197898865,48.69519043,83.58112335,-34.85319519, 
353,535605318,-110.743309,-81.44783783,-168.0679626,9.499501228,-11.57262421,-17.71527672,17.0388813,25.62199593,-4.803582668, 
354,535621985,-110.4913177,-81.77371979,-169.2957916,14.33860302,6.13912487,-1.593634486,-56.86643982,18.51297379,-12.40059566, 
355,535638652,-106.8324127,-82.38558197,-173.5098114,14.23169708,8.447249413,13.57952023,-29.99554825,46.31332779,-21.28040123, 
356,535655319,-104.0336075,-82.64993286,-176.149765,11.74900723,-7.043843746,-0.531196952,11.72084045,25.29226685,-7.198694229, 
357,535671986,-103.176033,-82.7033844,-176.3477173,12.43451118,-1.203138947,-6.493978024,40.51557159,3.422120333,-0.322817981, 
358,535688653,-101.970871,-82.7206955,-177.5729828,9.899510384,4.490637779,4.294093609,0.237263292,10.67266178,3.470777988, 
359,535705320,-101.4957275,-82.66436005,-178.6921692,8.018010139,-2.539089441,1.215812922,-37.25790787,8.892148972,7.635289192, 
360,535721987,-101.2342987,-82.53704834,-179.1782074,8.779405594,-4.259013653,-2.27712512,-12.39436245,3.347762585,10.77193069, 
361,535738654,-101.4494324,-82.46334076,-178.8321686,9.361772537,-0.804269969,-0.363425821,8.523550034,-2.308505535,6.257236004, 
362,535755321,-101.8195496,-82.36791229,-178.3516388,9.24251461,-0.791629612,-0.168785349,7.213384151,-3.667029142,7.308881283, 
363,535771988,-102.0872574,-82.23545074,-178.0223846,9.489537239,-1.015284896,-0.711132288,4.363234043,-3.027499199,9.689294815, 
364,535788655,-102.4797897,-82.10420227,-177.5999298,9.98800087,-1.076655865,-0.363582671,2.402689934,-3.83764863,9.428794861, 
365,535805322,-102.8149109,-81.98036194,-177.205658,10.03182888,-1.449219823,-0.169496343,4.172182083,-3.615444899,9.001803398, 
366,535821989,-103.1390533,-81.8625946,-176.7909546,10.05207443,-1.365610003,-0.5282166,6.02959013,-3.795194626,8.561995506, 
367,535838656,-103.4952393,-81.7537384,-176.3815155,9.996034622,-1.094069362,-0.53728646,3.791103363,-3.713490248,8.008965492, 
368,535855323,-103.8419495,-81.64093018,-176.0345154,9.872085571,-1.01719141,-0.527067661,0.659335077,-3.321858883,8.315254211, 
369,535871990,-104.1613846,-81.5218277,-175.7356873,9.830918312,-1.073709249,-0.688370943,-0.583207667,-3.081535101,8.763579369, 
370,535888657,-104.4172821,-81.40115356,-175.4950867,9.796092987,-1.107344151,-0.645312846,-0.220851943,-2.66699338,8.951742172, 
371,535905324,-104.5191345,-81.29618073,-175.3894958,9.765236855,-1.370403409,-0.619612873,1.005849361,-1.299006104,8.329238892, 
372,535921991,-104.4696198,-81.21405792,-175.4300385,9.752088547,-1.47037816,-0.803841531,1.419199944,0.321951717,7.329703331, 
373,535938658,-104.2503357,-81.15802002,-175.6584015,9.750817299,-1.368576646,-0.746974945,0.484579504,2.404046535,6.22748518, 
374,535955325,-103.892601,-81.12554932,-176.0396118,9.794279099,-1.383373499,-0.790093005,-0.27736634,4.148309708,5.200684547, 
375,535971992,-103.4437943,-81.1096344,-176.5044708,9.852919579,-1.407857776,-0.635108113,0.222535983,5.166043758,4.40565443, 
376,535988659,-102.9421005,-81.10168457,-177.0006714,9.840436935,-1.36924684,-0.470926642,1.545483708,5.582635403,3.964757442, 
377,536005326,-102.4131546,-81.0970459,-177.5098572,9.849411964,-1.293138385,-0.52173835,2.417698145,5.758516312,3.751363993, 
378,536021993,-101.8635101,-81.08976746,-178.0317993,9.847484589,-1.355317116,-0.473732024,2.90268755,5.85411644,3.889955044, 
379,536038660,-101.3198624,-81.08030701,-178.5389557,9.732498169,-1.35548389,-0.459473819,3.401636124,5.707803726,3.956688881, 
380,536055327,-100.8538361,-81.06484222,-178.9638977,9.678490639,-1.343178153,-0.395735443,3.628154278,4.905267715,4.120903969, 
381,536071994,-100.4679184,-81.04399872,-179.3110809,9.709586143,-1.333926201,-0.352823138,3.428925991,4.150602341,4.270853519, 
382,536088661,-100.1568832,-81.01698303,-179.602417,9.704461098,-1.267653942,-0.295368344,2.247591257,3.586059332,4.526545048, 
383,536105328,-99.93693542,-80.98123932,-179.8188477,9.746310234,-1.303726673,-0.263292342,1.23066473,2.817742825,4.901694298, 
384,536121995,-99.8033905,-80.9380722,-179.943634,9.756094933,-1.351831675,-0.258346975,1.460167289,1.898131371,5.204488277, 
385,536138662,-99.79244232,-80.88380432,-179.9493103,9.758923531,-1.309744954,-0.323924512,1.173048973,0.678979933,5.658331871, 
386,536155329,-99.86175537,-80.82189941,-179.888504,9.751904488,-1.344197392,-0.286108881,0.287720323,-0.030626392,6.00965023, 
387,536171996,-100.0059433,-80.75333405,-179.7588806,9.720891953,-1.410246611,-0.375458747,-0.116877161,-0.764199853,6.272794247, 
388,536188663,-100.2062683,-80.6807785,-179.5633698,9.70996666,-1.448729634,-0.359888166,0.403835505,-1.458201528,6.397528172, 
389,536205330,-100.45298,-80.60359955,-179.3158264,9.702740669,-1.397426724,-0.400933355,0.695769131,-2.041582346,6.566790104, 
390,536221997,-100.69944,-80.52526855,-179.0638275,9.760349274,-1.425539136,-0.42684111,0.981927097,-2.136451721,6.600932598, 
391,536238664,-100.937294,-80.44976044,-178.8131714,9.748428345,-1.513599515,-0.401177466,1.405458808,-2.131854296,6.425702572, 
392,536255331,-101.1663361,-80.37986755,-178.564743,9.71846199,-1.482236862,-0.459705651,1.807988048,-2.08001399,6.071658134, 
393,536271998,-101.3816299,-80.31240845,-178.3380737,9.718660355,-1.411646366,-0.514466226,1.337905169,-1.872218251,5.960895538, 
394,536288665,-101.5856247,-80.24853516,-178.1272736,9.785842896,-1.487180471,-0.490028977,1.073671579,-1.69961381,5.766993999, 
395,536305332,-101.7756805,-80.1897583,-177.9277344,9.753773689,-1.523908138,-0.488640547,1.242024064,-1.551790357,5.478480339, 
396,536321999,-101.9485626,-80.13723755,-177.7512817,9.748799324,-1.497191191,-0.478022248,0.90921247,-1.26415956,5.142364025, 
397,536338666,-102.0962372,-80.09007263,-177.6088104,9.753407478,-1.533142209,-0.520385385,0.411160678,-0.872362196,4.889707565, 
398,536355333,-102.2334824,-80.04769897,-177.4716492,9.731266022,-1.548870325,-0.517065048,0.71939677,-0.772459865,4.617982864, 
399,536372000,-102.3560791,-80.00904846,-177.3457794,9.716786385,-1.517721891,-0.498974711,0.927986562,-0.622305453,4.416897297, 
400,536388667,-102.4538345,-79.97296906,-177.2384644,9.763706207,-1.536552668,-0.535363019,1.322358251,-0.409169376,4.301423073, 
401,536405334,-102.5434341,-79.93920898,-177.1360321,9.745916367,-1.551318049,-0.536981344,1.528335452,-0.336313963,4.166687012, 
402,536422001,-102.6236038,-79.90958405,-177.0413361,9.728790283,-1.54944849,-0.512525022,1.62827611,-0.211195931,3.948377132, 
403,536438668,-102.7020645,-79.88244629,-176.9511566,9.739695549,-1.546567559,-0.501896739,1.461665511,-0.137943596,3.805201769, 
404,536455335,-102.7823715,-79.85811615,-176.8630981,9.741973877,-1.560816765,-0.506147146,1.227296591,-0.084874101,3.645353556, 
405,536472002,-102.860527,-79.83235168,-176.7783356,9.744543076,-1.565327168,-0.497989744,1.165044904,-0.074385688,3.726507187, 
406,536488669,-102.9400253,-79.80870056,-176.6947479,9.757652283,-1.542465687,-0.515542507,1.008154154,-0.041012332,3.60862422, 
407,536505336,-103.0090408,-79.78527069,-176.620163,9.744586945,-1.552468657,-0.536997437,1.108709812,0.052774973,3.609072924, 
408,536522003,-103.0559158,-79.76420593,-176.5665436,9.737164497,-1.598233342,-0.508782625,1.196625352,0.296518236,3.522117615, 
409,536538670,-103.0875702,-79.74598694,-176.5215912,9.714834213,-1.60036099,-0.534133792,1.594825983,0.421636283,3.377380371, 
410,536555337,-103.1076965,-79.72915649,-176.4859772,9.719382286,-1.566415429,-0.557875156,1.73691237,0.535113335,3.312285423, 
411,536572004,-103.1152954,-79.71422577,-176.4651184,9.751336098,-1.565281391,-0.594578564,1.615277886,0.714082122,3.239046335, 
412,536588671,-103.0958176,-79.70249176,-176.4734344,9.743847847,-1.578659534,-0.546054721,1.51629734,1.061864018,3.124044895, 
413,536605338,-103.0615997,-79.69385529,-176.4940643,9.723615646,-1.626103163,-0.503225625,1.669948101,1.232406378,2.970074415, 
414,536622005,-102.9997559,-79.689888,-176.5426025,9.732491493,-1.590922117,-0.530129373,1.688504577,1.587821007,2.759691715, 
415,536638672,-102.9099884,-79.68775177,-176.6212921,9.735972404,-1.571237206,-0.531080186,1.575578213,1.926318526,2.727074146, 
416,536655339,-102.8174362,-79.68754578,-176.6978149,9.731933594,-1.583496571,-0.566767633,1.870726109,1.928982258,2.607488394, 
417,536672006,-102.7063751,-79.68935394,-176.7902069,9.726438522,-1.572356701,-0.507544637,2.041601419,2.12166667,2.525963306, 
418,536688673,-102.5894165,-79.69026947,-176.8904266,9.733653069,-1.602731705,-0.454494298,1.93778038,2.192050695,2.590469122, 
419,536705340,-102.4693985,-79.69351196,-176.9925842,9.732555389,-1.63018775,-0.475426912,1.999955416,2.238793373,2.458704472, 
420,536722007,-102.3511124,-79.69538879,-177.0950928,9.710928917,-1.58024013,-0.474460065,1.877385259,2.224808931,2.533621311, 
421,536738674,-102.2366562,-79.69664001,-177.1940613,9.705830574,-1.587227821,-0.496215671,1.851772904,2.177130938,2.560988665, 
422,536755341,-102.125061,-79.69572449,-177.2893982,9.713481903,-1.560244203,-0.463929683,1.899271607,2.11151123,2.673428535, 
423,536772008,-102.0245056,-79.69271851,-177.3748779,9.717077255,-1.582047105,-0.452694207,1.811176658,1.980297446,2.777198315, 
424,536788675,-101.9258194,-79.68964386,-177.4581909,9.711864471,-1.597087264,-0.45681572,1.831910133,1.956528425,2.768771172, 
425,536805342,-101.840065,-79.68481445,-177.5274048,9.702278137,-1.621920586,-0.455311805,1.883686423,1.785346389,2.841383696, 
426,536822009,-101.7562485,-79.67929077,-177.5969543,9.73753643,-1.584946752,-0.442205518,1.745505571,1.7794168,2.881646395, 
427,536838676,-101.6745453,-79.67285919,-177.667572,9.747011185,-1.608287692,-0.464201748,1.558084488,1.781196952,2.930553913, 
428,536855343,-101.6011658,-79.66629028,-177.7292938,9.694900513,-1.604454875,-0.454769969,1.579458475,1.684073567,2.923369646, 
429,536872010,-101.5285263,-79.6577301,-177.7906647,9.729808807,-1.593621731,-0.431951046,1.556291461,1.655963302,3.036590338, 
430,536888677,-101.4560852,-79.64785767,-177.8453064,9.747749329,-1.618058681,-0.462228209,1.942313671,1.569008708,3.097306013, 
431,536905344,-101.390274,-79.63640594,-177.8902435,9.711151123,-1.60299933,-0.412053585,2.111319065,1.447924614,3.170148134, 
432,536922011,-101.32444,-79.6231842,-177.9380341,9.711556435,-1.616696,-0.445183277,1.9498564,1.458143711,3.2760818, 
433,536938678,-101.2759552,-79.60913849,-177.9689484,9.73120594,-1.639019251,-0.424539655,1.897824407,1.267918468,3.291335106, 
434,536955345,-101.2424545,-79.59404755,-177.9867706,9.698878288,-1.607368946,-0.42235294,1.778059483,1.117533445,3.319828749, 
435,536972012,-101.2107925,-79.57862854,-178.0070343,9.716194153,-1.618974447,-0.426953077,1.513685226,1.137857199,3.34924531, 
436,536988679,-101.1845169,-79.56298828,-178.0205231,9.709733963,-1.661842227,-0.425406188,1.593699098,1.062735081,3.342790604, 
437,537005346,-101.161171,-79.54930878,-178.0269012,9.748624802,-1.640669942,-0.424417108,1.839645267,1.009960055,3.209233284, 
438,537022013,-101.1353912,-79.537323,-178.0384674,9.718050957,-1.651482224,-0.466674119,1.678720474,1.08198297,3.123161554, 
439,537038680,-101.0991745,-79.52716827,-178.0634613,9.705589294,-1.653570056,-0.449777782,1.504861474,1.247095227,3.045119762, 
440,537055347,-101.0430145,-79.51909637,-178.107254,9.751161575,-1.640951872,-0.457531542,1.601267695,1.472128391,2.955526114, 
441,537072014,-100.9573975,-79.51117706,-178.1794128,9.741785049,-1.650909662,-0.447571993,1.687454581,1.779545069,3.006521702, 
442,537088681,-100.8670044,-79.50395966,-178.2582092,9.705397606,-1.676424265,-0.44289431,1.576244235,1.860020161,2.97824502, 
443,537105348,-100.7608337,-79.49858093,-178.3531647,9.719878197,-1.670228601,-0.440110564,1.575757623,2.052794218,2.900894642, 
444,537122015,-100.6490021,-79.49198151,-178.4513702,9.740633965,-1.661446333,-0.433529228,1.719726563,2.075551033,2.978770256, 
445,537138682,-100.5378647,-79.48296356,-178.5469513,9.700042725,-1.653187037,-0.44447419,1.83062923,2.023364782,3.107575893, 
446,537155349,-100.4344864,-79.47144318,-178.6316528,9.702701569,-1.618162155,-0.367584318,1.974444628,1.888565302,3.240378141, 
447,537172016,-100.3386688,-79.45707703,-178.7092285,9.719333649,-1.66109848,-0.357545853,1.981705785,1.771860957,3.380466461, 
448,537188683,-100.2614822,-79.44136047,-178.7694397,9.741354942,-1.675941944,-0.395954907,1.873184681,1.571864128,3.431563616, 
449,537205350,-100.1843338,-79.42517853,-178.8283997,9.71968174,-1.656070113,-0.337878019,1.94602716,1.553525329,3.457061291, 
450,537222017,-100.0952225,-79.40929413,-178.9011078,9.716094971,-1.669232607,-0.404996008,1.864182115,1.703154922,3.460672855, 
451,537238684,-99.99829865,-79.39252472,-178.9809875,9.71400547,-1.662983298,-0.409734279,1.885722399,1.782439113,3.525984764, 
452,537255351,-99.89485168,-79.37484741,-179.0626678,9.704063416,-1.6951015,-0.378889114,2.180896044,1.788624525,3.586546898, 
453,537272018,-99.79332733,-79.3548584,-179.1398621,9.707671165,-1.642183065,-0.376229227,2.371032,1.709020257,3.702738762, 
454,537288685,-99.70657349,-79.33090973,-179.1999512,9.712400436,-1.682196498,-0.346456796,2.449214458,1.494731545,3.912890434, 
455,537305352,-99.62826538,-79.30355072,-179.2487488,9.695490837,-1.698393822,-0.338055998,2.567468405,1.355692983,4.087543964, 
456,537322019,-99.56786346,-79.27129364,-179.2776031,9.709308624,-1.648525,-0.391855389,2.71530509,1.070905566,4.342134476, 
457,537338686,-99.51579285,-79.23667145,-179.2982788,9.721168518,-1.667934418,-0.365993351,2.561090946,1.001277447,4.478227139, 
458,537355353,-99.48475647,-79.20030975,-179.3046875,9.691729546,-1.740582943,-0.311138451,2.201411724,0.808746517,4.549097061, 
459,537372020,-99.4611969,-79.16068268,-179.3064728,9.679252625,-1.719493747,-0.353649557,2.245081425,0.658131182,4.710393906, 
460,537388687,-99.44149017,-79.12043762,-179.3015289,9.704810143,-1.703978539,-0.349004388,2.203153372,0.637039125,4.754191875, 
461,537405354,-99.42963409,-79.07756805,-179.2885284,9.676052094,-1.733505368,-0.351584733,2.216164827,0.517466247,4.895868301, 
462,537422021,-99.42645264,-79.03057861,-179.2649384,9.706753731,-1.736243367,-0.356430143,2.321382046,0.356490403,5.116905689, 
463,537438688,-99.42107391,-78.98046875,-179.2444305,9.710965157,-1.738611817,-0.330327272,2.502245665,0.286618918,5.283400059, 
464,537455355,-99.43122101,-78.92649841,-179.2047424,9.679379463,-1.746758342,-0.36063081,2.578404903,0.068936586,5.481387138, 
465,537472022,-99.44517517,-78.86997986,-179.1498566,9.711892128,-1.749270916,-0.359022409,2.805218697,-0.002106645,5.657142162, 
466,537488689,-99.47369385,-78.80965424,-179.0887146,9.718515396,-1.785741806,-0.370361567,2.548604727,-0.194291562,5.839619637, 
467,537505356,-99.49926758,-78.74777222,-179.0283661,9.698659897,-1.793919802,-0.340780765,2.625788689,-0.1904881,5.940559864, 
468,537522023,-99.51822662,-78.68367004,-178.9790802,9.676811218,-1.798578978,-0.388955295,2.442337513,-0.111959517,6.076664925, 
469,537538690,-99.5254364,-78.61927795,-178.9311981,9.701385498,-1.777056575,-0.396942168,2.714267492,0.007107525,6.134792328, 
470,537555357,-99.51533508,-78.55480194,-178.9021149,9.700793266,-1.851274848,-0.383866638,2.986236334,0.113771625,6.142655849, 
471,537572024,-99.48312378,-78.49045563,-178.9001617,9.699954033,-1.871039629,-0.396631181,3.232169867,0.2745682,6.123473167, 
472,537588691,-99.43893433,-78.4260788,-178.9010773,9.698347092,-1.836164951,-0.427366823,3.303834438,0.455278695,6.192345619, 
473,537605358,-99.37995148,-78.36186218,-178.9163208,9.694410324,-1.874104857,-0.392921001,3.485159159,0.591205299,6.189194679, 
474,537622025,-99.30828857,-78.29615021,-178.9440613,9.664571762,-1.869364142,-0.381465375,3.557476044,0.715247452,6.297049046, 
475,537638692,-99.23273468,-78.23154449,-178.9703217,9.709854126,-1.871379256,-0.385207891,3.571755171,0.814086914,6.261332035, 
476,537655359,-99.13858032,-78.16625977,-179.0227509,9.703913689,-1.882562518,-0.395132452,3.294280052,1.081662774,6.343433857, 
477,537672026,-99.01776886,-78.10015869,-179.1065826,9.697069168,-1.918470502,-0.357476205,3.356467724,1.366770625,6.417377949, 
478,537688693,-98.87302399,-78.03145599,-179.2054443,9.694648743,-1.875680566,-0.409541368,3.659709692,1.625830293,6.620281696, 
479,537705360,-98.73252106,-77.95980072,-179.2949524,9.683763504,-1.937914371,-0.397218525,3.957188368,1.497574687,6.78305006, 
480,537722027,-98.58052063,-77.88062286,-179.3981781,9.6879673,-1.902467251,-0.280284107,3.845286369,1.617365479,7.25415802, 
481,537738694,-98.47599792,-77.79444885,-179.4554291,9.62046814,-1.934206486,-0.386491507,3.869644165,0.939896584,7.562458038, 
482,537755361,-98.40118408,-77.70124054,-179.476944,9.64081192,-1.943937778,-0.284998953,4.048945904,0.484682024,7.930230618, 
483,537772028,-98.36418152,-77.60038757,-179.4603271,9.61538887,-1.984581232,-0.310029477,3.974259138,-0.044341993,8.312653542, 
484,537788695,-98.3675766,-77.49528503,-179.4021912,9.630321503,-2.012295723,-0.334307909,3.980752468,-0.617836118,8.490560532, 
485,537805362,-98.41483307,-77.38269806,-179.3001556,9.616584778,-2.022763968,-0.254082292,3.940835238,-1.265607119,8.842352867, 
486,537822029,-98.51042938,-77.26706696,-179.1480713,9.607601166,-2.047274351,-0.276920706,3.961248398,-1.965436101,8.923069954, 
487,537838696,-98.65428925,-77.14836884,-178.9443359,9.614430428,-2.086952925,-0.25411585,4.031222343,-2.686062336,8.999472618, 
488,537855363,-98.83874512,-77.02236938,-178.6953735,9.596879959,-2.064260006,-0.311603665,4.274300098,-3.412336111,9.31744194, 
489,537872030,-99.06917572,-76.88897705,-178.3959045,9.574007988,-2.059351683,-0.371869951,4.399021149,-4.197711945,9.638650894, 
490,537888697,-99.3332901,-76.74942017,-178.0580139,9.613099098,-2.134254694,-0.307575375,4.697371006,-4.874131203,9.874289513, 
491,537905364,-99.61480713,-76.61103058,-177.6989594,9.633895874,-2.182590008,-0.332144469,4.833554745,-5.222950459,9.72606945, 
492,537922031,-99.92079926,-76.47302246,-177.3302155,9.621707916,-2.177433729,-0.317706734,3.924968719,-5.444014072,9.639753342, 
493,537938698,-100.2401962,-76.33396912,-176.963089,9.579848289,-2.18119669,-0.442345262,3.02205658,-5.528728008,9.656722069, 
494,537955365,-100.5692673,-76.19159698,-176.5898285,9.566902161,-2.221434116,-0.470560968,2.808638573,-5.752915382,9.788870811, 
495,537972032,-100.8908463,-76.04910278,-176.2173004,9.562213898,-2.239707947,-0.476519167,3.175527811,-5.830919266,9.752142906, 
496,537988699,-101.2134399,-75.90757751,-175.8491669,9.577814102,-2.287084579,-0.479778767,2.847070694,-5.852536678,9.659015656, 
497,538005366,-101.5239258,-75.76724243,-175.499588,9.596146584,-2.29576993,-0.502034843,2.476467133,-5.663348198,9.593266487, 
498,538022033,-101.8170166,-75.62794495,-175.173233,9.615673065,-2.300068855,-0.573350012,2.16691184,-5.402084827,9.551221848, 
499,538038700,-102.0760727,-75.4885788,-174.875824,9.617296219,-2.310689926,-0.611088037,2.50807333,-5.059323311,9.609541893, 
500,538055367,-102.3085709,-75.345047,-174.5997009,9.589738846,-2.307416677,-0.689052105,2.854677677,-4.869315147,9.882766724, 
501,538072034,-102.5202942,-75.19425964,-174.3367767,9.542408943,-2.346561909,-0.677329779,3.322788477,-4.83315134,10.32115364, 
502,538088701,-102.7004089,-75.04183197,-174.0948792,9.593058586,-2.396272659,-0.566477239,3.99130559,-4.603391647,10.45622349, 
503,538105368,-102.8493805,-74.89105225,-173.8833466,9.62852478,-2.434797287,-0.642959476,4.08530426,-4.180717945,10.441329, 
504,538122035,-102.9508438,-74.7410202,-173.7173157,9.589733124,-2.441327333,-0.688063979,4.29731369,-3.524725676,10.53877258, 
505,538138702,-103.0070038,-74.58854675,-173.5892944,9.5569067,-2.453199387,-0.774584651,4.806034088,-3.004390717,10.8026371, 
506,538155369,-103.0214157,-74.43348694,-173.4897766,9.460468292,-2.452968359,-0.770836532,5.656298637,-2.618624449,11.05433083, 
507,538172036,-103.0010452,-74.27464294,-173.3975677,9.503872871,-2.545044661,-0.649902821,7.318039894,-2.566156864,11.29349041, 
508,538188703,-102.9496078,-74.1193924,-173.3167267,9.577933311,-2.632186413,-0.631168842,8.526870728,-2.346451521,11.12187481, 
509,538205370,-102.8765717,-73.9666214,-173.2607422,9.550075531,-2.542210579,-0.639653027,8.377049446,-1.916439652,11.07082844, 
510,538222037,-102.7905197,-73.80937195,-173.2220917,9.392077446,-2.545382738,-0.735051394,8.157214165,-1.691995263,11.39660835, 
511,538238704,-102.7035675,-73.65027618,-173.1621399,9.3904953,-2.720712662,-0.668539405,9.437915802,-2.057155848,11.43036652, 
512,538255371,-102.6090698,-73.49378204,-173.0805359,9.446998596,-2.737452507,-0.645150065,11.14140606,-2.375266314,11.1911211, 
513,538272038,-102.5015793,-73.34423828,-173.0166168,9.48525238,-2.664505482,-0.628833592,10.89042568,-1.986042261,10.85561752, 
514,538288705,-102.3750992,-73.20207214,-172.9718018,9.489775658,-2.768024445,-0.736811221,10.92816544,-1.56176734,10.50041962, 
515,538305372,-102.1925354,-73.06873322,-172.9563751,9.585611343,-2.820841074,-0.752089858,12.61077023,-0.930106759,10.08959484, 
516,538322039,-101.9717865,-72.95283508,-172.980423,9.59687233,-2.835536242,-0.66866976,12.63087559,-0.009188564,9.218762398, 
517,538338706,-101.7327499,-72.85179901,-173.0278015,9.549593925,-2.865496397,-0.58231616,12.39327717,0.607392788,8.433397293, 
518,538355373,-101.5178223,-72.76104736,-173.085556,9.54140377,-2.725568533,-0.417067587,10.34980297,0.940486133,7.866894245, 
519,538372040,-101.3207397,-72.67521667,-173.1541443,9.472325325,-2.793132305,-0.575365484,8.662423134,1.208779097,7.616016388, 
520,538388707,-101.1437225,-72.59369659,-173.2127228,9.480316162,-2.788935423,-0.564535022,8.031915665,1.105265141,7.328205585, 
521,538405374,-100.9811096,-72.51130676,-173.2658691,9.451755524,-2.755296707,-0.563354075,7.482036114,1.018066764,7.360824108, 
522,538422041,-100.8526077,-72.42251587,-173.3047485,9.368709564,-2.78975749,-0.54404676,6.249769688,0.708421886,7.688716888, 
523,538438708,-100.748558,-72.3319397,-173.3346405,9.320097923,-2.853134632,-0.564531922,5.299307823,0.540658653,7.763646603, 
524,538455375,-100.6717377,-72.24121857,-173.3452301,9.284516335,-2.953930616,-0.519871533,4.765320778,0.204146057,7.709219933, 
525,538472042,-100.6229706,-72.15697479,-173.3352814,9.361784935,-2.954408884,-0.551650167,4.255461693,-0.09035521,7.258742809, 
526,538488709,-100.591423,-72.07728577,-173.3192291,9.445267677,-2.889052391,-0.524733841,3.577185869,-0.147087365,6.961136818, 
527,538505376,-100.5668793,-72.00094604,-173.3111572,9.536455154,-2.850600481,-0.557017922,2.694750547,0.033655088,6.796458244, 
528,538522043,-100.5689392,-71.92205048,-173.2950897,9.590021133,-2.795164585,-0.500424206,1.553013563,-0.142284974,6.921845913, 
529,538538710,-100.5824203,-71.8441925,-173.2837067,9.535831451,-2.895032406,-0.562375307,0.60285902,-0.048388802,6.876998425, 
530,538555377,-100.6227188,-71.77152252,-173.2554474,9.431945801,-3.000947475,-0.519691408,-0.045584209,-0.305681229,6.512042999, 
531,538572044,-100.70784,-71.70593262,-173.1888123,9.389065742,-3.033005714,-0.47211951,-0.5505898,-0.944782078,5.958321095, 
532,538588711,-100.8338776,-71.6436615,-173.0968323,9.403800964,-2.934258223,-0.439593732,-1.563828468,-1.390942693,5.668180943, 
533,538605378,-101.014473,-71.57914734,-172.9785156,9.382673264,-2.860341787,-0.521124184,-3.338660717,-1.923635721,5.697763443, 
534,538622045,-101.244278,-71.51216888,-172.826828,9.377988815,-2.992263317,-0.522842705,-4.395863533,-2.596673489,5.710749626, 
535,538638712,-101.5272598,-71.44309998,-172.6336823,9.296812057,-3.015867472,-0.503378451,-5.232758045,-3.423157215,5.659139156, 
536,538655379,-101.8626022,-71.37041473,-172.4130249,9.31423378,-2.975181103,-0.559506297,-6.812077999,-4.017462254,5.737169743, 
537,538672046,-102.2275848,-71.29312897,-172.1953583,9.278642654,-2.965863228,-0.593728185,-8.764509201,-4.057200432,5.98201561, 
538,538688713,-102.6272583,-71.20970917,-171.958252,9.297483444,-3.015383005,-0.648502171,-9.752008438,-4.5470438,6.229203224, 
539,538705380,-103.0658646,-71.12028503,-171.7059326,9.403311729,-2.924460649,-0.613635659,-11.23189926,-4.964006901,6.468901157, 
540,538722047,-103.5611343,-71.02056122,-171.4277649,9.372437477,-2.98661375,-0.658696294,-13.16930008,-5.654975414,6.89867115, 
541,538738714,-104.1107407,-70.90725708,-171.100296,9.308303833,-3.033088684,-0.627843857,-13.64357185,-6.85943985,7.393407345, 
542,538755381,-104.735321,-70.78224182,-170.6916046,9.343899727,-3.142701387,-0.570831239,-13.55191612,-8.676252365,7.584580421, 
543,538772048,-105.4263611,-70.63941193,-170.207077,9.396731377,-3.005354166,-0.631533265,-13.26431465,-10.52227879,8.100269318, 
544,538788715,-106.1972122,-70.46948242,-169.6604156,9.392455101,-2.914281845,-0.662653804,-14.56145096,-12.30912971,9.15920639, 
545,538805382,-107.0379181,-70.27417755,-169.0531921,9.326575279,-3.015313148,-0.759869933,-15.36855221,-14.10808372,10.05772972, 
546,538822049,-107.9371567,-70.05662537,-168.3789063,9.336950302,-3.191069841,-0.705920279,-15.13382626,-16.04708862,10.65061569, 
547,538838716,-108.907692,-69.81776428,-167.641449,9.261884689,-3.085119724,-0.799522758,-15.90587807,-17.96915436,11.12647915, 
548,538855383,-109.9494324,-69.55622864,-166.8606873,9.287470818,-3.01418376,-1.002773285,-17.81306267,-19.60017014,11.71911144, 
549,538872050,-111.0308609,-69.26163483,-166.0563202,9.31354332,-3.012238741,-1.005149603,-18.94087791,-21.13421822,12.94336987, 
550,538888717,-112.1749725,-68.93202209,-165.1751099,9.35209465,-3.255762339,-0.876928687,-18.48878288,-23.87222099,13.77225685, 
551,538905384,-113.4127579,-68.56621552,-164.2070923,9.366042137,-3.124589682,-1.048455477,-19.37101555,-26.96909523,14.41024303, 
552,538922051,-114.8016739,-68.14902496,-163.1587219,9.436869621,-2.911031008,-0.777371645,-24.09744263,-30.46347809,15.70367908, 
553,538938718,-116.2806015,-67.64926147,-162.0692596,9.280612946,-2.919384003,-0.865719199,-27.39936066,-34.19569397,18.78800011, 
554,538955385,-117.9119186,-67.07167816,-160.8326263,9.318799019,-3.320777893,-1.27402854,-28.62385559,-40.29738235,20.17916679, 
555,538972052,-119.671814,-66.41601563,-159.4939117,9.64017868,-3.209870577,-0.89056617,-31.02057076,-45.83521271,21.53917503, 
556,538988719,-121.5703049,-65.66265869,-158.0995026,9.767348289,-3.12087512,-1.032583594,-36.67388153,-51.37348175,23.93078804, 
557,539005386,-123.6406326,-64.80815887,-156.6242828,9.992453575,-3.118147373,-1.394146562,-43.06170654,-57.98705673,25.55321503, 
558,539022053,-125.8669891,-63.83972168,-155.0414734,10.70508194,-3.185132027,-1.565242171,-47.20035934,-66.07271576,26.63121223, 
559,539038720,-128.2059784,-62.74034119,-153.3537598,11.75393963,-2.846184969,-1.232676864,-49.08760834,-75.22268677,27.59360123, 
560,539055387,-130.5591431,-61.48132706,-151.650177,12.85033035,-2.376410007,-1.39119637,-50.04275513,-84.07350922,30.41731834, 
561,539072054,-132.9091644,-60.03841019,-149.9617157,13.87065792,-1.56669414,-1.915278196,-51.79392624,-93.7817688,34.05419159, 
562,539088721,-135.2211609,-58.4019165,-148.3500824,14.77159595,-0.458689779,-2.020891428,-54.82432556,-103.1047516,38.56472778, 
563,539105388,-137.4994659,-56.5538826,-146.8476868,15.67682362,0.771226943,-1.336169124,-59.86205292,-112.9948425,43.92869186, 
564,539122055,-139.4577789,-54.44485092,-145.4813995,15.84245968,0.464006841,-0.123991787,-49.09724045,-124.8878784,51.66550064, 
565,539138722,-140.8856812,-52.10456848,-144.3240662,14.55328465,0.161389932,0.115837783,-29.16259003,-133.8798065,60.65077591, 
566,539155389,-141.9715576,-49.6207695,-143.1683197,13.43110275,-0.773941934,-0.928290844,-10.49805641,-143.3369446,61.34926605, 
567,539172056,-142.8115845,-47.04798889,-142.0004578,12.00370598,-5.1704669,-2.752146244,2.829721928,-150.3182373,59.98910141, 
568,539188723,-143.3115082,-44.43492126,-141.0162048,11.30948353,-9.57914257,-5.065363884,13.18841457,-149.7403412,63.95786667, 
569,539205390,-143.3576965,-42.08005524,-140.0556335,10.34935284,-9.329092026,-3.810550928,37.60229111,-138.0973663,53.33177948, 
570,539222057,-143.1979675,-40.03890991,-138.9946136,9.149206161,-4.613285065,-2.425376177,52.26774216,-126.6119003,37.33190536, 
571,539238724,-143.6522369,-38.74625397,-138.0844574,8.349543571,0.542759418,2.772092342,8.269828796,-87.22749329,14.90193653, 
572,539255391,-145.0493927,-38.10839462,-137.3306885,7.582677841,0.794462383,3.580368042,-54.84283829,-51.63254547,-3.888041258, 
573,539272058,-146.4602051,-38.26319122,-136.6637573,6.176738739,-0.519872129,4.544076443,-59.02821732,-10.00047398,-28.62443542, 
574,539288725,-147.5392151,-38.96936798,-135.8901825,4.921323776,-1.081820369,1.765012383,-34.8895874,15.71215534,-50.90903473, 
575,539305392,-148.4196472,-40.196064,-134.8579254,4.706263542,-1.156258821,0.730527997,-12.46452236,36.96778107,-76.92577362, 
576,539322059,-149.0438385,-41.88798141,-133.6790619,5.265802383,-1.751741529,0.500579119,9.902639389,58.91456223,-95.72034454, 
577,539338726,-149.3653564,-44.01683044,-132.4685364,6.375805855,-2.34462285,0.547628164,31.13231277,82.2999115,-108.4956589, 
578,539355393,-149.3856506,-46.6136322,-131.2134552,7.005723476,-2.879469633,1.037709713,53.28063965,106.8518295,-122.376709, 
579,539372060,-149.1199036,-49.64225769,-129.9709625,7.358337879,-3.449563026,1.228237748,72.43135834,130.4378662,-133.1010132, 
580,539388727,-148.593277,-53.07141876,-128.8244629,8.101226807,-4.25298214,0.915025115,86.3285141,153.5385284,-140.6088104, 
581,539405394,-147.8087311,-56.86470032,-127.8826141,9.026194572,-4.375542641,0.598888993,94.37639618,175.9614563,-144.9313354, 
582,539422061,-146.7548218,-60.96225357,-127.3017654,10.48301601,-4.299417019,0.158028066,94.13921356,196.7071686,-145.4497986, 
583,539438728,-145.2570496,-65.31854248,-127.3030319,11.81849098,-4.535018921,-0.294860303,90.86850739,216.2857971,-143.5100708, 
584,539455395,-142.9339294,-69.87757874,-128.1999664,12.81561184,-5.013504028,-0.769729376,90.70020294,233.1329956,-141.174057, 
585,539472062,-138.9569397,-74.57215118,-130.7373962,13.9550457,-5.846311092,-1.207939148,94.64745331,247.5050201,-138.6835327, 
586,539488729,-131.1045532,-79.30400848,-137.0244446,15.0851965,-6.597774506,-1.162820816,104.5032578,260.3536377,-137.3827667, 
587,539505396,-111.3216476,-83.61843872,-155.1111145,16.31167793,-7.343198776,-1.640605688,114.0278549,269.344635,-132.7939453, 
588,539522063,-59.02056503,-85.45576477,154.3380737,16.90452766,-7.160725117,-3.963192463,117.9257736,269.7975769,-120.1885757, 
589,539538730,-16.02293968,-83.07281494,112.3695755,15.86405659,-5.093126297,-5.508213043,73.98839569,255.5097046,-111.194191, 
590,539555397,-1.854685426,-79.33827972,98.59779358,14.32792377,-7.895215988,-8.055892944,34.18084717,239.1512299,-87.25643158, 
591,539572064,3.805376768,-75.86867523,93.08050537,11.98990059,-9.374899864,-10.58292103,17.27994156,206.6305695,-71.92848969, 
592,539588731,6.642629147,-73.16426086,90.75232697,9.441840172,-11.99892139,-13.26313591,36.66733551,158.2555084,-49.34216309, 
593,539605398,7.734297752,-71.73654938,90.46204376,5.344411373,-10.1102457,-14.28227901,49.92961121,84.60797119,-13.48335743, 
594,539622065,7.021176338,-71.78303528,91.81197357,5.204240322,-8.407096863,-12.25705719,35.11127853,0.938955426,27.83373451, 
595,539638732,5.183094978,-72.94251251,94.55406189,5.941047192,-8.430150032,-13.36906815,47.4320755,-63.25645065,59.19260025, 
596,539655399,3.933051825,-74.98271942,97.03770447,11.31171703,3.555723906,-7.400938988,69.07764435,-117.9668884,52.90009308, 
597,539672066,3.756752729,-75.70821381,99.27386475,19.35635567,17.30852509,18.97714806,119.9716187,-40.28215027,38.9359169, 
598,539688733,0.98001039,-77.11975098,101.8834457,11.84703255,5.813467503,-1.444970131,-13.61504936,-82.35781097,42.57164383, 
599,539705400,-5.214265823,-78.82897186,107.707489,12.09243298,-7.478596687,-13.39705181,-29.10113525,-104.2755127,71.3194809, 
600,539722067,-16.52636337,-79.93540192,119.0159683,17.02895737,-11.77396297,0.782860875,-11.09028435,-87.48331451,112.420784, 
601,539738734,-26.79256058,-80.93495178,130.0662384,12.00827885,-3.146927595,0.57384634,38.5788269,-95.11174774,82.39363098, 
602,539755401,-34.53981781,-81.63783264,138.3533325,6.820130825,-3.353709221,1.462426066,27.35596275,-73.57789612,45.45488358, 
603,539772068,-41.68259048,-82.13713074,145.762085,6.024320602,-1.43351233,1.013759255,12.21622944,-61.23243332,33.01356506, 
604,539788735,-48.55593872,-82.37504578,152.4732208,9.736370087,1.058784366,-1.360981226,-12.69484711,-47.50035477,30.30541992, 
605,539805402,-54.44608307,-82.17416382,158.140686,11.87753582,0.447603732,-2.204283237,-15.76250267,-27.26386452,40.02453995, 
606,539822069,-60.17486954,-81.79250336,163.7891998,11.14581013,-1.328129768,-0.628568828,-7.460820675,-26.37380791,46.93909454, 
607,539838736,-65.93310547,-81.45188141,169.9361877,10.24530792,-2.701745987,0.213340372,20.0442543,-37.57261276,44.71722031, 
608,539855403,-71.08715057,-81.18842316,175.6082153,9.524079323,-1.639722109,1.44845891,27.84856415,-40.9258194,35.65730286, 
609,539872070,-76.35819244,-80.90428925,-179.002533,9.164189339,-0.855752468,2.012331009,3.820749283,-42.46482086,32.61727142, 
610,539888737,-81.4422226,-80.55427551,-174.1832581,9.834521294,-1.408122897,0.907985747,-18.97595215,-40.62855911,31.7252388, 
611,539905404,-86.00279999,-80.18739319,-169.937088,10.22179604,-2.004688025,-0.248970807,-21.7726841,-38.92095184,28.70634651, 
612,539922071,-90.15815735,-79.81852722,-165.9711151,10.2978754,-1.922866464,-0.810965061,-14.2847271,-39.51055908,25.66314507, 
613,539938738,-93.8237381,-79.44322205,-162.425705,9.984161377,-1.810284972,-0.74469161,-10.00413227,-38.00305176,23.34531593, 
614,539955405,-96.90823364,-79.07632446,-159.5096741,9.618140221,-1.724399686,-0.719971716,-12.49687576,-33.47276688,21.04787445, 
615,539972072,-99.46738434,-78.73306274,-157.172699,9.626068115,-1.770676732,-0.817995191,-15.27169228,-28.58855438,18.72469139, 
616,539988739,-101.6435699,-78.40932465,-155.2128754,9.679546356,-2.014061451,-0.887762547,-14.63910675,-25.40758896,17.01481628, 
617,540005406,-103.5630417,-78.10297394,-153.436203,9.584529877,-2.195236444,-0.87700057,-10.13032246,-24.12487984,15.39749527, 
618,540022073,-105.1976013,-77.80802917,-151.8371429,9.595208168,-2.10739851,-1.011882782,-3.566609621,-22.72315216,14.35978317, 
619,540038740,-106.5744095,-77.51692963,-150.4546204,9.756797791,-1.806332231,-0.95957315,-0.902510285,-20.75906754,14.1405592, 
620,540055407,-107.6268692,-77.26247406,-149.4667664,10.16128349,-1.131150246,-0.499362588,-4.636066437,-15.78679085,12.98496914, 
621,540072074,-108.5177307,-77.39794922,-150.2014008,8.630111694,2.050167799,2.151546001,-95.78570557,12.77468872,-2.513949871, 
622,540088741,-109.7122498,-77.17787933,-148.6907959,11.15572643,-8.635838509,-6.907679081,17.42503738,-22.14331627,8.192144394, 
623,540105408,-110.133812,-76.83205414,-147.8330231,9.282348633,-2.634805202,0.35337919,25.5124836,-16.85790825,17.76058769, 
624,540122075,-110.8923111,-76.70120239,-147.084137,9.738512039,0.024048101,0.106003918,-1.099829078,-11.31271935,5.938115597, 
625,540138742,-111.292923,-76.56573486,-146.7874451,10.07148647,-1.796070814,-0.778448999,-6.041955471,-5.708861828,8.309877396, 
626,540155409,-111.9538193,-76.39328766,-146.3490753,9.820260048,-2.200265884,-0.54350394,-13.40476036,-8.482827187,9.565662384, 
627,540172076,-112.8746033,-76.20230103,-145.6396332,9.492594719,-2.312868357,-0.485237062,-13.21159458,-12.65500546,8.963370323, 
628,540188743,-114.14608,-75.96730804,-144.5839386,9.238949776,-2.061935186,-0.297135502,-14.11098099,-18.56697273,9.059167862, 
629,540205410,-115.8266754,-75.65492249,-143.1524811,9.197413445,-2.024659634,-0.273612022,-16.86978531,-25.98877144,10.30515385, 
630,540222077,-117.8505325,-75.24894714,-141.3978729,9.232819557,-1.991307735,-0.338723361,-18.82318115,-33.59638596,12.00508595, 
631,540238744,-120.1182251,-74.74958801,-139.4024811,9.333932877,-2.088596344,-0.717360198,-19.70093727,-40.64203262,13.40009403, 
632,540255411,-122.4718246,-74.17089081,-137.2872925,9.527083397,-2.059443951,-1.00954926,-18.22452164,-46.11844254,14.21943188, 
633,540272078,-124.83638,-73.52599335,-135.1546936,9.668109894,-2.141286135,-1.219420314,-18.24297523,-50.11221313,14.6937027, 
634,540288745,-127.1505051,-72.82784271,-133.0699615,9.698770523,-2.125989914,-1.478317022,-18.37851524,-52.95333099,14.824193, 
635,540305412,-129.4514618,-72.08625793,-131.0362854,9.723972321,-1.885721684,-1.948848605,-20.97669983,-55.49745941,14.33793354, 
636,540322079,-131.6859894,-71.30695343,-129.0695496,9.643529892,-2.022771597,-2.147228479,-21.29887581,-57.62212753,13.63489246, 
637,540338746,-133.8753357,-70.49581146,-127.1383438,9.627913475,-2.207998753,-2.160444021,-21.12074089,-59.94956207,12.19169617, 
638,540355413,-135.9606476,-69.67133331,-125.2754211,9.797798157,-2.257822752,-2.369175911,-19.2800312,-60.9642334,10.36462593, 
639,540372080,-138.0072937,-68.8398819,-123.4198837,10.02470207,-2.066012144,-2.773085833,-17.93330383,-62.45861816,7.426451206, 
640,540388747,-140.0166473,-67.99733734,-121.5851517,10.26497746,-2.070826292,-2.756083727,-17.43806648,-63.8008461,4.819642067, 
641,540405414,-142.0278931,-67.12389374,-119.7204971,10.81128502,-2.130865812,-2.64286375,-16.51234055,-66.69509125,1.997542262, 
642,540422081,-143.9981689,-66.20613098,-117.8924713,11.50064659,-2.149503946,-2.173107862,-16.74305725,-69.22734833,0.658860087, 
643,540438748,-145.8973541,-65.22360229,-116.177803,11.8143549,-1.510659218,-2.29001689,-19.40178871,-71.68353271,1.451397538, 
644,540455415,-147.7466583,-64.16952515,-114.5882111,12.46668625,-0.726373136,-2.380666256,-23.94984436,-74.38355255,2.724584103, 
645,540472082,-149.4758759,-63.0475769,-113.1333542,13.40726566,-0.596468985,-2.130564451,-24.76498985,-76.83864594,4.179851532, 
646,540488749,-150.8103333,-61.91487885,-111.8448334,14.24317074,-0.344326705,-1.910325408,-10.69766808,-75.91630554,5.102706909, 
647,540505416,-151.5458832,-60.78980637,-110.819252,12.51783848,-0.24372372,-2.733473778,10.68457985,-72.5901947,8.953243256, 
648,540522083,-152.2397614,-59.58304596,-110.0183411,10.17043591,-0.470389634,-4.109272957,0.889790535,-74.36782074,15.29825115, 
649,540538750,-152.9388428,-58.37430191,-109.3900681,8.581561089,-2.816949368,-4.185036182,-8.804253578,-72.57371521,18.40736771, 
650,540555417,-153.6335297,-57.18688202,-108.9153671,7.869383812,-5.642741203,-5.702718258,-16.7509613,-69.7179184,20.72148705, 
651,540572084,-154.4183197,-56.25983047,-108.5181808,8.134925842,-4.558033466,-5.549280167,-26.33930969,-54.97480011,14.84352589, 
652,540588751,-156.024231,-55.91392136,-108.1642685,8.149892807,1.498453856,-0.374272764,-77.90457153,-23.04595184,0.161722332, 
653,540605418,-159.1034088,-56.07213211,-107.8003845,5.84613657,2.505902052,-1.51730907,-165.8188629,4.850007057,-12.6813097, 
654,540622085,-162.6753387,-56.7868042,-107.2638474,6.720738411,2.393369198,-3.378344297,-186.6459656,35.41824341,-28.62399292, 
655,540638752,-166.1011353,-57.79306412,-106.6225204,7.393941402,2.605038166,-5.010264874,-172.3214111,53.2787323,-34.02550125, 
656,540655419,-169.1782837,-58.94223022,-105.5648346,8.403598785,-1.2196455,-5.303079128,-129.7498169,60.95529175,-45.00076294, 
657,540672086,-171.1280518,-60.11714554,-104.3015366,8.1845541,-3.076458693,-5.330200195,-50.81748581,63.60794067,-47.66019821, 
658,540688753,-171.9701538,-61.21816635,-102.8180313,7.740725517,-2.458757401,-5.382796764,27.90818214,59.66818619,-50.58874512, 
659,540705420,-172.1270294,-62.27824783,-101.1627274,8.067059517,-0.835892737,-5.111703873,78.8989563,57.22793198,-53.11717224, 
660,540722087,-172.0887909,-63.30919647,-99.39208221,8.425102234,-0.271047354,-4.912975788,97.59962463,55.34998322,-54.36336136, 
661,540738754,-172.1632996,-64.28736115,-97.49822998,8.42404747,-0.333556086,-4.36342907,98.305336,52.01796341,-55.49767685, 
662,540755421,-172.608963,-65.18885803,-95.51889038,8.784487724,-0.84966594,-3.631798029,81.47958374,47.65679169,-55.15867615, 
663,540772088,-173.2623138,-66.03851318,-93.67990875,8.917527199,-2.44092679,-3.33916831,62.11051178,45.74979019,-49.24171829, 
664,540788755,-174.0995636,-66.80721283,-91.99044037,8.872873306,-2.842110634,-3.534661055,43.49176788,42.14101791,-43.1491127, 
665,540805422,-175.1191559,-67.4910965,-90.55371857,8.941710472,-2.176999331,-3.547119856,19.08380318,38.46881866,-34.96989822, 
666,540822089,-176.2364807,-68.07471466,-89.44259644,8.73108387,-1.783065557,-3.614666939,-4.497099876,33.78483963,-25.57386017, 
667,540838756,-177.3883057,-68.5585556,-88.59212494,8.575992584,-1.678467631,-3.814314365,-20.87358856,28.70251846,-18.2450943, 
668,540855423,-178.4446411,-68.94061279,-87.93755341,8.363023758,-1.649443746,-3.957827806,-25.95353127,23.1646347,-12.87303829, 
669,540872090,-179.2841492,-69.22885132,-87.39631653,8.34181118,-1.611852765,-3.936172485,-19.21967506,17.83638763,-9.752374649, 
670,540888757,-179.8022461,-69.43959045,-86.92087555,8.387332916,-1.592405558,-3.859874249,-3.579064369,13.34535694,-7.992304325, 
671,540905424,-179.9373169,-69.58963013,-86.53455353,8.506181717,-1.422861934,-3.74072051,14.42109299,9.766748428,-5.963865757, 
672,540922091,-179.742981,-69.71395111,-86.22741699,8.668903351,-1.158046365,-3.387054205,29.74728012,8.228452682,-4.262217522, 
673,540938758,-179.2975464,-69.84220123,-85.9944458,8.704913139,-0.966867924,-3.070698261,40.65117645,8.441868782,-2.73472929, 
674,540955425,-178.6853638,-69.98983765,-85.82115173,8.704497337,-0.871106267,-2.618828297,47.3057518,9.580342293,-1.567580462, 
675,540972092,-177.9702759,-70.17323303,-85.68869019,8.837520599,-0.90769726,-2.24821496,51.18967819,11.70658875,-0.872626722, 
676,540988759,-177.2072449,-70.40119171,-85.58033752,9.225371361,-0.961105168,-2.021363497,52.72059631,14.35558224,-0.616945982, 
677,541005426,-176.4159546,-70.71083069,-85.51344299,9.499294281,-0.80023402,-1.882066607,52.08312607,19.25434875,-0.220444471, 
678,541022093,-175.62677,-71.10559082,-85.50313568,9.506489754,-0.692321479,-1.744608164,48.76187515,24.38498878,0.297565073, 
679,541038760,-174.8009491,-71.58401489,-85.58000183,9.51071167,-0.829300821,-1.819511414,46.01261139,29.49282265,1.215104818, 
680,541055427,-173.9389648,-72.13266754,-85.73175812,9.659067154,-0.925445318,-1.886866808,43.90264893,33.80067825,1.730323076, 
681,541072094,-173.023941,-72.76058197,-85.94685364,9.80443573,-0.686074913,-1.88764286,43.43899155,38.62749863,1.726444721, 
682,541088761,-172.084549,-73.44497681,-86.22453308,9.788377762,-0.579793513,-1.818913937,41.26836014,42.09795761,1.616181016, 
683,541105428,-171.0605316,-74.18221283,-86.60592651,9.83966732,-0.594542086,-1.905750632,40.31567001,45.43798447,1.962265611, 
684,541122095,-169.9633331,-74.9591217,-87.08177948,9.753148079,-0.375486106,-1.953238606,39.16445541,47.97705078,1.944106817, 
685,541138762,-168.7946625,-75.77774811,-87.64059448,9.676477432,-0.066187076,-1.988007307,38.52962875,50.5768013,1.410665154, 
686,541155429,-167.5199432,-76.62992096,-88.28623962,9.774422646,-0.085157134,-2.121858835,39.7215004,52.68034363,0.688415945, 
687,541172096,-166.1241913,-77.48688507,-89.03449249,9.796467781,-0.255850613,-2.341833115,40.84721756,53.09949112,0.21198687, 
688,541188763,-164.5399933,-78.31955719,-89.93907166,9.825253487,-0.510783017,-2.342459917,42.83057022,51.95349884,0.501952827, 
689,541205430,-162.7442474,-79.10709381,-91.0562439,9.855476379,-0.5215289,-2.087091684,42.86836243,49.78072739,1.429364085, 
690,541222097,-160.6769714,-79.83242798,-92.46565247,9.95497036,-0.60758847,-1.860221148,41.73975372,46.91598511,3.171434164, 
691,541238764,-158.3278961,-80.48867798,-94.19042969,10.41282558,-0.779580295,-1.783744097,39.83184433,43.8217926,4.933270931, 
692,541255431,-155.6287842,-81.1257782,-96.28722382,10.7059021,-0.272026181,-2.146726608,38.60079956,43.78674316,5.707385063, 
693,541272098,-152.6569977,-81.74203491,-98.75934601,10.35343266,0.142531291,-2.127059937,32.47776794,43.65428543,5.91738987, 
694,541288765,-149.3140411,-82.33763885,-101.6762161,10.17104244,0.145631433,-2.167992115,28.10010338,43.75852585,6.025791645, 
695,541305432,-145.7202148,-82.89427948,-104.8788376,10.0210228,0.054867525,-2.325656652,25.88732338,42.18158722,5.074022293, 
696,541322099,-141.8694305,-83.3820343,-108.3373337,10.15921307,-0.093163446,-2.239177942,25.86135483,39.01816177,4.893536568, 
697,541338766,-137.7488556,-83.79281616,-112.0494308,10.34722042,-0.161699638,-2.064479351,26.72165871,35.64022064,5.279826164, 
698,541355433,-133.3854065,-84.13986969,-115.9893188,10.49183655,0.010854336,-2.074764729,27.53316307,33.03022003,5.352333546, 
699,541372100,-128.6274414,-84.46019745,-120.3564758,10.28244019,0.492321074,-2.173160315,25.55425835,33.02262878,4.761315346, 
700,541388767,-123.4880981,-84.75540161,-125.2172318,10.03382015,0.558314085,-2.203653812,18.80875587,33.35948944,4.005936146, 
701,541405434,-117.992981,-85.03075409,-130.5264587,9.784414291,0.298720598,-2.331445217,13.20956612,33.59540939,2.498940229, 
702,541422101,-112.1793518,-85.28923798,-136.2009888,9.718025208,0.255624592,-2.336467028,10.33393669,33.37891006,0.347757906, 
703,541438768,-106.1488571,-85.53082275,-142.1402588,9.621377945,0.27053839,-2.287524462,7.401906967,32.49404907,-2.123205185, 
704,541455435,-99.89629364,-85.74494934,-148.3841095,9.43834877,0.210034952,-2.188407183,2.378710985,31.46216393,-3.879908562, 
705,541472102,-93.32991791,-85.9209137,-155.0600433,9.381583214,-5.37778E-05,-2.05834198,-4.76809597,30.94241714,-4.912116528, 
706,541488769,-86.63619232,-86.03040314,-162.0106201,9.308821678,-0.508840799,-2.042114973,-13.64365196,30.08806229,-4.352594852, 
707,541505436,-80.13765717,-86.06757355,-168.8679962,9.241511345,-0.937491477,-1.996157169,-19.81237221,28.73349953,-3.269750834, 
708,541522103,-74.30307007,-86.04051971,-175.137146,9.138269424,-0.975946903,-1.890759587,-24.45635223,26.44482231,-1.933837891, 
709,541538770,-69.52272034,-85.95548248,179.5169373,9.066690445,-1.085800529,-1.817194223,-32.44013596,23.71591949,0.099557132, 
710,541555437,-66.14787292,-85.82453918,175.4549103,9.034500122,-1.6959337,-1.97061491,-39.89066315,20.0036869,2.880488634, 
711,541572104,-64.38530731,-85.66894531,172.9102173,8.911365509,-1.941409826,-1.958215356,-45.81511307,15.06999683,5.947523117, 
712,541588771,-63.95298767,-85.51096344,171.6111145,8.929607391,-1.667114258,-1.605205178,-51.07909393,10.40450573,8.105051994, 
713,541605438,-64.87076569,-85.3381424,171.5535583,8.971647263,-1.731941938,-1.580378175,-57.82974243,5.623670101,11.43367577, 
714,541622105,-67.23707581,-85.11617279,172.8802643,8.904655457,-2.30575633,-1.891243458,-61.98213196,0.250380605,17.05013466, 
715,541638772,-71.11220551,-84.83768463,175.775238,8.985480309,-2.619812965,-2.216424465,-58.80978775,-7.365952492,23.20829391, 
716,541655439,-76.17390442,-84.5272522,-179.8432922,8.945851326,-3.039103746,-2.15440464,-41.28866196,-17.20957375,26.90916443, 
717,541672106,-81.8921814,-84.15937042,-174.4651642,8.77136898,-3.165164471,-2.249586105,-10.85591602,-28.45345306,29.8071785, 
718,541688773,-87.1771698,-83.74095154,-169.0021973,11.05502605,-3.48855114,-0.377952337,19.05334473,-33.28907394,30.25660133, 
719,541705440,-89.27012634,-83.3655777,-166.4494934,11.11057568,3.035766602,6.213675499,33.44221497,-17.05483055,25.07068253, 
720,541722107,-92.21400452,-82.98603058,-163.2949371,11.01237774,0.400712162,1.201425195,15.98657703,-22.87636566,24.53346062, 
721,541738774,-95.50257111,-82.48054504,-159.7592163,12.56790066,-1.004264355,-1.20426333,15.92187119,-28.45324516,30.54478455, 
722,541755441,-99.18795013,-81.76643372,-155.8552399,12.91195869,-2.346559048,-1.314095497,12.55162907,-36.6588707,40.50858307, 
723,541772108,-101.8409653,-80.99824524,-152.8492737,10.51824379,-0.754629672,0.071111172,20.58981133,-34.27992249,42.50782394, 
724,541788775,-103.5021667,-80.31988525,-150.8341217,8.490548134,-1.637529612,-2.250303745,19.97542,-27.06411171,37.60541534, 
725,541805442,-104.1023941,-79.68157196,-149.9291229,8.960107803,-2.751813173,-2.649375439,17.52140999,-17.18396568,37.1692009, 
726,541822109,-103.6742706,-79.07400513,-150.120163,10.46164703,-1.361316204,-0.634055436,14.09260178,-5.452444553,38.1500473, 
727,541838776,-103.0775299,-78.4990387,-150.5884399,10.27353382,-1.262256622,-0.399005979,8.401057243,-1.559392095,37.04165268, 
728,541855443,-102.5723572,-77.95534515,-150.9636841,10.32364845,-1.846462488,0.462575912,8.436427116,-1.655503631,35.05010223, 
729,541872110,-102.1866989,-77.462677,-151.1968994,10.49125385,-1.609255433,1.271622539,9.534440994,-2.284501791,31.74370766, 
730,541888777,-102.0356903,-76.98499298,-151.2709351,10.50679302,-1.260769606,-0.093807988,4.498309612,-3.800059795,30.48180008, 
731,541905444,-102.0944443,-76.46902466,-151.434021,10.33758545,-1.698457718,-0.404743761,-13.49039078,-2.93499136,33.02226639, 
732,541922111,-102.3048172,-75.96208954,-151.5354919,9.542520523,-3.271583796,-0.649314761,-19.02868462,-3.636963844,32.31944656, 
733,541938778,-102.5710678,-75.54804993,-151.5499573,9.439778328,-2.956838608,-0.313948452,-16.00951004,-4.267647266,26.49287033, 
734,541955445,-103.0098648,-75.16494751,-151.4622803,9.792533875,-2.550548315,-0.256905675,-20.42395592,-5.512583733,24.30208397, 
735,541972112,-103.4575195,-74.7990036,-151.3666382,9.585867882,-2.746200323,-0.866477311,-20.5026474,-5.602023125,23.21597099, 
736,541988779,-103.8759766,-74.46968842,-151.2432098,9.329728127,-2.864902973,-1.023447156,-17.15286636,-5.701677799,20.91789818, 
737,542005446,-104.2176437,-74.17727661,-151.1616974,9.133589745,-2.74341321,-1.254903436,-14.97807693,-4.66549778,18.87999344, 
738,542022113,-104.4282303,-73.91085052,-151.1797943,9.099489212,-2.472557545,-1.492082596,-12.86469936,-2.788978338,17.74411201, 
739,542038780,-104.6085281,-73.66079712,-151.2013245,9.02999115,-2.681717157,-1.310163856,-11.24607277,-2.532043457,16.79817963, 
740,542055447,-104.8437576,-73.4291687,-151.1363831,8.955800056,-2.879865408,-0.800335824,-9.569243431,-3.718667507,15.34494781, 
741,542072114,-105.1837234,-73.19927216,-150.9469299,9.119490623,-2.688433647,-0.601933837,-8.691980362,-5.842897415,14.65702438, 
742,542088781,-105.5617981,-72.96596527,-150.6917267,9.470565796,-2.479440928,-1.008702874,-7.223038673,-7.126107216,14.50059605, 
743,542105448,-105.9123535,-72.73283386,-150.4187012,9.762326241,-2.737041473,-1.128282428,-4.563808918,-7.560203075,14.33474827, 
744,542122115,-106.20961,-72.50978851,-150.1851349,9.589850426,-2.766564369,-1.064143777,-3.651381969,-6.8409338,13.88858795, 
745,542138782,-106.4229736,-72.3140564,-150.0597839,9.403497696,-2.899373531,-1.181855321,-4.820947647,-4.595760822,12.81970406, 
746,542155449,-106.5319214,-72.15687561,-150.0696106,9.468425751,-3.058110714,-0.8744573,-6.28486681,-1.61683476,11.27818775, 
747,542172116,-106.5196991,-72.0406189,-150.1991882,9.670687675,-2.933803082,-1.077059388,-5.847989559,1.192361236,9.550031662, 
748,542188783,-106.3686676,-71.94634247,-150.4382019,9.803677559,-2.801350832,-1.333638072,-3.771720886,3.535488844,8.873229027, 
749,542205450,-106.0566101,-71.86811066,-150.8073578,9.646986961,-2.730651379,-1.495442867,-1.519608498,6.182281017,8.614027977, 
750,542222117,-105.5868988,-71.82601929,-151.2937622,9.489922523,-3.018020868,-1.330089092,1.263679862,8.950104713,7.09568119, 
751,542238784,-104.9905853,-71.8394928,-151.8806915,9.42770195,-3.31118083,-1.21750474,3.133190632,11.69639206,4.301719189, 
752,542255451,-104.2568665,-71.90607452,-152.6120911,9.470600128,-3.086749077,-1.109140038,3.126032591,15.11423206,1.769480467, 
753,542272118,-103.46138,-71.98728943,-153.4435425,9.49566555,-2.843036652,-0.785067618,1.106008649,17.07139397,1.162100554, 
754,542288785,-102.7572174,-72.05191803,-154.2096252,9.255828857,-2.727151394,-0.730498433,-0.658022821,15.59340763,1.626561403, 
755,542305452,-102.2321854,-72.08616638,-154.7940063,9.277254105,-2.825606108,-0.271570921,-1.05138278,11.87895966,2.519062042, 
756,542322119,-101.9636307,-72.06839752,-155.141098,9.200584412,-2.551008463,-0.233657971,-2.890374184,6.935445786,4.574147224, 
757,542338786,-102.0394516,-71.98117065,-155.1903687,9.077772141,-2.606775522,-0.051256135,-6.553427219,0.695628345,7.499605179, 
758,542355453,-102.5462494,-71.82052612,-154.8659363,8.977417946,-2.709141016,0.260120034,-11.0944519,-7.072742462,10.32229996, 
759,542372120,-103.4448318,-71.5956955,-154.1816101,9.180455208,-2.931612015,0.497779399,-14.11661434,-14.70636177,12.4373064, 
760,542388787,-104.6192551,-71.32468414,-153.227478,9.511209488,-2.973245144,-0.141364783,-15.37781239,-20.72439003,13.55574036, 
761,542405454,-105.8979416,-71.02519989,-152.1877441,9.648715019,-2.98587966,-0.614006221,-16.85611725,-23.27510452,14.22666264, 
762,542422121,-107.2154541,-70.7067337,-151.1381836,9.522530556,-2.893790245,-0.886537611,-18.74008751,-24.35629654,14.62732983, 
763,542438788,-108.5938721,-70.37110138,-150.0320129,9.369981766,-3.087214231,-0.977582812,-19.31004715,-26.35977745,14.55831146, 
764,542455455,-110.0189362,-70.02539063,-148.8728333,9.313040733,-3.208708048,-0.692122519,-19.25198746,-28.22223854,13.98434639, 
765,542472122,-111.4866333,-69.65923309,-147.6657867,9.427344322,-3.317927122,-0.792069077,-19.25378609,-30.25062752,13.8931942, 
766,542488789,-112.9492645,-69.2864151,-146.4550476,9.518092155,-3.235149622,-1.129760027,-18.91071701,-31.17311668,13.27437592, 
767,542505456,-114.4282227,-68.90931702,-145.2501831,9.651361465,-3.143932581,-1.269593358,-20.37851906,-31.84104729,12.55001068, 
768,542522123,-115.973526,-68.51654816,-144.0023956,9.727649689,-3.142319202,-1.156557083,-22.13986397,-33.76122284,11.9471302, 
769,542538790,-117.6061172,-68.08864594,-142.6978607,9.890788078,-3.316692114,-0.835047424,-24.40884209,-36.54059219,12.07470798, 
770,542555457,-119.3595123,-67.61502075,-141.266098,10.09904194,-3.117566347,-1.064085722,-24.81488228,-41.16014099,11.73239708, 
771,542572124,-121.2497635,-67.08837128,-139.6775818,10.65599346,-2.718449116,-1.259970188,-24.62763977,-46.77719116,10.96189976, 
772,542588791,-123.2101822,-66.47320557,-138.015564,11.07995224,-2.308025599,-1.43748498,-25.15318108,-52.09224701,12.46059227, 
773,542605458,-125.1438751,-65.74766541,-136.3490601,11.20346832,-1.962459087,-1.800358295,-23.76849747,-57.11024857,15.47806454, 
774,542622125,-127.0257416,-64.90197754,-134.6719208,10.99244022,-1.769321442,-2.288255215,-20.63722038,-62.9949913,18.48206139, 
775,542638792,-128.8483734,-63.93367767,-133.0077057,10.68208599,-1.821390986,-2.268846989,-18.46033478,-68.88665009,21.54313278, 
776,542655459,-130.6045074,-62.85105896,-131.3928223,10.51952362,-1.938756227,-1.960440993,-17.89860344,-74.05723572,24.45987511, 
777,542672126,-132.3148346,-61.64953995,-129.8938599,10.51834679,-2.067776442,-1.622550488,-22.18185043,-78.28967285,28.54568863, 
778,542688793,-133.9873047,-60.33335114,-128.5537262,10.69482231,-2.096470356,-1.390507698,-29.18031311,-81.64508057,33.19786835, 
779,542705460,-135.6952057,-58.91892624,-127.3693008,11.3018465,-1.920483112,-0.916556299,-40.30929565,-84.52252197,37.09524155, 
780,542722127,-137.3538513,-57.37968826,-126.3769684,11.85741329,-2.258340836,-0.031353563,-48.08375549,-87.86065674,43.01079941, 
781,542738794,-138.8153687,-55.65087509,-125.55616,11.487216,-2.654205561,-0.076925367,-45.7473793,-94.59253693,51.34474564, 
782,542755461,-140.0402374,-53.78461075,-124.7819672,11.37554264,-3.438614368,-1.002797842,-34.69976044,-101.7876816,54.71967697, 
783,542772128,-140.8450775,-51.84933853,-124.1422424,10.4068985,-4.57461977,-2.896202803,-16.83506584,-103.6088409,58.33389282, 
784,542788795,-141.6521149,-49.83498383,-123.7100525,9.280098915,-6.5057621,-4.640329838,-27.43782997,-103.8347855,65.1469574, 
785,542805462,-142.4361115,-47.8960762,-123.4118652,8.945063591,-7.030690193,-4.564072132,-32.6906929,-98.30471039,64.52573395, 
786,542822129,-143.3157043,-46.17505646,-123.1424942,9.262395859,-5.230887413,-3.523181915,-40.07808304,-88.33070374,55.77676773, 
787,542838796,-144.4201355,-44.99932861,-123.1043015,9.75549221,-2.842456341,0.317885429,-63.7628212,-57.29029083,42.53056717, 
788,542855463,-146.2815552,-44.63858032,-123.2462692,7.74789238,1.686727524,4.240035534,-116.8238983,-13.77872849,19.50100136, 
789,542872130,-148.6042938,-44.84547806,-123.3834381,6.73747921,-0.168717697,2.591144562,-144.2834625,14.15219402,0.465750217, 
790,542888797,-150.555069,-45.6052742,-123.5615082,6.259319782,-0.081145339,1.377880692,-123.7558975,43.6272049,-14.3802681, 
791,542905464,-151.9814148,-46.76015854,-123.6962738,6.77972126,-1.61129117,-0.543123007,-90.5320282,63.92608261,-26.19360161, 
792,542922131,-152.717804,-48.2576828,-123.7091141,7.886355877,-2.498427629,-0.810352564,-43.86306381,80.28257751,-39.0375824, 
793,542938798,-152.6251526,-50.10510254,-123.7173462,8.659811974,-2.237644911,0.057317033,6.074312687,99.04359436,-48.40904999, 
794,542955465,-151.746048,-52.24054718,-123.8679657,8.862978935,-2.656561852,0.27083835,46.59755325,116.3588181,-52.58081818, 
795,542972132,-150.1502686,-54.61570358,-124.2057648,9.172382355,-3.3921175,-0.494563997,80.36177826,130.8039093,-56.45343399, 
796,542988799,-147.9122162,-57.22881317,-124.7622147,9.881525993,-2.951376915,-1.101098776,107.5183182,144.3998871,-62.43519592, 
797,543005466,-145.2489624,-60.08857727,-125.6521072,10.68881321,-1.700542688,-1.354915857,115.0831985,158.8246307,-69.10610962, 
798,543022133,-142.2409515,-63.13382339,-127.0669022,11.08442497,-1.156668544,-1.214425683,106.6938095,171.4971161,-73.26251984, 
799,543038800,-138.7682495,-66.29140472,-129.174408,11.35415649,-1.718502164,-1.378512263,94.9074707,180.8128204,-76.52449799, 
800,543055467,-134.5600281,-69.51625061,-132.1645966,11.90949726,-2.382110357,-1.505063891,87.13222504,187.2745361,-81.36685944, 
801,543072134,-129.1179047,-72.72189331,-136.5293274,12.52923107,-2.789655924,-1.446778655,79.56956482,191.6022797,-84.35438538, 
802,543088801,-121.5561523,-75.81560516,-143.1921692,12.92174721,-3.141815901,-1.380646229,69.7000351,195.8268738,-86.17456818, 
803,543105468,-110.2235031,-78.6006012,-153.8039246,13.06433296,-3.036123753,-1.381541133,59.75672531,199.5815582,-85.86735535, 
804,543122135,-93.11314392,-80.71591949,-170.4513855,13.23622036,-2.6004529,-1.359676957,44.58724213,200.6886444,-84.48647308, 
805,543138802,-69.84603119,-81.62611389,166.4583282,13.34370518,-2.558540344,-1.779082179,27.54102325,201.2578888,-81.84450531, 
806,543155469,-46.3786087,-80.99230957,142.8847504,13.56685448,-2.61454463,-2.483807564,10.38728809,200.1868439,-78.11766052, 
807,543172136,-29.18715668,-79.12706757,125.2660675,13.32962513,-2.595691919,-3.060972929,-9.161448479,199.1192169,-73.52303314, 
808,543188803,-18.6149826,-76.64681244,113.9749146,12.3482151,-2.756313086,-3.713615179,-27.33576202,193.2665863,-67.38747406, 
809,543205470,-12.46569061,-74.03249359,106.8677521,11.22049141,-3.013002634,-4.413658619,-42.77706528,180.1342773,-59.6004715, 
810,543222137,-8.910085678,-71.61200714,102.3195953,10.16115379,-3.271409988,-5.563913345,-46.51706696,157.9880219,-49.90332794, 
811,543238804,-6.904232502,-69.63834381,99.41184235,8.759059906,-3.575795174,-7.39014864,-43.355896,125.7125702,-38.69867706, 
812,543255471,-5.996016979,-68.37597656,97.7902832,6.941848278,-4.200714111,-8.910714149,-35.47360229,79.72583008,-23.80996323, 
813,543272138,-6.133742809,-67.96759033,97.3772049,6.483210087,-4.929161549,-8.960733414,-30.42092896,25.9625473,-4.290554523, 
814,543288805,-7.08236599,-68.24726868,97.96627808,7.16748476,-4.908527374,-7.539001942,-23.29211235,-17.49212074,13.4117403, 
815,543305472,-8.733868599,-68.9967804,99.48085785,8.228439331,-5.441918373,-6.35934639,-13.64847088,-48.33644867,28.84433937, 
816,543322139,-10.6521759,-70.0343399,101.7532806,8.575668335,-5.622793198,-6.296178341,13.43562222,-68.57151794,38.73807144, 
817,543338806,-12.75930119,-71.10124207,104.2356033,11.23337746,-2.382798433,0.21491535,14.83063412,-71.84602356,37.6869812, 
818,543355473,-12.85403919,-71.54755402,105.3423615,13.78049469,7.26456213,10.85269451,58.01357269,-29.92523766,16.94378853, 
819,543372140,-12.60501194,-71.83403778,106.2180252,12.69824982,6.876900673,7.142113209,65.59967804,-19.54757309,14.50050926, 
820,543388807,-14.10321617,-72.70391083,108.2132874,12.37552738,-0.098127931,-7.130334377,24.90581512,-58.34980011,25.65474319, 
821,543405474,-17.33480835,-73.3804245,111.4422455,16.15386772,1.049219251,-2.254148483,-7.847146511,-53.45141602,45.62535095, 
822,543422141,-21.67315865,-73.70145416,115.6765747,12.6939249,-3.988801479,2.461844444,-15.94134235,-41.20628738,63.65325165, 
823,543438808,-25.47253799,-74.05964661,120.0873795,8.61604023,-11.02842522,0.482630342,26.9997406,-48.08591843,60.96956253, 
824,543455475,-27.56298828,-74.5932312,123.2772141,8.272256851,-4.031878948,3.066522598,59.58675003,-50.73445892,34.14065552, 
825,543472142,-29.51711655,-75.07341003,126.0429764,8.530406952,0.107761391,3.252075672,43.67053223,-45.0650177,26.52884865, 
826,543488809,-32.30723953,-75.35739899,129.0720062,9.191459656,0.777360678,2.090186357,9.073471069,-37.46516037,33.19638443, 
827,543505476,-35.72213745,-75.47638702,132.4178314,9.459773064,-0.002280886,1.405031085,-9.857843399,-33.21821594,40.06980133, 
828,543522143,-39.396492,-75.55252075,136.0975494,9.721809387,-1.966797471,0.687583089,-5.945140362,-36.30067444,43.1697998, 
829,543538810,-42.71747971,-75.59466553,139.7269135,9.910030365,-3.360323429,0.263865024,12.38528919,-36.54405594,41.4238472, 
830,543555477,-45.56600189,-75.61144257,142.9202423,10.14890862,-2.068823338,1.080103397,15.41980457,-32.89478683,35.64999008, 
831,543572144,-48.22019958,-75.58229828,145.7135773,9.976755142,-1.488275766,1.531250715,3.830057621,-28.23087692,31.93018532, 
832,543588811,-50.72253418,-75.52553558,148.1413574,9.650383949,-1.839444876,1.601261377,-8.328018188,-24.39658928,28.37243462, 
833,543605478,-53.05417252,-75.48298645,150.3557281,9.740059853,-2.230406284,1.58671701,-10.51552677,-23.58085442,24.70288277, 
834,543622145,-55.25531769,-75.46385193,152.4263763,9.785445213,-2.038690567,1.62142694,-11.04821587,-23.5743866,21.35409737, 
835,543638812,-57.50495529,-75.4626236,154.4557343,9.576768875,-1.847037792,1.820508122,-16.36061096,-24.39865494,19.15619087, 
836,543655479,-59.98733139,-75.45973969,156.6165466,9.299301147,-1.863416553,1.773128748,-22.69117737,-26.72363853,19.21339607, 
837,543672146,-62.73510361,-75.43461609,158.9793396,9.166172028,-1.802515626,1.729174614,-26.88515282,-29.53903198,20.57387924, 
838,543688813,-65.76389313,-75.37115479,161.5881042,9.113985062,-1.823932648,1.693248987,-29.49544907,-32.87330627,22.7555294, 
839,543705480,-69.01696014,-75.27077484,164.4365387,9.056241035,-2.336142302,1.30112958,-29.0902195,-36.66926193,24.39248085, 
840,543722147,-72.33951569,-75.14243317,167.4312592,9.035619736,-2.663906336,0.839195192,-24.86152458,-39.75246048,24.64015961, 
841,543738814,-75.66452026,-74.99047852,170.5041656,9.248311043,-2.81317997,0.598251641,-20.57778358,-42.16627884,24.04086685, 
842,543755481,-78.91214752,-74.8108139,173.5301971,9.592668533,-2.537528515,0.510100126,-18.79265785,-42.76912689,23.11137772, 
843,543772148,-82.0348053,-74.58446503,176.4343567,9.747595787,-2.357872248,0.243714005,-18.51534271,-42.109375,23.19631767, 
844,543788815,-85.02502441,-74.30863953,179.2346649,9.778612137,-2.512842178,0.138852686,-16.76965332,-41.90299988,23.70872688, 
845,543805482,-87.84570313,-73.99186707,-178.1041565,9.785413742,-2.621298075,-0.131357759,-14.86577225,-41.34308243,23.87873459, 
846,543822149,-90.48249817,-73.65021515,-175.6217499,9.737787247,-2.773846626,-0.378409684,-14.38976288,-40.19679642,23.30278206, 
847,543838816,-92.95155334,-73.2848587,-173.3446808,9.636222839,-2.764376879,-0.217963651,-16.39266205,-38.51290131,22.94766426, 
848,543855483,-95.33143616,-72.88645172,-171.2019958,9.466574669,-2.749562502,-0.2231922,-19.01649094,-38.02695847,23.34386444, 
849,543872150,-97.62059021,-72.45572662,-169.1609039,9.36439991,-2.850525856,-0.358226359,-19.66248131,-38.15326309,23.77220917, 
850,543888817,-99.82939148,-71.99461365,-167.1800232,9.404033661,-3.024913073,-0.427607387,-18.57157516,-39.05449677,24.05244064, 
851,543905484,-101.9400864,-71.51313019,-165.2906189,9.429181099,-2.945417881,-0.583389878,-18.19988251,-39.30596542,23.88307571, 
852,543922151,-104.0005341,-71.0078125,-163.4896851,9.401684761,-3.039988518,-0.793395162,-20.51560783,-39.62897873,23.96849251, 
853,543938818,-106.0436783,-70.48087311,-161.7359619,9.295442581,-3.121352673,-0.748046458,-22.46837234,-40.7039566,23.75927353, 
854,543955485,-108.0999603,-69.93209839,-159.9854736,9.216344833,-3.378802776,-0.66071254,-23.76645279,-42.66032791,23.25403595, 
855,543972152,-110.1879044,-69.36556244,-158.2084045,9.296814919,-3.557179451,-0.659158289,-24.51880074,-45.17483139,22.17090225, 
856,543988819,-112.3092041,-68.7662735,-156.4065552,9.461228371,-3.284665823,-0.859639049,-25.50925636,-48.03470612,21.73207474, 
857,544005486,-114.4676743,-68.1140976,-154.6085968,9.656225204,-3.047813177,-0.979553819,-28.38186646,-50.92483521,22.40081596, 
858,544022153,-116.6394043,-67.39569092,-152.7940521,9.824123383,-3.100774527,-1.441073179,-28.73618317,-54.78808975,23.33621788, 
859,544038820,-118.8013229,-66.60857391,-150.9562073,9.790276527,-3.033961058,-1.558878541,-27.40909386,-59.11888123,23.99778938, 
860,544055487,-120.9851608,-65.76206207,-149.1207428,9.747991562,-2.867384434,-1.487572908,-29.47367287,-62.88004684,24.10849953, 
861,544072154,-123.181427,-64.84301758,-147.3234863,9.969060898,-3.032296419,-1.662274837,-32.99885559,-66.48642731,25.03694153, 
862,544088821,-125.3809128,-63.84708023,-145.5829926,10.19684315,-3.028051853,-1.797192812,-37.02272797,-70.04387665,26.16142654, 
863,544105488,-127.6077728,-62.75680923,-143.891449,10.33630466,-2.984039783,-1.982587099,-42.12434006,-74.60224915,27.73206902, 
864,544122155,-129.8038635,-61.57297516,-142.2111511,10.71058369,-2.925843239,-2.086711884,-41.79335403,-80.19939423,28.26497078, 
865,544138822,-132.0450439,-60.26265717,-140.5118103,11.39985847,-2.731178045,-1.906488538,-44.53697968,-88.00500488,29.21856308, 
866,544155489,-134.3336792,-58.79757309,-138.8263855,12.20620823,-2.417274475,-1.465292573,-49.32211304,-96.62835693,31.28711891, 
867,544172156,-136.7011414,-57.14833832,-137.1604156,13.47733498,-1.901379466,-0.837129891,-56.4576683,-106.8515854,33.82509232, 
868,544188823,-139.0569916,-55.2591629,-135.5314789,15.28996086,-1.787695885,1.032974482,-59.26747894,-119.6877975,38.02769852, 
869,544205490,-141.0458527,-53.02598953,-134.1252289,16.3157711,-1.439659834,2.296640873,-50.06847,-133.6779327,50.49520874, 
870,544222157,-142.8758545,-50.48309326,-132.877121,17.52304077,-1.435379744,2.221192598,-50.09050751,-148.0457306,59.87075424, 
871,544238824,-144.1260223,-47.8848114,-132.0185852,16.32995605,-1.335030556,1.740488172,-35.12091446,-144.7671661,68.04790497, 
872,544255491,-145.4595947,-45.00036621,-131.3273315,12.22935581,-5.218206882,-3.519837856,-49.03455353,-157.4060211,78.82524109, 
873,544272158,-146.8469696,-42.2665596,-130.8937531,10.85161114,-8.743453026,-6.240594387,-64.37023926,-146.2884216,78.10895538, 
874,544288825,-147.8044586,-40.01895905,-130.8950653,9.780138969,-8.336694717,-4.244187355,-56.60187531,-113.0863113,75.20433807, 
875,544305492,-148.2686462,-38.30312347,-131.0602875,8.845211983,-5.722327709,-2.43159461,-33.2326622,-82.92010498,63.33133316, 
876,544322159,-149.1308594,-37.38605881,-131.3970795,6.461248875,-0.614992619,0.415200531,-63.26707458,-38.42186737,44.50456619, 
877,544338826,-150.9308167,-37.1076622,-131.8870544,4.531808853,1.096281648,-1.213128805,-124.9271393,-2.5248487,30.89126587, 
878,544355493,-153.2653198,-37.72904205,-132.5188904,4.176452637,-0.232339397,2.32899785,-162.2356262,47.27498627,11.43753433, 
879,544372160,-154.6710358,-38.83808899,-133.2965393,2.67666626,-1.756959915,0.28334561,-112.3841248,76.05627441,5.956377029, 
880,544388827,-155.2577515,-40.31315613,-133.9077911,2.015552759,-2.933931589,-1.80943656,-57.71072006,92.31560516,-9.615136147, 
881,544405494,-154.9489441,-42.11697388,-134.3838806,3.44328475,-2.555547237,-1.934477091,0.55984062,107.3771057,-23.8674736, 
882,544422161,-153.9994659,-44.32293701,-134.7689667,5.170275688,-1.106737494,-1.070306897,41.99483871,126.8439789,-39.64605331, 
883,544438828,-152.6286011,-46.97285843,-135.2125549,6.435097694,-0.515844226,-0.261668921,64.070961,150.5410919,-52.57215881, 
884,544455495,-151.1192474,-50.0550499,-135.8171082,7.264853477,-0.185800895,-0.874497414,64.24274445,174.5132904,-63.75655746, 
885,544472162,-149.5772858,-53.52635193,-136.6266327,8.495418549,-0.514727473,-1.301945686,55.21455002,195.9282684,-74.66808319, 
886,544488829,-148.0834198,-57.35942459,-137.8020477,10.42816639,-0.059504166,-1.80414474,32.41672516,217.5165863,-82.50590515, 
887,544505496,-146.5104065,-61.46323395,-139.5976563,12.02798557,0.424080461,-2.396142244,2.502738953,236.806076,-84.55315399, 
888,544522163,-144.2186584,-65.66107941,-142.4641113,12.63175201,-0.486522406,-3.563296795,-15.65739632,250.6863098,-77.73747253, 
889,544538830,-140.3304596,-69.78369141,-146.8183289,12.71902466,-2.236204863,-4.697657108,-7.685524464,256.0932617,-70.52070618, 
890,544555497,-133.859436,-73.69769287,-153.3049164,13.87360668,-3.006654501,-4.712877274,19.34128761,254.7327271,-67.92276001, 
891,544572164,-122.9682007,-77.20074463,-163.6795502,14.63469505,-3.476082563,-4.005877018,51.4817543,252.4806824,-64.53248596, 
892,544588831,-105.1604462,-79.91866302,179.4764709,14.78354549,-4.332031727,-4.254850864,78.24852753,248.2473755,-63.41313553, 
893,544605498,-79.68022156,-81.3120575,155.1787567,14.3590498,-3.079968691,-4.343811035,90.67051697,239.3130035,-69.25241089, 
894,544622165,-52.66651917,-80.94506073,129.0661011,14.32441711,-1.857885838,-3.406114817,73.04615784,227.9598083,-74.68055725, 
895,544638832,-31.93737411,-79.17337036,108.9089279,14.60393047,-2.556128979,-3.349601269,52.84078598,217.4162292,-80.7120285, 
896,544655499,-18.61962509,-76.65467834,95.76311493,14.32266521,-2.896671772,-3.973836184,28.32215691,206.3672485,-82.43053436, 
897,544672166,-11.07671261,-73.80268097,87.70376587,13.42174244,-2.144655466,-4.593868732,-14.34826374,196.8700562,-72.87037659, 
898,544688833,-7.846048355,-71.06711578,83.06003571,11.24226093,-1.818252206,-5.709384918,-71.05091095,175.9591827,-53.51503754, 
899,544705500,-7.118353367,-68.92944336,80.40855408,8.419896126,-2.650957823,-8.790260315,-105.064415,134.6686096,-34.82813644, 
900,544722167,-7.630919456,-67.80193329,79.01589203,5.570775032,-3.982056856,-11.19713306,-107.6813278,71.58400726,-19.47870445, 
901,544738834,-8.866183281,-67.69923401,78.70549011,5.948791981,-4.38334465,-8.814881325,-90.62960052,7.762104511,-3.752030849, 
902,544755501,-10.73226452,-68.25922394,79.36026764,7.434370041,-3.591957092,-7.584307671,-74.82489014,-34.86853027,11.10382462, 
903,544772168,-13.1908493,-69.15983582,80.90629578,7.86837244,-3.853732586,-7.400247574,-60.36746597,-58.99832916,24.03102303, 
904,544788835,-15.74221039,-70.25997925,83.0920639,9.038603783,-5.758173943,-4.90376091,-29.35825348,-74.33420563,29.79903984, 
905,544805502,-17.73965836,-71.24810028,85.37521362,10.84300613,-2.098987818,1.239614367,10.21584034,-68.76716614,28.37880707, 
906,544822169,-18.52333641,-71.71775818,86.99249268,11.59455013,-0.063411705,10.65038872,45.71814728,-35.34645462,22.72208786, 
907,544838836,-18.03009415,-71.91851807,87.81390381,11.27247047,5.148925781,10.15407085,77.15641022,-15.3011198,13.04056358, 
908,544855503,-18.459692,-72.50712585,89.09434509,11.78950405,2.210540533,-1.927317619,48.09276581,-39.98328018,13.49919033, 
909,544872170,-20.36787796,-73.19773102,91.52052307,16.91324043,-1.354160428,-4.002156258,25.28846359,-52.37359238,28.99463844, 
910,544888837,-24.04410553,-73.54091644,95.70948792,13.39600182,-7.20156765,-1.322209835,20.90527153,-45.1850853,61.09078217, 
911,544905504,-27.26014328,-74.10002136,99.68346405,11.65795994,-7.2056427,-2.741410971,36.71510315,-57.88631058,47.60224915, 
912,544922171,-29.04573822,-74.53848267,102.4670868,9.667309761,-0.374004692,2.655951262,54.37067032,-43.33882904,29.57378387, 
913,544938838,-31.06877518,-74.92019653,104.9457779,8.523758888,-0.959559143,2.72275424,22.79029846,-38.29467392,24.62083244, 
914,544955505,-33.61746979,-75.12757111,107.410675,9.003439903,-0.608477652,2.346693039,-9.347020149,-29.81964302,27.82274437, 
915,544972172,-36.30469894,-75.16693115,109.9463501,9.08126545,-0.994155824,1.750343084,-13.47025967,-23.14662933,32.80764771, 
916,544988839,-39.02223969,-75.13427734,112.7281647,8.688386917,-2.156222105,1.10997045,-1.010370374,-23.44815636,37.25852203, 
917,545005506,-41.35444641,-75.08636475,115.3309708,9.192304611,-2.538735628,1.21479404,11.70672989,-22.554142,34.70805359, 
918,545022173,-43.27597809,-74.99720001,117.5135727,10.24272156,-1.696464658,1.25147438,11.94598961,-17.65227699,30.78071594, 
919,545038840,-44.88664246,-74.87044525,119.2089615,10.41107273,-1.787162185,1.16736865,2.306520224,-11.7759161,26.47482681, 
920,545055507,-46.34786606,-74.71020508,120.5967712,9.758442879,-1.89914012,2.082788944,-6.600979328,-7.72390604,24.34247208, 
921,545072174,-47.90710449,-74.60261536,122.0799866,9.197288513,-2.435481548,2.133692741,-7.009054184,-11.70410442,22.94489861, 
922,545088841,-49.58429337,-74.59510803,123.745285,9.285451889,-2.452344894,2.38334322,-3.57155323,-18.49682999,20.02355003, 
923,545105508,-51.5292778,-74.6552887,125.5753403,9.409881592,-2.006893635,2.562668085,-10.08667946,-23.6311264,17.89261627, 
924,545122175,-53.66382217,-74.73773193,127.4387512,9.227274895,-1.999517202,2.430078506,-19.48754311,-25.3131752,16.18473816, 
925,545138842,-56.03504562,-74.83209991,129.4693451,9.197667122,-2.072868347,1.823358417,-23.9571743,-28.28657913,15.96895695, 
926,545155509,-58.52430725,-74.9019165,131.6156311,9.25097084,-2.144287348,1.349302292,-24.29284096,-29.43929672,16.84648514, 
927,545172176,-61.0962944,-74.93521881,133.8506012,9.113191605,-2.23679328,1.341791153,-24.08192444,-30.06280899,18.0118866, 
928,545188843,-63.70830154,-74.94036865,136.1481628,9.115710258,-2.522654057,1.136787891,-22.84192848,-30.79789734,18.52179909, 
929,545205510,-66.22769928,-74.91998291,138.41539,9.290520668,-2.644225836,0.896436751,-19.04263496,-30.44228745,18.26991463, 
930,545222177,-68.6016922,-74.88012695,140.6063995,9.604300499,-2.747709751,0.528385103,-14.74678326,-29.62269783,17.55664444, 
931,545238844,-70.73551178,-74.81188202,142.627594,9.685570717,-2.58436656,0.338227391,-10.19953537,-27.23184395,17.04784203, 
932,545255511,-72.64691925,-74.7173233,144.4644318,9.624706268,-2.659591198,0.337460518,-7.572247505,-24.64425659,16.68115997, 
