PacketCounter,SampleTimeFine,Euler_X,Euler_Y,Euler_Z,Acc_X,Acc_Y,Acc_Z,Gyr_X,Gyr_Y,Gyr_Z,Velo_X,Velo_Y,Velo_Z,ANG_X,ANG_Y,ANG_Z
0,531185854,109.33127,8.159325,145.59834,-2.5971203,1.0953547,1.9581918,-6.947251,5.5031533,-9.502294,0.0,0.0,0.0,0.0,0.0,0.0
1,531202521,109.07755,8.1673355,145.69765,-2.271688,1.0044739,1.9316599,-10.3082905,5.3541346,-9.05894,-0.037861,0.016741,0.032194,-0.171805,0.089236,-0.150982
2,531219188,108.80451,8.170654,145.80699,-1.9201317,0.90855384,1.9069936,-13.896067,5.201067,-8.608048,-0.069863,0.031884,0.063977,-0.403406,0.17592,-0.294449
3,531235855,108.51519,8.168488,145.92566,-1.5476217,0.80888116,1.8846444,-17.66342,5.0454974,-8.155767,-0.095657,0.045365,0.095388,-0.697796,0.260012,-0.430378
4,531252522,108.14371,8.175026,146.07262,-1.0489435,0.67902756,1.8557411,-22.592356,4.8559976,-7.5722585,-0.113139,0.056682,0.126317,-1.074335,0.340945,-0.556582
5,531269189,107.70368,8.186584,146.24437,-0.44576454,0.52471095,1.8226318,-28.47561,4.639922,-6.8878527,-0.120568,0.065427,0.156694,-1.548929,0.418277,-0.67138
6,531285856,107.16135,8.179268,146.41196,-0.04825592,0.430315,1.8333293,-32.836548,4.766671,-6.785982,-0.121372,0.072599,0.187249,-2.096205,0.497722,-0.78448
7,531302523,106.50264,8.152458,146.57568,0.12859821,0.40042636,1.891645,-35.575554,5.269711,-7.3181243,-0.119229,0.079273,0.218776,-2.689131,0.585551,-0.906449
8,531319190,105.750175,8.114952,146.74751,0.21887112,0.39865306,1.9766536,-37.742985,5.980645,-8.182351,-0.115581,0.085917,0.25172,-3.318181,0.685228,-1.042822
9,531335857,104.88941,8.060448,146.92055,0.1397419,0.44781768,2.1019619,-38.685314,7.00527,-9.570203,-0.113252,0.093381,0.286753,-3.962936,0.801983,-1.202325
10,531352524,103.919426,8.006477,147.11748,0.10081291,0.49169528,2.2376573,-40.117764,8.123078,-11.052625,-0.111572,0.101576,0.324047,-4.631565,0.937368,-1.386535
11,531369191,102.837524,7.953697,147.34007,0.11337471,0.52750945,2.3827217,-42.134445,9.325977,-12.612302,-0.109682,0.110368,0.363759,-5.333806,1.092801,-1.59674
12,531385858,101.62811,7.887779,147.57164,0.0010595322,0.6033082,2.5644248,-43.317432,10.820263,-14.635383,-0.109664,0.120423,0.406499,-6.055763,1.273139,-1.840663
13,531402525,100.28711,7.8122864,147.8175,-0.19281673,0.7077193,2.777221,-44.02592,12.56552,-17.040104,-0.112878,0.132218,0.452786,-6.789528,1.482564,-2.124665
14,531419192,99.359795,7.797722,147.76097,-0.29970264,0.7693027,2.9499018,-45.00515,13.137877,-18.436087,-0.117873,0.14504,0.501951,-7.539614,1.701529,-2.431933
15,531435859,98.89547,7.8493576,147.36787,-0.32653618,0.78758025,3.0795834,-46.14294,12.425267,-18.7412,-0.123315,0.158166,0.553277,-8.308663,1.908617,-2.744286
16,531452526,98.63194,7.9364014,146.79036,-0.3253641,0.7892041,3.196865,-47.319023,11.074579,-18.563051,-0.128738,0.171319,0.606558,-9.097313,2.093193,-3.05367
17,531469193,98.723236,8.078651,145.93591,-0.25618744,0.7560661,3.2830062,-48.68275,8.686889,-17.52325,-0.133008,0.18392,0.661275,-9.908692,2.237974,-3.345724
18,531485860,98.846825,8.231636,144.98213,-0.2642126,0.742728,3.3873205,-49.423157,6.142165,-16.535206,-0.137412,0.196299,0.71773,-10.732411,2.340343,-3.621311
19,531502527,98.98602,8.393669,143.9357,-0.3565054,0.7519386,3.512653,-49.503033,3.479913,-15.643929,-0.143354,0.208831,0.776274,-11.557462,2.398342,-3.882043
20,531519194,99.439575,8.604782,142.62312,-0.42819595,0.7412021,3.6183448,-49.433895,-0.09610611,-14.061033,-0.150491,0.221184,0.83658,-12.38136,2.39674,-4.116394
21,531535861,100.145256,8.856537,141.07596,-0.511446,0.72219664,3.7148147,-49.026398,-4.4166303,-11.970059,-0.159015,0.233221,0.898494,-13.198467,2.323129,-4.315895
22,531552528,100.39092,9.031921,139.92429,-0.5768299,0.7111701,3.78075,-48.89039,-7.1456428,-10.74303,-0.168629,0.245074,0.961507,-14.013307,2.204035,-4.494945
23,531569195,100.15086,9.125229,139.2025,-0.610549,0.70465153,3.8086152,-49.122528,-8.167872,-10.40659,-0.178805,0.256818,1.024984,-14.832016,2.067904,-4.668388
24,531585862,99.72584,9.186882,138.62904,-0.6496153,0.70290846,3.8150754,-49.28673,-8.486608,-10.426437,-0.189632,0.268533,1.088569,-15.653462,1.926461,-4.842162
25,531602529,98.92935,9.185562,138.37283,-0.68318844,0.7090873,3.7920446,-49.555737,-7.475785,-11.156389,-0.201018,0.280351,1.15177,-16.479391,1.801865,-5.028102
26,531619196,98.25848,9.200569,138.01717,-0.70246506,0.7027666,3.74084,-49.687984,-6.7123322,-11.585013,-0.212726,0.292064,1.214117,-17.307524,1.689993,-5.221186
27,531635863,97.74127,9.236099,137.53806,-0.7101126,0.6835543,3.6613178,-49.63916,-6.277854,-11.661224,-0.224561,0.303457,1.275139,-18.134843,1.585362,-5.41554
28,531652530,96.97021,9.225418,137.28986,-0.7005005,0.66397196,3.5445743,-49.67595,-4.840824,-12.191132,-0.236236,0.314523,1.334215,-18.962775,1.504682,-5.618726
29,531669197,96.05029,9.184883,137.18613,-0.6716013,0.63949645,3.389608,-49.74065,-2.7246275,-12.960902,-0.247429,0.325181,1.390708,-19.791786,1.459272,-5.834741
30,531685864,95.452835,9.15332,136.62407,-0.64748764,0.6611204,3.2955015,-49.614937,-2.091551,-13.381663,-0.25822,0.3362,1.445633,-20.618702,1.424413,-6.057769
31,531702531,95.17311,9.125511,135.59068,-0.6280184,0.73501015,3.269377,-49.316257,-2.9785476,-13.494797,-0.268687,0.34845,1.500123,-21.44064,1.374771,-6.282682
32,531719198,95.05861,9.093361,134.31451,-0.59934235,0.83385956,3.2625048,-48.910034,-4.5719657,-13.435382,-0.278676,0.362348,1.554498,-22.255807,1.298572,-6.506605
33,531735865,95.228065,9.064735,132.63841,-0.56661797,0.9724822,3.3017006,-48.349014,-7.4310365,-13.065771,-0.28812,0.378556,1.609526,-23.061624,1.174721,-6.724368
34,531752532,95.30285,8.998856,131.00476,-0.5143299,1.124722,3.3257942,-47.81813,-9.946344,-12.938361,-0.296692,0.397301,1.664956,-23.858593,1.008949,-6.940007
35,531769199,95.26867,8.893486,129.433,-0.439929,1.2889533,3.3304315,-47.328648,-12.044455,-13.071329,-0.304024,0.418784,1.720463,-24.647404,0.808208,-7.157862
36,531785866,95.4156,8.774521,127.566956,-0.35457802,1.491609,3.3692658,-46.752674,-15.007878,-13.076247,-0.309934,0.443644,1.776617,-25.426615,0.558077,-7.375799
37,531802533,95.66454,8.632271,125.498055,-0.2538538,1.7278214,3.4293966,-46.133217,-18.500648,-13.0722475,-0.314165,0.472441,1.833774,-26.195502,0.249733,-7.59367
38,531819200,95.8669,8.4372635,124.92862,-0.19374084,1.8565359,3.417247,-45.878586,-21.30144,-12.531709,-0.317394,0.503383,1.890728,-26.960145,-0.105291,-7.802532
39,531835867,96.043045,8.188103,125.98686,-0.18049908,1.8678031,3.330689,-46.019947,-23.449587,-11.360059,-0.320402,0.534513,1.946239,-27.727144,-0.496117,-7.991866
40,531852534,96.21027,7.890747,127.935,-0.18400574,1.8254092,3.2054727,-46.39964,-25.29925,-9.888594,-0.323469,0.564936,1.999664,-28.500471,-0.917771,-8.156676
41,531869201,96.33662,7.536293,131.25235,-0.2202425,1.6904225,3.0172005,-47.1358,-26.55099,-7.9548354,-0.32714,0.59311,2.049951,-29.286068,-1.360287,-8.289257
42,531885868,96.5862,7.1467056,134.86623,-0.25826263,1.5516906,2.8337903,-47.967136,-28.253517,-5.7605414,-0.331444,0.618972,2.097181,-30.08552,-1.831179,-8.385266
43,531902535,96.96347,6.7208176,138.73843,-0.29582787,1.4136039,2.6582565,-48.891304,-30.44524,-3.3224666,-0.336374,0.642532,2.141485,-30.900375,-2.3386,-8.44064
44,531919202,97.36153,6.2387314,143.83711,-0.36256218,1.1973441,2.43566,-50.148846,-32.351665,-0.38990486,-0.342417,0.662488,2.182079,-31.736189,-2.877794,-8.447138
45,531935869,97.816505,5.7035217,149.96104,-0.45228958,0.9204539,2.18001,-51.695236,-34.19561,3.004226,-0.349955,0.677829,2.218413,-32.597776,-3.447721,-8.397068
46,531952536,96.40654,5.1137314,150.89572,-0.49916458,0.7430827,1.9622949,-52.76805,-36.749664,5.815779,-0.358274,0.690214,2.251118,-33.477244,-4.060215,-8.300138
47,531969203,92.9246,4.4653397,146.15675,-0.5011015,0.669795,1.782527,-53.33086,-40.004772,7.988115,-0.366626,0.701377,2.280827,-34.366092,-4.726961,-8.167003
48,531985870,88.296005,3.7594223,138.54816,-0.485569,0.6354922,1.6163476,-53.722614,-43.752304,10.003809,-0.374719,0.711969,2.307766,-35.261469,-5.456166,-8.000273
49,532002537,81.96006,2.9935608,126.328384,-0.43543816,0.6818436,1.4818295,-53.74132,-48.192757,11.585587,-0.381976,0.723333,2.332463,-36.157158,-6.259379,-7.80718
50,532019204,74.99001,2.1605377,113.35373,-0.39688587,0.6941181,1.3230959,-53.905266,-52.67873,13.4137335,-0.388591,0.734902,2.354515,-37.055579,-7.137358,-7.583618
51,532035871,67.4268,1.2583771,99.79274,-0.37250805,0.6662061,1.1378645,-54.24607,-57.198948,15.533006,-0.394799,0.746005,2.373479,-37.95968,-8.090674,-7.324735
52,532052538,58.220737,0.2870102,82.16059,-0.32465935,0.6909546,0.96944094,-54.331997,-62.253628,17.366474,-0.40021,0.757521,2.389636,-38.865213,-9.128234,-7.035294
53,532069205,47.562634,-0.75681305,61.19721,-0.2631178,0.7441438,0.8061258,-54.272854,-67.71529,19.058504,-0.404595,0.769923,2.403071,-39.769761,-10.256822,-6.717652
54,532085872,37.525562,-1.3070908,41.676296,-0.18577766,0.73594916,0.6349823,-53.60699,-72.12666,20.869827,-0.407691,0.782189,2.413654,-40.663211,-11.458933,-6.369822
55,532102539,28.138954,-1.3074875,23.540644,-0.0875473,0.669096,0.4600583,-52.22976,-75.40495,22.7497,-0.40915,0.793341,2.421322,-41.533707,-12.715682,-5.99066
56,532119206,18.511642,-1.0267105,4.94487,0.024230957,0.56984854,0.279716,-50.42743,-78.15409,24.668228,-0.408746,0.802838,2.425984,-42.374164,-14.01825,-5.579523
57,532135873,9.159439,-0.30155945,-12.959416,0.15184784,0.4161336,0.09192559,-48.04524,-79.97405,26.673223,-0.406215,0.809774,2.427516,-43.174918,-15.351151,-5.134969
58,532152540,-1.4437103,0.54119873,-33.958942,0.3041277,0.28421625,-0.08414067,-45.232304,-81.84799,28.462337,-0.401146,0.814511,2.426114,-43.92879,-16.715284,-4.660597
59,532169207,-13.409515,1.4881516,-58.30738,0.48145103,0.17685625,-0.24794061,-41.99124,-83.81469,30.02099,-0.393122,0.817459,2.421982,-44.628644,-18.112195,-4.160247
60,532185874,-25.556252,2.850937,-83.191574,0.68222904,0.03743732,-0.4102232,-38.09655,-85.02788,31.531343,-0.381752,0.818083,2.415145,-45.263586,-19.529326,-3.634725
61,532202541,-38.23066,4.569725,-109.47675,0.9090977,-0.11789936,-0.56649655,-33.561264,-85.68014,32.921158,-0.3666,0.816118,2.405703,-45.82294,-20.957328,-3.086039
62,532219208,-47.828773,5.939865,-127.93118,1.1114025,-0.2801481,-0.8069178,-29.11368,-85.212036,33.75702,-0.348077,0.811449,2.392254,-46.308168,-22.377529,-2.523422
63,532235875,-53.850777,6.9415817,-137.32,1.2850008,-0.45494324,-1.1411978,-24.77299,-83.44005,34.003593,-0.32666,0.803867,2.373234,-46.721051,-23.768196,-1.956695
64,532252542,-58.2315,7.8773193,-142.59705,1.4564295,-0.63552433,-1.5234832,-20.182491,-80.733696,33.803925,-0.302386,0.793275,2.347843,-47.057426,-25.113758,-1.393296
65,532269209,-59.889244,8.566315,-141.01604,1.6119585,-0.82113785,-1.9796964,-15.521471,-76.87814,33.027596,-0.27552,0.779589,2.314848,-47.316117,-26.39506,-0.842836
66,532285876,-60.609932,9.510353,-137.21335,1.781414,-1.0320549,-2.4604185,-10.282553,-71.942024,31.95758,-0.24583,0.762388,2.273841,-47.487493,-27.594094,-0.31021
67,532302543,-60.48069,10.741974,-131.4338,1.9672947,-1.2682929,-2.9629195,-4.4165025,-65.905174,30.587156,-0.213042,0.74125,2.224459,-47.561101,-28.692514,0.199576
68,532319210,-57.611656,11.859398,-118.84407,2.1429577,-1.5196226,-3.5352314,1.6815996,-58.508152,28.648836,-0.177326,0.715923,2.165538,-47.533074,-29.66765,0.677057
69,532335877,-52.309654,12.972382,-100.261536,2.314825,-1.7906582,-4.16806,8.133359,-49.72214,26.184685,-0.138746,0.686079,2.09607,-47.397518,-30.496352,1.113468
70,532352544,-49.662514,13.993454,-89.88014,2.4487066,-1.9620302,-4.5993857,13.054533,-42.7679,24.35207,-0.097934,0.653378,2.019414,-47.179942,-31.20915,1.519336
71,532369211,-49.842354,14.864906,-88.281425,2.5373793,-2.0212128,-4.810297,16.211882,-37.886745,23.21871,-0.055644,0.619691,1.939242,-46.909744,-31.840596,1.906314
72,532385878,-50.5718,15.702438,-89.13022,2.6008778,-2.0278258,-4.918899,18.578476,-33.50023,22.252811,-0.012296,0.585894,1.85726,-46.600103,-32.398933,2.277194
73,532402545,-53.157066,16.46556,-96.12848,2.627839,-1.9475627,-4.8525777,19.598068,-30.486372,21.765102,0.031501,0.553435,1.776384,-46.273469,-32.907039,2.639946
74,532419212,-54.06579,17.103004,-99.596344,2.6309137,-1.8465064,-4.7759676,20.266844,-26.861795,20.992548,0.07535,0.52266,1.696785,-45.935688,-33.354736,2.989822
75,532435879,-53.047905,17.616226,-98.89705,2.6102161,-1.7280529,-4.696887,20.63254,-22.49108,19.887646,0.118854,0.493859,1.618504,-45.591812,-33.729587,3.321283
76,532452546,-52.956154,17.988457,-101.994865,2.5483446,-1.528233,-4.4686437,19.68838,-19.1258,19.09931,0.161326,0.468388,1.544027,-45.263672,-34.04835,3.639605
77,532469213,-53.009895,18.202553,-106.79921,2.4466028,-1.2593722,-4.123473,17.612041,-16.352598,18.467327,0.202103,0.447398,1.475302,-44.970138,-34.320893,3.947394
78,532485880,-52.578316,18.374512,-109.15512,2.2928352,-1.0879991,-3.8719478,16.317522,-11.5938835,17.059307,0.240317,0.429265,1.41077,-44.698179,-34.514124,4.231716
79,532502547,-51.940575,18.501862,-109.64913,2.0816526,-1.0204816,-3.7133045,15.822723,-4.834092,14.867891,0.275011,0.412257,1.348882,-44.434467,-34.594692,4.479514
80,532519214,-50.85546,18.508736,-108.83895,1.8177996,-0.98469144,-3.5667436,15.3031845,2.9726722,12.228445,0.305308,0.395845,1.289436,-44.179414,-34.545147,4.683321
81,532535881,-49.24436,18.417717,-105.8539,1.4953394,-1.024154,-3.4841106,15.229748,12.479713,8.902162,0.33023,0.378776,1.231367,-43.925585,-34.337152,4.83169
82,532552548,-48.174583,18.147575,-105.12594,1.1143169,-1.0237985,-3.3015,14.184118,21.734722,5.597685,0.348802,0.361713,1.176342,-43.689183,-33.974907,4.924985
83,532569215,-47.656303,17.68142,-106.798225,0.6724348,-0.97664803,-3.0088909,12.058212,30.642208,2.3455658,0.360009,0.345436,1.126194,-43.488213,-33.464204,4.964078
84,532585882,-47.11933,17.071808,-107.99446,0.16256142,-0.97717494,-2.7305186,9.939365,40.728493,-1.4119698,0.362718,0.32915,1.080685,-43.322557,-32.785396,4.940545
85,532602549,-46.8068,16.292755,-109.70437,-0.4176092,-1.0008221,-2.4298263,7.5013504,51.578197,-5.526953,0.355758,0.31247,1.040188,-43.197534,-31.925759,4.848429
86,532619216,-45.79229,15.488075,-111.3771,-0.9177904,-0.9963704,-2.189246,5.0741787,60.01923,-9.131722,0.340461,0.295864,1.003701,-43.112964,-30.925439,4.696234
87,532635883,-43.95951,14.671753,-112.719505,-1.3259373,-0.97074264,-2.0308282,2.8060424,65.91227,-12.20776,0.318362,0.279685,0.969854,-43.066197,-29.826901,4.492771
88,532652550,-41.940468,13.7511215,-114.74044,-1.7163496,-0.93184084,-1.8899359,0.30321503,70.46282,-15.0645075,0.289756,0.264154,0.938355,-43.061143,-28.652521,4.241696
89,532669217,-39.484993,12.763824,-117.26745,-2.0477214,-0.86891776,-1.7939526,-2.3126721,72.80587,-17.472868,0.255627,0.249672,0.908456,-43.099688,-27.43909,3.950482
90,532685884,-36.99903,11.6269455,-119.93268,-2.411766,-0.83614093,-1.7257836,-4.9834895,75.15991,-20.081425,0.215431,0.235736,0.879693,-43.182746,-26.186425,3.615792
91,532702551,-34.553703,10.328049,-122.86968,-2.8146687,-0.8354934,-1.6821545,-7.7376,77.591965,-22.9123,0.16852,0.221811,0.851657,-43.311706,-24.893226,3.23392
92,532719218,-31.741096,8.938385,-126.14064,-3.1746483,-0.8318073,-1.6973219,-10.491085,78.22209,-25.44112,0.115609,0.207948,0.823368,-43.486557,-23.589524,2.809901
93,532735885,-28.662262,7.4366302,-129.71689,-3.5106611,-0.8373062,-1.7694051,-13.22957,77.47806,-27.798069,0.057098,0.193993,0.793878,-43.70705,-22.298223,2.3466
94,532752552,-25.443542,6.2078323,-133.4159,-3.7505155,-0.8516697,-1.7400984,-15.534876,76.03328,-29.03582,-0.005411,0.179799,0.764876,-43.965965,-21.031002,1.86267
95,532769219,-22.044334,5.2989273,-137.22612,-3.874918,-0.87205464,-1.6015002,-17.333508,73.67635,-28.98491,-0.069993,0.165265,0.738184,-44.254857,-19.803063,1.379588
96,532785886,-18.47683,4.5133286,-141.2339,-3.9288974,-0.9079804,-1.4296573,-18.798046,70.32879,-28.167068,-0.135475,0.150132,0.714356,-44.568158,-18.630917,0.910137
97,532802553,-14.759247,3.9646454,-145.38898,-3.8866935,-0.959277,-1.1833621,-19.786282,66.07066,-26.27938,-0.200253,0.134144,0.694633,-44.897929,-17.529739,0.472147
98,532819220,-10.735901,3.4453354,-149.89499,-3.7670484,-1.0179868,-0.9651624,-20.511911,59.945812,-23.712126,-0.263037,0.117178,0.678547,-45.239794,-16.530642,0.076945
99,532835887,-6.4027023,2.9458084,-154.76793,-3.568954,-1.0857353,-0.7830967,-20.96089,51.86976,-20.471378,-0.32252,0.099082,0.665495,-45.589142,-15.666146,-0.264245
100,532852554,-1.8473282,2.6738129,-159.86528,-3.25699,-1.1668546,-0.55145323,-20.881691,42.330177,-16.070965,-0.376803,0.079634,0.656304,-45.93717,-14.960643,-0.532094
101,532869221,2.9664154,2.5922394,-165.23636,-2.8310122,-1.2604754,-0.29288733,-20.293865,31.064325,-10.5599375,-0.423987,0.058626,0.651423,-46.275401,-14.442904,-0.708093
102,532885888,6.626587,2.4092789,-169.37794,-2.4981008,-1.3274817,-0.10107462,-19.348902,22.39395,-6.5571303,-0.465622,0.036501,0.649738,-46.597883,-14.069672,-0.817379
103,532902555,8.984077,2.131607,-172.12411,-2.2694983,-1.3646426,0.025114134,-18.00228,16.747063,-4.22387,-0.503447,0.013757,0.650157,-46.897921,-13.790554,-0.887777
104,532919222,10.728508,1.8806763,-174.21675,-2.043089,-1.3901625,0.114164636,-16.16755,11.856802,-2.3249204,-0.537498,-0.009412,0.65206,-47.16738,-13.592941,-0.926526
105,532935889,11.451111,1.5891647,-175.21782,-1.8729019,-1.3930507,0.14231278,-13.8538475,8.935123,-1.5626026,-0.568713,-0.03263,0.654432,-47.398277,-13.444022,-0.952569
106,532952556,11.941612,1.4906387,-175.95938,-1.6242256,-1.3982053,0.1844251,-10.864849,5.540034,-0.25361437,-0.595783,-0.055933,0.657506,-47.579358,-13.351688,-0.956796
107,532969223,12.234901,1.6051407,-176.47789,-1.285861,-1.4068832,0.24270314,-7.159245,1.4946897,1.7141062,-0.617214,-0.079381,0.661551,-47.698679,-13.326777,-0.928228
108,532985890,11.564766,1.7650452,-175.95825,-0.9701338,-1.3968687,0.25927034,-2.8187604,-0.91600364,2.896321,-0.633383,-0.102662,0.665872,-47.745658,-13.342044,-0.879956
109,533002557,10.075119,2.0270233,-174.55081,-0.6468859,-1.3730762,0.24934955,2.2264528,-2.1875207,3.648541,-0.644164,-0.125547,0.670028,-47.70855,-13.378503,-0.819147
110,533019224,9.075264,2.2015762,-173.63782,-0.39771843,-1.3190818,0.28902674,5.5398436,-4.0993943,4.3010826,-0.650793,-0.147532,0.674845,-47.616219,-13.446826,-0.747462
111,533035891,8.5686035,2.2554016,-173.22008,-0.2448492,-1.229819,0.37866884,6.8894057,-6.484061,4.690411,-0.654874,-0.168029,0.681156,-47.501396,-13.554894,-0.669288
112,533052558,8.006149,2.3218307,-172.71535,-0.12943172,-1.1156831,0.49235475,7.4898643,-8.78691,4.885634,-0.657031,-0.186624,0.689362,-47.376565,-13.701343,-0.587861
113,533069225,7.7075424,2.345047,-172.45914,-0.079600334,-0.97046906,0.6496859,6.65312,-11.37766,4.9096804,-0.658358,-0.202798,0.70019,-47.26568,-13.890971,-0.506033
114,533085892,6.6809998,2.4006348,-171.40068,-0.07589054,-0.7970578,0.79065305,5.7981625,-12.59382,4.187184,-0.659623,-0.216082,0.713368,-47.169044,-14.100868,-0.436247
115,533102559,4.8527985,2.5004578,-169.45978,-0.116846085,-0.5948921,0.91299856,5.0089493,-12.311719,2.6838777,-0.66157,-0.225997,0.728585,-47.085562,-14.306063,-0.391516
116,533119226,2.974411,2.5579376,-167.42847,-0.23953438,-0.35606486,1.0635486,2.9649105,-11.620758,0.67397577,-0.665562,-0.231931,0.746311,-47.036147,-14.499742,-0.380283
117,533135893,0.81742096,2.589592,-165.06297,-0.44277,-0.07996774,1.2298901,-0.0552907,-10.112826,-1.9943119,-0.672942,-0.233264,0.766809,-47.037069,-14.668289,-0.413522
118,533152560,-1.2448578,2.5523453,-163.01239,-0.5324507,0.10969919,1.293668,-2.3257575,-9.431734,-4.3414664,-0.681816,-0.231436,0.78837,-47.075832,-14.825485,-0.48588
119,533169227,-3.096695,2.4274368,-161.42313,-0.4982624,0.20279557,1.2486624,-3.8767781,-9.814061,-6.2778296,-0.69012,-0.228056,0.809181,-47.140445,-14.989053,-0.59051
120,533185894,-5.081291,2.2438583,-159.81012,-0.43450832,0.25904706,1.1421928,-5.367048,-10.156033,-8.402193,-0.697362,-0.223739,0.828218,-47.229896,-15.15832,-0.730547
121,533202561,-7.073654,1.9825668,-158.37793,-0.2904663,0.24411884,0.9417851,-6.3843017,-10.921669,-10.457054,-0.702203,-0.21967,0.843914,-47.336301,-15.340348,-0.904831
122,533219228,-9.117577,1.6459656,-156.93115,-0.19190311,0.23290178,0.72813046,-8.3039,-11.368208,-12.979111,-0.705401,-0.215788,0.85605,-47.474699,-15.529818,-1.12115
123,533235895,-11.237312,1.2307205,-155.43689,-0.14883518,0.22982281,0.5040115,-11.218594,-11.384857,-16.04072,-0.707882,-0.211958,0.86445,-47.661676,-15.719566,-1.388495
124,533252562,-13.296463,0.71456146,-154.179,-0.05596161,0.16722247,0.20016955,-14.113644,-11.737072,-19.164759,-0.708815,-0.209171,0.867786,-47.896903,-15.915184,-1.707908
125,533269229,-15.301376,0.093063354,-153.12251,0.058869362,0.060106397,-0.16777821,-17.304647,-12.25327,-22.482206,-0.707834,-0.208169,0.86499,-48.185314,-16.119405,-2.082611
126,533285896,-17.981003,-0.26087952,-150.98492,0.10644531,-0.023875654,-0.4739136,-20.250647,-13.324016,-24.239553,-0.70606,-0.208567,0.857091,-48.522825,-16.341472,-2.486604
127,533302563,-21.376808,-0.3178177,-147.69246,0.09080219,-0.08799285,-0.71568394,-22.795345,-15.101448,-24.200388,-0.704547,-0.210034,0.845163,-48.902747,-16.593163,-2.889944
128,533319230,-25.14067,-0.26078033,-143.83833,0.03480053,-0.15542859,-0.9433421,-25.426281,-17.294167,-23.28018,-0.703967,-0.212624,0.829441,-49.326518,-16.881399,-3.277947
129,533335897,-29.465355,0.012672424,-139.07993,-0.08323288,-0.21075189,-1.1245365,-27.967142,-20.0607,-20.952076,-0.705354,-0.216137,0.810699,-49.792637,-17.215744,-3.627148
130,533352564,-33.892807,0.2751236,-134.23697,-0.18621922,-0.31210512,-1.3522058,-30.497213,-23.35755,-18.121014,-0.708458,-0.221339,0.788162,-50.300924,-17.605036,-3.929165
131,533369231,-38.390007,0.51156616,-129.36162,-0.2719803,-0.46333116,-1.6314548,-33.053783,-27.195843,-14.8257885,-0.712991,-0.229061,0.760971,-50.85182,-18.0583,-4.176261
132,533385898,-43.349632,0.924881,-123.7495,-0.39728737,-0.62352616,-1.888538,-35.438023,-31.764168,-10.127111,-0.719612,-0.239453,0.729495,-51.442454,-18.587703,-4.345046
133,533402565,-48.673607,1.4682846,-117.57217,-0.54610443,-0.8062841,-2.1433794,-37.664886,-37.083366,-4.180242,-0.728714,-0.252891,0.693772,-52.070202,-19.205759,-4.414717
134,533419232,-53.92272,1.905365,-112.728836,-0.6039591,-0.90118176,-2.3422997,-38.181625,-40.03801,-0.8514923,-0.73878,-0.267911,0.654734,-52.706562,-19.873059,-4.428909
135,533435899,-59.104515,2.241394,-109.31749,-0.56575966,-0.8932995,-2.4706688,-36.78284,-40.37276,-0.3654701,-0.748209,-0.282799,0.613556,-53.319609,-20.545938,-4.435
136,533452566,-64.3614,2.5591583,-106.55693,-0.47428608,-0.84472424,-2.5668921,-34.19038,-39.59609,-0.9674386,-0.756114,-0.296878,0.570774,-53.889449,-21.205873,-4.451124
137,533469233,-69.584465,2.801674,-104.96369,-0.29816246,-0.72296244,-2.612426,-29.926165,-36.843987,-3.6974344,-0.761083,-0.308927,0.527234,-54.388218,-21.819939,-4.512748
138,533485900,-75.12768,3.160408,-103.26034,-0.11849022,-0.58240396,-2.618721,-24.82277,-33.99883,-6.0330453,-0.763058,-0.318634,0.483589,-54.801931,-22.386586,-4.613299
139,533502567,-81.00573,3.6460876,-101.39517,0.062503815,-0.42685884,-2.586489,-18.886423,-31.173315,-7.825518,-0.762016,-0.325748,0.440481,-55.116705,-22.906141,-4.743724
140,533519234,-86.95049,4.116806,-100.46283,0.31344128,-0.19978845,-2.4918933,-11.24589,-26.666637,-11.235217,-0.756792,-0.329078,0.398949,-55.304136,-23.350585,-4.930978
141,533535901,-93.037025,4.615204,-100.21162,0.6187897,0.08867943,-2.335247,-2.026791,-20.856699,-15.739386,-0.746479,-0.3276,0.360028,-55.337916,-23.698197,-5.193301
142,533552568,-86.65244,4.9984055,-99.11417,0.7778835,0.3229735,-2.2221723,4.163792,-16.495378,-18.47382,-0.733514,-0.322217,0.322992,-55.268519,-23.97312,-5.501198
143,533569235,-66.46665,5.236702,-97.17463,0.78036976,0.5011187,-2.1570601,7.0243015,-13.609161,-19.445206,-0.720508,-0.313865,0.287041,-55.151447,-24.199939,-5.825285
144,533585902,-38.425774,5.4275284,-94.96401,0.71155167,0.67281246,-2.0876875,8.686031,-11.124971,-19.671783,-0.708649,-0.302651,0.252246,-55.00668,-24.385355,-6.153148
145,533602569,1.1541901,5.5258484,-92.10306,0.5172548,0.8091328,-2.0408492,7.8972197,-9.737393,-18.434044,-0.700028,-0.289165,0.218232,-54.87506,-24.547645,-6.460382
146,533619236,45.128506,5.5789413,-89.78863,0.3333025,0.9935534,-1.946287,7.6097527,-7.3846645,-17.965178,-0.694473,-0.272606,0.185794,-54.748231,-24.670723,-6.759802
147,533635903,93.25475,5.5919952,-88.08813,0.16624737,1.2320321,-1.7975925,7.9980087,-3.9506767,-18.370855,-0.691702,-0.252072,0.155834,-54.614931,-24.736568,-7.065983
148,533652570,152.4863,5.499634,-86.09073,-0.09911251,1.4591873,-1.6516434,6.4979825,-1.0453146,-17.93115,-0.693354,-0.227752,0.128307,-54.506631,-24.75399,-7.364836
149,533669237,221.56427,5.309288,-84.05967,-0.43525887,1.6937902,-1.492147,3.7163272,1.7787929,-17.123142,-0.700608,-0.199522,0.103438,-54.444692,-24.724343,-7.650222
150,533685904,268.41483,5.2281036,-82.38888,-0.6396246,1.8332722,-1.4206427,2.0057807,3.849038,-16.458723,-0.711268,-0.168967,0.079761,-54.411262,-24.660192,-7.924534
151,533702571,290.95944,5.26355,-81.01642,-0.70770454,1.8597009,-1.4539632,1.242722,4.9047294,-15.784702,-0.723063,-0.137972,0.055528,-54.39055,-24.578447,-8.187612
152,533719238,303.6852,5.319031,-79.94304,-0.7177553,1.834353,-1.5328617,0.6917429,5.5659733,-15.183998,-0.735026,-0.107399,0.02998,-54.379021,-24.485681,-8.440679
153,533735905,297.83572,5.447365,-79.25618,-0.6171293,1.7253768,-1.6885966,0.8950429,5.5796695,-14.743425,-0.745311,-0.078643,0.001837,-54.364104,-24.392687,-8.686403
154,533752572,294.03415,5.508316,-78.503815,-0.5544853,1.5758429,-1.8758858,-0.20718575,4.9192805,-13.718406,-0.754552,-0.052379,-0.029428,-54.367557,-24.310699,-8.915043
155,533769239,293.38065,5.4908066,-77.68667,-0.5368576,1.388396,-2.092038,-2.7298675,3.5998166,-12.098042,-0.7635,-0.029239,-0.064295,-54.413055,-24.250702,-9.116677
156,533785906,277.89798,5.5084305,-77.10423,-0.44488811,1.1118426,-2.3886826,-5.2184196,1.3834662,-10.312347,-0.770915,-0.010708,-0.104106,-54.500029,-24.227644,-9.288549
157,533802573,251.74997,5.529602,-76.66487,-0.3096094,0.75304806,-2.7583253,-8.141977,-1.7647804,-8.194334,-0.776075,0.001843,-0.150078,-54.635729,-24.257057,-9.425121
158,533819240,238.58875,5.5323563,-76.040146,-0.23629189,0.5515568,-2.9413936,-8.8623295,-3.1850884,-6.752877,-0.780013,0.011036,-0.199101,-54.783434,-24.310142,-9.537669
159,533835907,238.22736,5.527809,-75.228065,-0.2202816,0.5216907,-2.9212651,-6.9724145,-2.6897154,-6.1168,-0.783684,0.019731,-0.247789,-54.899641,-24.354971,-9.639616
160,533852574,242.0397,5.5040817,-74.31988,-0.23232746,0.5526203,-2.8174653,-4.0574784,-1.5923736,-5.6825027,-0.787556,0.028941,-0.294747,-54.967266,-24.381511,-9.734324
161,533869241,255.8628,5.4587097,-73.227425,-0.2977457,0.7086705,-2.559601,0.6705251,0.8238905,-5.736875,-0.792518,0.040752,-0.337407,-54.956091,-24.367779,-9.829939
162,533885908,261.03778,5.431381,-72.2254,-0.32375622,0.8354345,-2.3133888,6.0356503,2.9256868,-5.8022876,-0.797914,0.054676,-0.375963,-54.855497,-24.319018,-9.926644
163,533902575,256.54276,5.421974,-71.31733,-0.30682278,0.9232507,-2.0885289,11.939995,4.593621,-5.8296742,-0.803028,0.070064,-0.410772,-54.656497,-24.242458,-10.023805
164,533919242,256.50797,5.409462,-70.28673,-0.3141985,1.1047436,-1.7409829,19.685171,7.259199,-6.308698,-0.808265,0.088476,-0.439788,-54.328411,-24.121471,-10.12895
165,533935909,256.83533,5.402649,-69.18641,-0.3259058,1.3476658,-1.3047413,29.055443,10.576102,-7.1408834,-0.813697,0.110937,-0.461534,-53.844154,-23.945203,-10.247965
166,533952576,256.24716,5.3414993,-68.37959,-0.3227806,1.4980466,-1.0458897,35.08879,12.597673,-7.05247,-0.819077,0.135904,-0.478965,-53.259341,-23.735242,-10.365506
167,533969243,256.19455,5.2189636,-67.87323,-0.3101778,1.5584335,-0.9712119,37.512325,13.322405,-5.9913945,-0.824247,0.161878,-0.495152,-52.634136,-23.513202,-10.465363
168,533985910,254.39536,5.070137,-67.52795,-0.28305626,1.5808415,-0.9766828,38.56379,13.443993,-4.5003223,-0.828965,0.188225,-0.51143,-51.991406,-23.289135,-10.540368
169,534002577,250.89499,4.878151,-67.43774,-0.23765182,1.5273691,-1.131727,36.914948,12.470555,-2.2432957,-0.832926,0.213681,-0.530292,-51.376157,-23.081292,-10.577756
170,534019244,249.94916,4.6723175,-67.32809,-0.20232582,1.5221868,-1.243911,35.806095,11.896382,-0.08372743,-0.836298,0.239051,-0.551024,-50.779389,-22.883019,-10.579151
171,534035911,251.44788,4.4555817,-67.185555,-0.17668247,1.5711783,-1.3041312,35.428898,11.789421,1.9311664,-0.839243,0.265237,-0.57276,-50.188907,-22.686529,-10.546965
172,534052578,253.4046,4.198601,-67.227325,-0.14346886,1.580873,-1.4681473,33.01764,10.987543,4.52152,-0.841634,0.291585,-0.597229,-49.638613,-22.503403,-10.471606
173,534069245,256.74902,3.9075089,-67.395355,-0.10846615,1.5781207,-1.6959704,29.245514,9.806751,7.507592,-0.843442,0.317887,-0.625495,-49.151188,-22.339957,-10.346479
174,534085912,258.39188,3.6678772,-67.47003,-0.089894295,1.5625278,-1.8292664,26.764301,9.104457,9.153763,-0.84494,0.343929,-0.655983,-48.705116,-22.188216,-10.193916
175,534102579,257.9826,3.483879,-67.45601,-0.08806324,1.5233972,-1.87224,25.463284,8.826019,9.378863,-0.846408,0.369319,-0.687187,-48.280728,-22.041116,-10.037602
176,534119246,257.7256,3.3189087,-67.41771,-0.09856033,1.479502,-1.8734716,24.518055,8.780505,8.881484,-0.848051,0.393977,-0.718412,-47.872094,-21.894774,-9.889577
177,534135913,256.8233,3.1959152,-67.30008,-0.12648869,1.4277985,-1.7940689,24.556023,9.172337,7.191717,-0.850159,0.417774,-0.748313,-47.462827,-21.741902,-9.769715
178,534152580,256.5575,3.0579453,-67.286835,-0.15644932,1.3445065,-1.7674019,23.301653,9.200432,5.499556,-0.852766,0.440182,-0.77777,-47.074466,-21.588561,-9.678056
179,534169247,257.20798,2.9021606,-67.38378,-0.18854523,1.2302201,-1.7988478,20.64202,8.842809,3.8518693,-0.855908,0.460686,-0.807751,-46.730432,-21.441181,-9.613858
180,534185914,257.5104,2.776947,-67.45223,-0.23522854,1.0932208,-1.7893354,18.219604,8.669948,1.2396153,-0.859828,0.478906,-0.837573,-46.426772,-21.296682,-9.593198
181,534202581,257.8173,2.6707077,-67.53026,-0.29375458,0.9278842,-1.7673873,15.529108,8.512543,-2.1018803,-0.864724,0.494371,-0.867029,-46.167954,-21.154806,-9.628229
182,534219248,258.0892,2.5850449,-67.5983,-0.32927322,0.8330302,-1.7651651,13.631372,7.862792,-3.9225235,-0.870212,0.508255,-0.896448,-45.940764,-21.023759,-9.693604
183,534235915,258.18103,2.5269928,-67.6374,-0.3401327,0.81797475,-1.774681,12.80331,6.7310085,-4.1376133,-0.875881,0.521888,-0.926026,-45.727375,-20.911576,-9.762564
184,534252582,258.38803,2.4888382,-67.68173,-0.34125233,0.83139044,-1.8005165,12.18247,5.237497,-3.6634555,-0.881569,0.535745,-0.956035,-45.524334,-20.824284,-9.823622
185,534269249,258.663,2.473732,-67.72026,-0.32331848,0.90079063,-1.8489288,12.112585,3.2501771,-1.9035518,-0.886958,0.550758,-0.98685,-45.322458,-20.770114,-9.855348
186,534285916,258.82742,2.4944077,-67.7258,-0.31044388,0.97089493,-1.8755525,12.386027,1.2123904,-0.44178683,-0.892132,0.56694,-1.018109,-45.116024,-20.749907,-9.862711
187,534302583,258.91235,2.5521393,-67.69797,-0.30390835,1.037724,-1.8803073,12.948084,-0.8713098,0.6456672,-0.897197,0.584235,-1.049447,-44.900223,-20.764429,-9.85195
188,534319250,258.9616,2.6447525,-67.638145,-0.28360748,1.1530198,-1.8902148,14.218355,-3.3399155,2.6663847,-0.901924,0.603452,-1.080951,-44.66325,-20.820094,-9.80751
189,534335917,258.94507,2.7764816,-67.53814,-0.2545414,1.305585,-1.8958439,16.166351,-6.1073365,5.2942996,-0.906166,0.625212,-1.112548,-44.393811,-20.921883,-9.719272
190,534352584,259.25473,2.8833466,-67.71195,-0.23739052,1.395606,-1.8850399,16.993368,-8.045729,6.894117,-0.910123,0.648472,-1.143965,-44.110588,-21.055978,-9.60437
191,534369251,259.9275,2.9606094,-68.187614,-0.23154831,1.4207659,-1.858756,16.612148,-9.084857,7.475126,-0.913982,0.672151,-1.174944,-43.833719,-21.207392,-9.479785
192,534385918,260.75778,3.0429153,-68.809105,-0.23047161,1.4214718,-1.8156985,15.87734,-9.700471,7.599257,-0.917823,0.695842,-1.205206,-43.569097,-21.369067,-9.353131
193,534402585,261.8541,3.1133804,-69.66411,-0.2391777,1.3720257,-1.7524313,14.320783,-9.580897,6.8555636,-0.921809,0.718709,-1.234413,-43.330417,-21.528749,-9.238872
194,534419252,263.0166,3.2105255,-70.56933,-0.24030209,1.3441513,-1.6830744,13.105195,-9.474783,6.543661,-0.925814,0.741112,-1.262464,-43.111997,-21.686662,-9.129811
195,534435919,264.23068,3.3381805,-71.51338,-0.2330532,1.3418117,-1.6068021,12.319166,-9.411765,6.721127,-0.929698,0.763476,-1.289244,-42.906678,-21.843525,-9.017792
196,534452586,265.69147,3.4630585,-72.665276,-0.23023796,1.3074234,-1.5130938,10.989165,-8.74024,6.3926153,-0.933535,0.785266,-1.314462,-42.723525,-21.989196,-8.911248
197,534469253,267.35956,3.5939865,-73.988495,-0.22807598,1.2562728,-1.4042021,9.370395,-7.6058745,5.834455,-0.937336,0.806204,-1.337865,-42.567352,-22.115961,-8.814007
198,534485920,268.17795,3.7103653,-74.97852,-0.21172428,1.2168983,-1.3483398,8.03004,-6.5948052,5.389772,-0.940865,0.826486,-1.360337,-42.433518,-22.225874,-8.724177
199,534502587,268.06943,3.8059464,-75.60953,-0.18105888,1.1849723,-1.3508217,6.9027996,-5.6688786,4.974703,-0.943883,0.846236,-1.382851,-42.318471,-22.320355,-8.641265
200,534519254,267.50787,3.8964157,-76.0973,-0.14036274,1.1572402,-1.3807011,5.8944025,-4.6342607,4.614936,-0.946222,0.865523,-1.405863,-42.220231,-22.397593,-8.564349
201,534535921,266.1995,3.9744263,-76.30596,-0.08566189,1.1396136,-1.4570769,5.128871,-3.6204908,4.3743234,-0.94765,0.884517,-1.430148,-42.13475,-22.457935,-8.491444
202,534552588,264.80573,4.0439835,-76.57302,-0.028700829,1.10058,-1.5368862,4.0372868,-2.0972137,3.792961,-0.948128,0.90286,-1.455763,-42.067462,-22.492889,-8.428228
203,534569255,263.35663,4.105385,-76.91514,0.030381203,1.0391542,-1.618146,2.6023555,-0.027548313,2.8632808,-0.947622,0.920179,-1.482732,-42.024089,-22.493348,-8.380507
204,534585922,261.26016,4.1495056,-77.04515,0.10102081,0.97554016,-1.7394077,1.2059546,2.2272696,1.8609799,-0.945938,0.936438,-1.511722,-42.00399,-22.456227,-8.349491
205,534602589,258.64465,4.176323,-77.03149,0.18099785,0.90268093,-1.8922974,-0.27648258,4.7940226,0.68394655,-0.942921,0.951483,-1.54326,-42.008598,-22.376327,-8.338092
206,534619256,258.72406,4.157013,-77.03225,0.21771622,0.8567866,-1.9604682,-1.3960876,6.677457,-0.035193883,-0.939292,0.965763,-1.575934,-42.031866,-22.265036,-8.338679
207,534635923,261.73752,4.086075,-77.022896,0.20713425,0.84318614,-1.9378983,-2.0712905,7.7477226,-0.21251225,-0.93584,0.979816,-1.608232,-42.066388,-22.135907,-8.342221
208,534652590,266.25174,3.975769,-76.97033,0.1726036,0.8395618,-1.8744651,-2.6035333,8.570725,-0.22282663,-0.932963,0.993809,-1.639473,-42.10978,-21.993062,-8.345935
209,534669257,273.16376,3.8161545,-76.90471,0.099354744,0.8564964,-1.7388202,-2.857037,8.857085,0.1160532,-0.931307,1.008084,-1.668453,-42.157397,-21.845444,-8.344001
210,534685924,280.45764,3.6199265,-76.65403,0.020439148,0.87803364,-1.6090378,-2.9934745,9.103806,0.50807744,-0.930966,1.022718,-1.69527,-42.207288,-21.693714,-8.335533
211,534702591,288.04617,3.3859177,-76.20736,-0.06280041,0.90254664,-1.4890001,-3.0329137,9.349898,0.9253185,-0.932013,1.03776,-1.720087,-42.257837,-21.537882,-8.320111
212,534719258,297.7378,3.0974884,-75.67022,-0.18012142,0.94742167,-1.3123527,-2.7720733,9.088321,1.67693,-0.935015,1.05355,-1.74196,-42.304038,-21.38641,-8.292162
213,534735925,309.14417,2.755371,-75.0003,-0.32522202,1.0095279,-1.0949558,-2.2406144,8.415347,2.7040746,-0.940435,1.070375,-1.760209,-42.341382,-21.246154,-8.247094
214,534752592,310.137,2.53936,-74.82062,-0.40893173,1.0339862,-0.9537468,-1.7220769,7.6312265,3.586679,-0.947251,1.087608,-1.776105,-42.370083,-21.118967,-8.187316
215,534769259,299.7501,2.4636383,-75.20031,-0.42677212,1.0181684,-0.89135826,-1.2064185,6.681224,4.333453,-0.954364,1.104577,-1.790961,-42.39019,-21.007613,-8.115092
216,534785926,283.44724,2.442459,-75.81275,-0.417161,0.98629224,-0.8626261,-0.57014275,5.470867,5.1118455,-0.961317,1.121015,-1.805338,-42.399692,-20.916432,-8.029895
217,534802593,257.81702,2.5256119,-76.836685,-0.35617256,0.92380106,-0.8979609,0.12422562,4.047931,5.8234215,-0.967253,1.136412,-1.820304,-42.397622,-20.848966,-7.932838
218,534819260,230.34393,2.6025162,-77.934204,-0.30390167,0.86712694,-0.91166234,1.1004987,2.0907927,6.797142,-0.972318,1.150864,-1.835498,-42.37928,-20.814119,-7.819552
219,534835927,201.34221,2.6667786,-79.083954,-0.2634678,0.8183956,-0.8996953,2.381188,-0.43544522,8.058137,-0.976709,1.164504,-1.850493,-42.339594,-20.821376,-7.68525
220,534852594,164.01071,2.8174362,-80.61474,-0.184062,0.746891,-0.9309393,3.8096092,-3.349474,9.365561,-0.979777,1.176952,-1.866009,-42.276101,-20.877201,-7.529157
221,534869261,119.7728,3.0322647,-82.461586,-0.07800579,0.6602221,-0.98752296,5.4424305,-6.740627,10.796776,-0.981077,1.187956,-1.882468,-42.185394,-20.989545,-7.349211
222,534885928,84.15211,3.181717,-83.880905,-0.011123657,0.6011217,-1.0239273,6.6712294,-8.820118,11.645521,-0.981262,1.197975,-1.899533,-42.074207,-21.136547,-7.155119
223,534902595,57.663437,3.2673035,-84.85042,0.016896248,0.5698028,-1.044426,7.422748,-9.405478,11.816762,-0.98098,1.207472,-1.91694,-41.950495,-21.293305,-6.958173
224,534919262,33.77771,3.3369522,-85.68581,0.029332161,0.55105174,-1.0588348,8.028179,-9.415709,11.6996975,-0.980491,1.216656,-1.934587,-41.816692,-21.450233,-6.763178
225,534935929,16.54,3.359108,-86.19511,0.009712219,0.55577064,-1.0570004,8.311632,-8.343268,11.085469,-0.980329,1.225919,-1.952204,-41.678165,-21.589287,-6.57842
226,534952596,-5.0107727,3.436203,-86.902214,0.00990963,0.5511516,-1.0837866,8.594805,-7.198346,10.326715,-0.980164,1.235105,-1.970267,-41.534918,-21.709259,-6.406308
227,534969263,-31.505089,3.5743332,-87.83918,0.03242016,0.53577423,-1.1409727,8.900104,-6.0450606,9.445501,-0.979624,1.244035,-1.989283,-41.386583,-21.81001,-6.248883
228,534985930,-54.028282,3.6965714,-88.582436,0.037546158,0.5353068,-1.1981901,8.909437,-3.9275148,8.075771,-0.978998,1.252957,-2.009253,-41.238092,-21.875469,-6.114287
229,535002597,-74.91337,3.8257828,-89.24489,0.03642845,0.5428723,-1.2654551,8.685063,-1.0441312,6.2818227,-0.978391,1.262005,-2.030344,-41.093341,-21.892871,-6.00959
230,535019264,-91.46258,3.889618,-89.82136,0.035791397,0.5294437,-1.3174938,8.827164,1.1084983,4.899689,-0.977794,1.270829,-2.052302,-40.946222,-21.874396,-5.927929
231,535035931,-102.25507,3.8723755,-90.25828,0.03165245,0.49525166,-1.3489734,9.344753,2.5285642,3.950347,-0.977266,1.279083,-2.074785,-40.790476,-21.832253,-5.86209
232,535052598,-110.07807,3.824234,-90.63333,0.028464317,0.44936138,-1.3791966,9.987816,3.8115733,3.0690682,-0.976792,1.286572,-2.097772,-40.624012,-21.768727,-5.810939
233,535069265,-113.75808,3.7221756,-90.92772,0.026812553,0.38437235,-1.4004743,10.907114,4.588515,2.4679375,-0.976345,1.292978,-2.121113,-40.442227,-21.692252,-5.769807
234,535085932,-112.482124,3.5889359,-91.03479,0.012523651,0.32385257,-1.4200152,11.664855,5.9958816,1.5539945,-0.976136,1.298376,-2.14478,-40.247813,-21.592321,-5.743907
235,535102599,-106.21432,3.4271011,-90.952194,-0.014455795,0.26856261,-1.4393492,12.232185,8.107293,0.2857365,-0.976377,1.302852,-2.168769,-40.043943,-21.457199,-5.739145
236,535119266,-94.12263,3.203827,-90.70921,-0.046956062,0.200365,-1.4480546,12.952204,10.0541,-0.8651716,-0.97716,1.306191,-2.192903,-39.828073,-21.289631,-5.753565
237,535135933,-75.81867,2.922554,-90.27672,-0.0882206,0.12410259,-1.4476004,13.727802,12.09096,-2.03056,-0.97863,1.308259,-2.21703,-39.599276,-21.088115,-5.787408
238,535152600,-65.533485,2.6914062,-90.0192,-0.1148119,0.08085674,-1.4429617,14.465181,13.524174,-2.8695776,-0.980544,1.309607,-2.241079,-39.35819,-20.862712,-5.835234
239,535169267,-64.27509,2.5143661,-89.96569,-0.12415218,0.072561085,-1.4326334,15.194296,14.1870985,-3.291824,-0.982613,1.310816,-2.264956,-39.104952,-20.62626,-5.890098
240,535185934,-64.825676,2.3406448,-89.91626,-0.12990284,0.08313137,-1.4147886,15.89105,14.586114,-3.54845,-0.984778,1.312202,-2.288536,-38.840101,-20.383158,-5.949239
241,535202601,-70.994545,2.1978226,-89.96787,-0.12557507,0.123770565,-1.3898451,16.539244,14.495266,-3.524124,-0.986871,1.314265,-2.3117,-38.564447,-20.14157,-6.007974
242,535219268,-74.062126,2.0129929,-89.909035,-0.12305832,0.16589212,-1.3520969,17.276703,14.103047,-3.2985249,-0.988922,1.31703,-2.334235,-38.276502,-19.906519,-6.062949
243,535235935,-73.32363,1.7802658,-89.71848,-0.123597145,0.20851651,-1.3006128,18.102987,13.43448,-2.8804262,-0.990982,1.320505,-2.355912,-37.974786,-19.682611,-6.110956
244,535252602,-76.37258,1.5587921,-89.58298,-0.115662575,0.27588123,-1.2379981,18.93743,12.183813,-2.1194599,-0.99291,1.325103,-2.376545,-37.659162,-19.479547,-6.14628
245,535269269,-81.315926,1.3321075,-89.45469,-0.10181618,0.36241254,-1.1624076,19.809422,10.376367,-1.0222161,-0.994607,1.331143,-2.395918,-37.329005,-19.306608,-6.163317
246,535285936,-83.33216,1.130188,-89.38609,-0.0950861,0.43435496,-1.103188,20.037779,9.192247,-0.294759,-0.996192,1.338382,-2.414304,-36.995042,-19.153404,-6.16823
247,535302603,-82.94474,0.9630203,-89.406746,-0.095095634,0.4918143,-1.0629958,19.546476,8.682681,0.028286856,-0.997777,1.346579,-2.432021,-36.669267,-19.008693,-6.167759
248,535319270,-81.18331,0.80509186,-89.45988,-0.09729004,0.547433,-1.0262021,18.676012,8.286708,0.28889692,-0.999399,1.355703,-2.449124,-36.358,-18.870581,-6.162944
249,535335937,-77.01173,0.6671219,-89.56901,-0.10475922,0.59284014,-1.0008671,17.228195,8.308263,0.3040032,-1.001145,1.365584,-2.465805,-36.070863,-18.73211,-6.157877
250,535352604,-75.13384,0.54602814,-89.74886,-0.107050896,0.6546044,-0.96983933,15.571514,7.9667673,0.5345519,-1.002929,1.376494,-2.481969,-35.811338,-18.599331,-6.148968
251,535369271,-75.75602,0.44087982,-89.9998,-0.103554726,0.73424023,-0.9316844,13.722956,7.2000923,1.0179911,-1.004655,1.388731,-2.497497,-35.582622,-18.479329,-6.132001
252,535385938,-75.740715,0.36369324,-90.33934,-0.10197163,0.8115802,-0.90191126,11.317925,6.650429,1.3716953,-1.006355,1.402257,-2.512529,-35.39399,-18.368489,-6.109139
253,535402605,-76.15554,0.31479645,-90.77473,-0.09995365,0.89248574,-0.87685406,8.422914,6.1432886,1.6986209,-1.008021,1.417132,-2.527143,-35.253608,-18.266101,-6.080829
254,535419272,-76.18989,0.26018524,-91.08421,-0.093696594,0.93646127,-0.85734534,6.176509,5.5908036,1.9770832,-1.009583,1.43274,-2.541432,-35.150666,-18.172921,-6.047878
255,535435939,-75.49784,0.19989014,-91.25402,-0.08360672,0.9370893,-0.8456677,4.6322575,5.061838,2.1578763,-1.010976,1.448358,-2.555526,-35.073462,-18.088557,-6.011913
256,535452606,-75.27361,0.15169525,-91.39857,-0.069747925,0.91743237,-0.83916235,3.2857733,4.477082,2.3217955,-1.012138,1.463649,-2.569512,-35.018699,-18.013939,-5.973216
257,535469273,-75.26438,0.107925415,-91.45984,-0.051187515,0.86510515,-0.838922,2.4383788,3.8349512,2.447742,-1.012991,1.478067,-2.583494,-34.978059,-17.950023,-5.93242
258,535485940,-75.215324,0.0928421,-91.57618,-0.03192711,0.79828715,-0.8485466,1.3224611,3.3415701,2.4550488,-1.013523,1.491372,-2.597636,-34.956018,-17.89433,-5.891503
259,535502607,-75.27535,0.10958862,-91.76021,-0.011885643,0.7179652,-0.86838794,-0.10827255,2.9981544,2.3437989,-1.013721,1.503338,-2.612109,-34.957823,-17.844361,-5.85244
260,535519274,-75.37838,0.14051056,-91.89467,0.011797905,0.60356027,-0.8980639,-1.2123022,2.708292,2.1297884,-1.013524,1.513397,-2.627077,-34.978028,-17.799223,-5.816944
261,535535941,-75.51939,0.19207,-92.01085,0.038381577,0.4580509,-0.93879676,-2.1516328,2.5205467,1.7910734,-1.012884,1.521031,-2.642724,-35.013889,-17.757214,-5.787093
262,535552608,-75.244255,0.15107727,-92.48978,0.052892685,0.3668521,-0.9480053,-2.797813,2.9804878,1.5938756,-1.012002,1.527145,-2.658524,-35.060519,-17.707539,-5.760528
263,535569275,-74.49171,0.0047836304,-93.35617,0.054171562,0.3347226,-0.92191267,-3.052055,4.1449594,1.5575204,-1.011099,1.532724,-2.673889,-35.111387,-17.638456,-5.734569
264,535585942,-73.48675,-0.18851471,-94.45357,0.048793793,0.3224302,-0.88182724,-3.0776792,5.801021,1.5347902,-1.010286,1.538098,-2.688586,-35.162682,-17.541772,-5.708989
265,535602609,-72.08987,-0.46157837,-95.888336,0.03253746,0.35276684,-0.8158901,-2.8065457,8.114569,1.5952822,-1.009744,1.543977,-2.702184,-35.209458,-17.406529,-5.682401
266,535619276,-70.625374,-0.7522354,-97.414566,0.014915466,0.3699447,-0.74912107,-2.1402717,10.7558155,1.58291,-1.009495,1.550143,-2.714669,-35.245129,-17.227265,-5.656019
267,535635943,-69.10737,-1.0569382,-99.02485,-0.0037050247,0.37042555,-0.6831403,-1.0711737,13.7282715,1.480861,-1.009557,1.556317,-2.726055,-35.262982,-16.99846,-5.631338
268,535652610,-67.2454,-1.4363632,-100.93811,-0.031881332,0.40165144,-0.59501886,0.4279852,17.355944,1.4243816,-1.010088,1.563011,-2.735972,-35.255849,-16.709194,-5.607598
269,535669277,-65.102196,-1.8787689,-103.10848,-0.067806244,0.45187452,-0.48979932,2.395143,21.58923,1.3771867,-1.011218,1.570542,-2.744135,-35.21593,-16.349374,-5.584645
270,535685944,-63.417625,-2.191269,-104.83408,-0.086912155,0.452035,-0.42338806,3.8456924,23.51984,1.3547857,-1.012667,1.578076,-2.751191,-35.151835,-15.957377,-5.562065
271,535702611,-62.222664,-2.3641663,-106.07765,-0.088027954,0.40148026,-0.39805287,4.707925,22.911247,1.3752755,-1.014134,1.584767,-2.757825,-35.07337,-15.575523,-5.539144
272,535719278,-61.204994,-2.48217,-107.144325,-0.081707954,0.32509446,-0.39049566,5.490563,21.112394,1.4058838,-1.015496,1.590185,-2.764333,-34.981861,-15.22365,-5.515713
273,535735945,-60.560753,-2.4937592,-107.84507,-0.06139469,0.20513874,-0.41553867,5.930403,17.308481,1.4562439,-1.016519,1.593604,-2.771259,-34.883021,-14.935175,-5.491442
274,535752612,-59.779396,-2.5278473,-108.65015,-0.043771744,0.09387308,-0.43466592,6.626218,13.283281,1.5481303,-1.017249,1.595169,-2.778503,-34.772584,-14.713787,-5.46564
275,535769279,-58.83393,-2.5916595,-109.58405,-0.02972126,-0.006484568,-0.4459303,7.6290445,9.1235075,1.6809101,-1.017744,1.595061,-2.785935,-34.645433,-14.561729,-5.437625
276,535785946,-58.148582,-2.5763474,-110.24744,-0.005227089,-0.13721347,-0.481386,8.416953,3.2116525,1.8541695,-1.017831,1.592774,-2.793958,-34.50515,-14.508201,-5.406722
277,535802613,-57.617332,-2.5085983,-110.73649,0.026265144,-0.2874422,-0.5330911,9.121318,-4.106037,2.074061,-1.017393,1.587983,-2.802843,-34.353128,-14.576635,-5.372154
278,535819280,-57.20278,-2.4754562,-111.14745,0.048070908,-0.35357243,-0.5420959,9.95077,-8.484664,2.1668944,-1.016592,1.58209,-2.811878,-34.187282,-14.718046,-5.336039
279,535835947,-56.958412,-2.4708557,-111.43411,0.060400963,-0.33022672,-0.50671214,10.857535,-9.729627,2.118155,-1.015585,1.576586,-2.820323,-34.006323,-14.880206,-5.300736
280,535852614,-56.835426,-2.4707031,-111.609665,0.068930626,-0.25881386,-0.44957453,11.83014,-9.687862,2.015864,-1.014436,1.572272,-2.827816,-33.809154,-15.04167,-5.267138
281,535869281,-56.84391,-2.494728,-111.68054,0.06952381,-0.110945165,-0.3551355,12.904771,-7.2027965,1.8123254,-1.013277,1.570423,-2.833735,-33.594074,-15.161717,-5.236933
282,535885948,-57.121834,-2.4631805,-111.47969,0.075611115,0.042779744,-0.2660188,13.830637,-5.2433343,1.6093355,-1.012017,1.571136,-2.838169,-33.363563,-15.249106,-5.210111
283,535902615,-57.67791,-2.372078,-110.995155,0.0878191,0.19990742,-0.1840211,14.597145,-3.9649873,1.4142121,-1.010553,1.574468,-2.841236,-33.120277,-15.315189,-5.186541
284,535919282,-58.46235,-2.2766647,-110.3056,0.09598732,0.4209939,-0.074356124,15.35223,-0.8843824,1.1346424,-1.008953,1.581485,-2.842475,-32.864406,-15.329929,-5.16763
285,535935949,-59.514183,-2.1588745,-109.36569,0.10300732,0.692359,0.054281205,16.036337,3.3851302,0.7916816,-1.007236,1.593024,-2.84157,-32.597134,-15.27351,-5.154435
286,535952616,-59.741142,-2.1078033,-109.1401,0.10759926,0.8657638,0.14283691,16.121595,5.9444547,0.5754407,-1.005443,1.607453,-2.839189,-32.328441,-15.174436,-5.144844
287,535969283,-59.039574,-2.1376724,-109.72379,0.10845566,0.935035,0.18995664,15.560743,6.835385,0.49191803,-1.003635,1.623037,-2.836023,-32.069095,-15.060513,-5.136645
288,535985950,-57.9591,-2.193222,-110.623024,0.10816383,0.9619062,0.21787715,14.551401,7.0332713,0.46466804,-1.001832,1.639069,-2.832392,-31.826572,-14.943292,-5.128901
289,536002617,-56.19227,-2.3010483,-112.109886,0.10601711,0.9069656,0.21113636,12.936024,5.8202534,0.54358274,-1.000065,1.654185,-2.828873,-31.610972,-14.846288,-5.119841
290,536019284,-54.366936,-2.4229584,-113.63704,0.10011864,0.87326944,0.21334255,11.04542,5.5422587,0.59448403,-0.998396,1.668739,-2.825317,-31.426882,-14.753917,-5.109933
291,536035951,-52.521873,-2.5552979,-115.169075,0.09053707,0.8659945,0.22634616,8.877089,6.307073,0.6108309,-0.996887,1.683172,-2.821545,-31.278931,-14.648799,-5.099752
292,536052618,-50.070976,-2.7411652,-117.220474,0.07747364,0.79955137,0.21500474,6.1157074,6.3444977,0.7026094,-0.995596,1.696498,-2.817962,-31.177003,-14.543057,-5.088042
293,536069285,-47.138115,-2.9734116,-119.6828,0.060421944,0.6952011,0.18828754,2.8130157,6.1593604,0.8420365,-0.994589,1.708085,-2.814824,-31.130119,-14.440401,-5.074008
294,536085952,-44.364906,-3.1438065,-121.80166,0.05036354,0.619721,0.1693281,0.61449575,6.4725904,0.8438723,-0.99375,1.718414,-2.812002,-31.119877,-14.332524,-5.059943
295,536102619,-41.72532,-3.2490692,-123.58035,0.048197746,0.56832075,0.15584241,-0.36960936,7.154316,0.70378023,-0.992947,1.727886,-2.809405,-31.126037,-14.213285,-5.048213
296,536119286,-38.98568,-3.3370132,-125.313576,0.04825878,0.52297956,0.1426557,-0.89414644,8.214746,0.4908853,-0.992143,1.736602,-2.807027,-31.140939,-14.076373,-5.040032
297,536135953,-36.292915,-3.3799896,-126.81677,0.053534508,0.4988352,0.13483971,-0.5096154,9.806477,0.1565479,-0.991251,1.744916,-2.80478,-31.149433,-13.912932,-5.037423
298,536152620,-33.10887,-3.4529648,-128.67105,0.0576334,0.43393707,0.109349474,-0.27181196,11.058275,-0.16289383,-0.99029,1.752148,-2.802958,-31.153963,-13.728627,-5.040138
299,536169287,-29.395157,-3.5611496,-130.91383,0.06004715,0.3252626,0.0651477,-0.23988724,11.964385,-0.46194077,-0.989289,1.757569,-2.801872,-31.157961,-13.529221,-5.047837
300,536185954,-25.53312,-3.6440506,-133.10507,0.066553116,0.21560141,0.017634735,0.50675297,13.083166,-0.8508784,-0.98818,1.761162,-2.801578,-31.149515,-13.311168,-5.062018
301,536202621,-21.39579,-3.7182007,-135.37549,0.07579422,0.09093875,-0.038432047,1.7534099,14.23124,-1.3018848,-0.986917,1.762678,-2.802219,-31.120292,-13.073981,-5.083716
302,536219288,-17.310074,-3.785797,-131.3469,0.07465553,0.0026423335,-0.07418378,2.805325,14.43093,-1.449243,-0.985673,1.762722,-2.803455,-31.073537,-12.833465,-5.10787
303,536235955,-13.342499,-3.8397675,-120.315445,0.062607765,-0.040120184,-0.085363224,3.7242608,13.633505,-1.2701494,-0.98463,1.762053,-2.804878,-31.011466,-12.60624,-5.129039
304,536252622,-9.241875,-3.8903885,-105.35662,0.044965744,-0.07189399,-0.089472696,4.7083583,12.164176,-0.91827637,-0.983881,1.760855,-2.806369,-30.932993,-12.403504,-5.144344
305,536269289,-5.106224,-3.9360428,-84.60095,0.018230438,-0.077230155,-0.078022316,5.6083183,9.745719,-0.29248682,-0.983577,1.759568,-2.807669,-30.839521,-12.241075,-5.149219
306,536285956,-0.8286743,-3.9604645,-61.59286,-0.008550644,-0.07558322,-0.064018056,7.081656,7.0885353,0.36684576,-0.98372,1.758308,-2.808736,-30.721493,-12.122933,-5.143105
307,536302623,3.6133194,-3.9635925,-36.46199,-0.034977913,-0.06942093,-0.04867412,9.169365,4.1966934,1.0505688,-0.984303,1.757151,-2.809547,-30.56867,-12.052988,-5.125596
308,536319290,8.080894,-3.951332,-5.720584,-0.068614006,-0.035173416,-0.017893925,11.433262,0.45863515,1.9690294,-0.985447,1.756565,-2.809845,-30.378116,-12.045344,-5.092779
309,536335957,12.598114,-3.9196243,30.00738,-0.1076355,0.02342695,0.025820315,14.029341,-3.999586,3.0758293,-0.987241,1.756955,-2.809415,-30.144294,-12.112004,-5.041515
310,536352624,15.012428,-3.889122,47.453083,-0.122756004,0.064092755,0.052543223,15.839029,-6.8343906,3.7747986,-0.989287,1.758023,-2.808539,-29.88031,-12.225911,-4.978602
311,536369291,15.078072,-3.8612595,44.83873,-0.112026215,0.086845934,0.061669067,16.71503,-7.9041543,4.0367427,-0.991154,1.75947,-2.807511,-29.601726,-12.357647,-4.911323
312,536385958,13.813278,-3.8225937,32.79423,-0.08803272,0.11004442,0.06608434,17.304167,-8.245657,4.115234,-0.992621,1.761304,-2.80641,-29.313323,-12.495075,-4.842736
313,536402625,10.579514,-3.7781982,4.8387165,-0.04265213,0.123547316,0.058253735,17.282156,-7.2211185,3.8502216,-0.993332,1.763363,-2.805439,-29.025287,-12.615427,-4.778566
314,536419292,6.5736847,-3.7168427,-24.57674,0.0051994324,0.15845591,0.05946569,17.19981,-6.374868,3.646308,-0.993245,1.766004,-2.804448,-28.738623,-12.721675,-4.717794
315,536435959,1.8293839,-3.636551,-54.758514,0.0547657,0.21734256,0.071203664,17.10369,-5.786665,3.5237,-0.992332,1.769626,-2.803261,-28.453562,-12.818119,-4.659066
316,536452626,-4.8438644,-3.5467148,-98.689865,0.1227417,0.27668974,0.07662222,16.429913,-4.1266336,3.1409535,-0.990286,1.774237,-2.801984,-28.17973,-12.886896,-4.606717
317,536469293,-13.24279,-3.4442291,-153.55278,0.20548153,0.34380856,0.080463305,15.286709,-1.7075856,2.5806713,-0.986861,1.779967,-2.800643,-27.924952,-12.915356,-4.563706
318,536485960,-18.759186,-3.3652039,-187.60023,0.25225353,0.38657087,0.08674778,14.3719845,-0.44153976,2.221272,-0.982657,1.78641,-2.799197,-27.685419,-12.922715,-4.526685
319,536502627,-21.135422,-3.3141174,-199.5702,0.26040554,0.39935553,0.09393316,13.663142,-0.33403563,2.053892,-0.978317,1.793066,-2.797631,-27.4577,-12.928282,-4.492453
320,536519294,-22.454529,-3.2715454,-202.78162,0.25169277,0.40269375,0.103458576,12.886906,-0.6762299,1.9516745,-0.974122,1.799778,-2.795907,-27.242918,-12.939552,-4.459925
321,536535961,-21.480957,-3.2480316,-188.84348,0.21243,0.38680974,0.11593937,12.203164,-1.9494803,2.0065405,-0.970581,1.806225,-2.793975,-27.039532,-12.972043,-4.426483
322,536552628,-21.25148,-3.2243118,-179.77928,0.17668056,0.3650197,0.12497371,11.048609,-2.681903,1.9058907,-0.967636,1.812309,-2.791892,-26.855389,-13.016741,-4.394718
323,536569295,-21.94693,-3.1991425,-176.7513,0.14613247,0.33862415,0.13058665,9.378687,-2.7977858,1.6339531,-0.9652,1.817953,-2.789716,-26.699078,-13.063371,-4.367485
324,536585962,-20.983528,-3.1917038,-161.53307,0.09182358,0.29208547,0.13638578,7.596398,-3.4354162,1.4221749,-0.96367,1.822821,-2.787443,-26.572471,-13.120628,-4.343782
325,536602629,-18.994156,-3.198326,-138.70819,0.020663261,0.22783488,0.14098783,5.567027,-4.2777114,1.2018546,-0.963326,1.826618,-2.785093,-26.479687,-13.191923,-4.323751
326,536619296,-18.359413,-3.191925,-126.52287,-0.02067089,0.18806168,0.14561288,4.192257,-4.569437,0.99219066,-0.963671,1.829752,-2.782666,-26.409816,-13.26808,-4.307214
327,536635963,-18.968246,-3.172943,-124.40608,-0.031489372,0.17419297,0.15061149,3.599155,-4.3680882,0.82022667,-0.964196,1.832655,-2.780156,-26.34983,-13.340881,-4.293544
328,536652630,-20.10054,-3.1523514,-126.71359,-0.029472351,0.16734251,0.1543475,3.2609367,-3.8108149,0.6282087,-0.964687,1.835444,-2.777584,-26.295481,-13.404395,-4.283074
329,536669297,-22.316269,-3.123764,-137.8719,-0.0026283264,0.17833614,0.1571313,3.4427886,-2.7179174,0.42784536,-0.964731,1.838416,-2.774965,-26.238101,-13.449694,-4.275943
330,536685964,-23.548065,-3.1085052,-142.4513,0.014136314,0.17825821,0.15918373,3.7107127,-1.8160524,0.26573488,-0.964495,1.841387,-2.772312,-26.176256,-13.479962,-4.271514
331,536702631,-23.695229,-3.1082153,-139.77734,0.019133568,0.16507047,0.16026133,4.0292397,-1.1186743,0.13838199,-0.964176,1.844138,-2.769641,-26.109102,-13.498607,-4.269208
332,536719298,-24.240646,-3.1072922,-141.20963,0.04000759,0.16224596,0.16045064,4.8533497,-0.11126214,0.034300346,-0.963509,1.846842,-2.766967,-26.028213,-13.500461,-4.268636
333,536735965,-24.724861,-3.1107483,-143.4047,0.06939125,0.16341859,0.15969798,6.1000056,1.0557389,-0.036065444,-0.962352,1.849566,-2.764305,-25.926546,-13.482865,-4.269237
334,536752632,-25.058876,-3.1145706,-144.20892,0.08442974,0.1654486,0.16787711,6.780917,1.7642307,-0.11130989,-0.960945,1.852323,-2.761507,-25.813531,-13.453461,-4.271092
335,536769299,-25.383125,-3.116867,-144.65175,0.08625126,0.170878,0.18598686,6.8730965,2.0086126,-0.19283408,-0.959507,1.855171,-2.758407,-25.698979,-13.419984,-4.274306
336,536785966,-25.40483,-3.1233978,-143.39671,0.0807066,0.17683095,0.20931765,6.8010507,1.9759829,-0.2529565,-0.958162,1.858118,-2.754918,-25.585628,-13.387051,-4.278522
337,536802633,-25.127785,-3.132782,-140.135,0.062289238,0.183287,0.24072386,6.314096,1.5019617,-0.29998133,-0.957124,1.861173,-2.750906,-25.480393,-13.362018,-4.283522
338,536819300,-24.96273,-3.1439972,-139.00299,0.051493645,0.19789419,0.27441144,6.1134477,1.0832078,-0.31399345,-0.956266,1.864471,-2.746332,-25.378502,-13.343965,-4.288755
339,536835967,-24.87838,-3.1576767,-139.92247,0.048984528,0.22073781,0.31013572,6.246426,0.72935885,-0.28997236,-0.95545,1.86815,-2.741163,-25.274395,-13.331809,-4.293588
340,536852634,-24.672295,-3.1731796,-140.61273,0.039930344,0.24829075,0.3533846,6.154775,0.04608476,-0.24306971,-0.954784,1.872288,-2.735273,-25.171815,-13.331041,-4.297639
341,536869301,-24.42128,-3.190483,-141.9414,0.02868557,0.28238487,0.4030881,5.993346,-0.8698382,-0.16677272,-0.954306,1.876994,-2.728555,-25.071926,-13.345538,-4.300419
342,536885968,-24.500526,-3.1995163,-142.29509,0.022678375,0.30023447,0.4204995,5.9705744,-1.4635277,-0.102260746,-0.953928,1.881998,-2.721547,-24.972416,-13.36993,-4.302123
343,536902635,-24.934174,-3.1990738,-141.35869,0.021018028,0.29955256,0.4025496,6.041686,-1.7329333,-0.05408062,-0.953578,1.886991,-2.714838,-24.871721,-13.398812,-4.303024
344,536919302,-25.600182,-3.19384,-140.54073,0.023244858,0.29259846,0.36685365,6.2162704,-1.8806336,0.003251031,-0.953191,1.891868,-2.708724,-24.768116,-13.430156,-4.30297
345,536935969,-26.60859,-3.180748,-139.39343,0.031085968,0.2730171,0.3025475,6.5354176,-1.7660842,0.05850315,-0.952673,1.896418,-2.703682,-24.659192,-13.459591,-4.301995
346,536952636,-27.673576,-3.1656723,-138.21542,0.036355972,0.2532515,0.23352116,6.741646,-1.8258739,0.13502069,-0.952067,1.900639,-2.69979,-24.546831,-13.490022,-4.299745
347,536969303,-28.795341,-3.1487503,-137.16296,0.039028168,0.23429435,0.16084146,6.8325186,-2.0815606,0.23574603,-0.951417,1.904544,-2.697109,-24.432956,-13.524715,-4.295816
348,536985970,-30.22033,-3.1242065,-135.72491,0.04467106,0.20437819,0.06285544,6.968212,-2.1969018,0.33969107,-0.950672,1.90795,-2.696061,-24.316819,-13.56133,-4.290154
349,537002637,-31.898857,-3.0930176,-134.00096,0.05162716,0.16605884,-0.055850223,7.0934286,-2.2656832,0.45241067,-0.949812,1.910718,-2.696992,-24.198595,-13.599091,-4.282614
350,537019304,-32.987732,-3.0666656,-132.87885,0.053442,0.14133489,-0.13133274,7.3898582,-2.3330228,0.60340935,-0.948921,1.913074,-2.699181,-24.075431,-13.637975,-4.272557
351,537035971,-33.44104,-3.0452728,-132.37051,0.050066948,0.13067055,-0.16042407,7.88952,-2.3636498,0.7931353,-0.948087,1.915252,-2.701855,-23.943939,-13.677369,-4.259338
352,537052638,-33.630836,-3.0238037,-132.1322,0.043398857,0.12523079,-0.17062257,8.46648,-2.4002254,1.0117348,-0.947364,1.917339,-2.704699,-23.802831,-13.717373,-4.242476
353,537069305,-33.330215,-3.0050735,-132.38913,0.03172016,0.13066447,-0.14478974,9.174501,-2.4440043,1.2669876,-0.946835,1.919517,-2.707112,-23.649923,-13.758106,-4.22136
354,537085972,-33.105354,-2.9805984,-132.55902,0.02033329,0.13112181,-0.12605985,9.951149,-2.381698,1.5374352,-0.946496,1.921702,-2.709213,-23.484071,-13.797801,-4.195736
355,537102639,-32.987495,-2.949669,-132.61438,0.009332657,0.12573436,-0.11667217,10.7867775,-2.2127151,1.8225604,-0.94634,1.923798,-2.711158,-23.304291,-13.83468,-4.16536
356,537119306,-32.496933,-2.9188232,-133.03822,-0.005461693,0.12719655,-0.0801944,11.760166,-1.990838,2.1399632,-0.946431,1.925918,-2.712495,-23.108288,-13.867861,-4.129694
357,537135973,-31.750587,-2.886055,-133.71143,-0.023018837,0.13213012,-0.025474653,12.85887,-1.689519,2.4854932,-0.946815,1.92812,-2.71292,-22.893974,-13.89602,-4.088269
358,537152640,-31.559486,-2.8332214,-133.82565,-0.031105042,0.13758177,0.00598979,13.478388,-1.728105,2.7831106,-0.947333,1.930413,-2.71282,-22.669334,-13.924822,-4.041884
359,537169307,-31.940536,-2.7590942,-133.36403,-0.02903843,0.14484471,0.015006021,13.571072,-2.1496904,3.0275378,-0.947817,1.932827,-2.71257,-22.443149,-13.96065,-3.991425
360,537185974,-32.586502,-2.6707153,-132.63138,-0.02192974,0.15306732,0.015578732,13.414534,-2.735444,3.2519603,-0.948182,1.935378,-2.71231,-22.219573,-14.006241,-3.937226
361,537202641,-33.708427,-2.5629349,-131.41707,-0.006439209,0.16191503,-0.002447024,12.839899,-3.603924,3.4352453,-0.948289,1.938077,-2.712351,-22.005575,-14.066306,-3.879972
362,537219308,-34.709694,-2.447609,-130.3192,0.009176254,0.17642415,-0.005146235,12.215207,-4.525393,3.6262422,-0.948136,1.941017,-2.712437,-21.801988,-14.141729,-3.819535
363,537235975,-35.56373,-2.3249435,-129.36394,0.024565697,0.19674262,0.009150103,11.55777,-5.484369,3.826999,-0.947727,1.944296,-2.712284,-21.609359,-14.233135,-3.755752
364,537252642,-36.75013,-2.1842728,-128.07132,0.04681492,0.2202571,0.01512447,10.533095,-6.700734,3.994264,-0.946947,1.947967,-2.712032,-21.433807,-14.344814,-3.689181
365,537269309,-38.145332,-2.02771,-126.56502,0.074287415,0.24818131,0.0201796,9.212178,-8.129248,4.1374955,-0.945709,1.952103,-2.711696,-21.280271,-14.480301,-3.620223
366,537285976,-39.12844,-1.8987274,-125.491844,0.09134579,0.25625217,0.02212891,8.423946,-8.827116,4.1773696,-0.944187,1.956374,-2.711327,-21.139872,-14.62742,-3.5506
367,537302643,-39.69848,-1.8000488,-124.85532,0.09741783,0.24193746,0.017938614,8.201106,-8.73251,4.0990667,-0.942563,1.960406,-2.711028,-21.003187,-14.772962,-3.482282
368,537319310,-40.067207,-1.7122574,-124.43182,0.098879814,0.21762273,0.013828054,8.193434,-8.262495,3.944758,-0.940915,1.964033,-2.710798,-20.86663,-14.91067,-3.416536
369,537335977,-40.075813,-1.6472015,-124.38757,0.0915966,0.17638296,0.008433804,8.61951,-7.157978,3.6884964,-0.939388,1.966973,-2.710657,-20.722972,-15.02997,-3.355061
370,537352644,-40.212105,-1.5765533,-124.21985,0.0865984,0.13164434,-0.0033831596,8.904486,-6.02254,3.362671,-0.937945,1.969167,-2.710713,-20.574564,-15.130346,-3.299016
371,537369311,-40.49511,-1.4987946,-123.90905,0.08442497,0.084199905,-0.02132292,9.017039,-4.88478,2.9669724,-0.936538,1.97057,-2.711068,-20.42428,-15.211759,-3.249566
372,537385978,-40.545387,-1.4384689,-123.84906,0.07599735,0.021144569,-0.044231698,9.432005,-3.2141893,2.4598355,-0.935271,1.970922,-2.711805,-20.26708,-15.265329,-3.208569
373,537402645,-40.46438,-1.3898544,-123.93577,0.06359291,-0.05494702,-0.07332517,10.029069,-1.1299998,1.8447047,-0.934211,1.970006,-2.713027,-20.099929,-15.284162,-3.177824
374,537419312,-40.449394,-1.3444366,-123.93242,0.056765556,-0.09788096,-0.09180747,10.279675,0.21431285,1.4078091,-0.933265,1.968375,-2.714557,-19.928601,-15.28059,-3.154361
375,537435979,-40.47297,-1.3048859,-123.86492,0.05527687,-0.10502046,-0.0983053,10.192659,0.77963406,1.1688918,-0.932344,1.966625,-2.716195,-19.758723,-15.267596,-3.134879
376,537452646,-40.508797,-1.2718124,-123.7769,0.05608177,-0.09668511,-0.10183711,9.938711,1.0382984,0.99220365,-0.931409,1.965014,-2.717892,-19.593078,-15.250291,-3.118342
377,537469313,-40.59858,-1.2441406,-123.61639,0.06152153,-0.06037563,-0.09788872,9.386522,0.6873103,0.955545,-0.930384,1.964008,-2.719523,-19.436636,-15.238836,-3.102416
378,537485980,-40.52517,-1.2337494,-123.627754,0.06361771,-0.026401997,-0.095966235,8.967392,0.5421657,0.8784416,-0.929324,1.963568,-2.721122,-19.287179,-15.2298,-3.087775
379,537502647,-40.281334,-1.2415543,-123.81992,0.062016487,0.0036617517,-0.09694208,8.699152,0.64479786,0.7494877,-0.92829,1.963629,-2.722738,-19.142193,-15.219053,-3.075284
380,537519314,-40.00727,-1.2613602,-124.0304,0.06264019,0.055872798,-0.092236,8.256117,0.3275934,0.7263703,-0.927246,1.96456,-2.724275,-19.004591,-15.213593,-3.063178
381,537535981,-39.65426,-1.296341,-124.31376,0.063762665,0.124081224,-0.083923355,7.729971,-0.23924965,0.77172834,-0.926183,1.966628,-2.725674,-18.875758,-15.21758,-3.050316
382,537552648,-39.417534,-1.3166046,-124.5028,0.06268978,0.15739027,-0.08178885,7.36897,-0.5010178,0.731267,-0.925138,1.969251,-2.727037,-18.752942,-15.22593,-3.038128
383,537569315,-39.328407,-1.3191833,-124.566185,0.0598011,0.15429631,-0.08565472,7.160349,-0.48903772,0.6115397,-0.924141,1.971823,-2.728465,-18.633603,-15.234081,-3.027936
384,537585982,-39.258446,-1.3209839,-124.62317,0.05515957,0.13494137,-0.09227218,7.050212,-0.35443258,0.46207622,-0.923222,1.974072,-2.730003,-18.516099,-15.239988,-3.020235
385,537602649,-39.264824,-1.3137741,-124.623764,0.04815483,0.085969746,-0.10404779,7.0996428,0.03293258,0.24667758,-0.922419,1.975505,-2.731737,-18.397772,-15.239439,-3.016124
386,537619316,-39.268715,-1.3140945,-124.62497,0.041853905,0.043888748,-0.1132033,7.0803323,0.17360789,0.0970516,-0.921721,1.976236,-2.733624,-18.279766,-15.236546,-3.014506
387,537635983,-39.260002,-1.3235703,-124.63612,0.036257744,0.010424435,-0.11939041,6.9879007,0.046537578,0.020315986,-0.921117,1.97641,-2.735614,-18.163301,-15.23577,-3.014167
388,537652650,-39.328606,-1.3269577,-124.584496,0.029314995,-0.04416716,-0.1284992,6.9887505,0.0064651966,-0.078182586,-0.920628,1.975674,-2.737756,-18.046822,-15.235662,-3.01547
389,537669317,-39.458473,-1.3278503,-124.481636,0.021652222,-0.11232871,-0.13886426,7.0362267,-0.05633062,-0.16881755,-0.920267,1.973802,-2.74007,-17.929552,-15.236601,-3.018284
390,537685984,-39.546715,-1.3328629,-124.40323,0.01630497,-0.15263593,-0.14665286,7.0353055,-0.105433285,-0.24254915,-0.919995,1.971258,-2.742514,-17.812297,-15.238358,-3.022326
391,537702651,-39.598366,-1.3405228,-124.343636,0.013361931,-0.16478539,-0.15215807,6.996111,-0.10105169,-0.30779514,-0.919772,1.968512,-2.74505,-17.695695,-15.240042,-3.027456
392,537719318,-39.654,-1.3500366,-124.27223,0.011833191,-0.16337621,-0.1560347,6.93241,-0.13943219,-0.3469618,-0.919575,1.965789,-2.747651,-17.580155,-15.242366,-3.033239
393,537735985,-39.691048,-1.3625259,-124.20443,0.012545586,-0.13776094,-0.15736477,6.822571,-0.20261091,-0.35913846,-0.919366,1.963493,-2.750274,-17.466445,-15.245743,-3.039225
394,537752652,-39.793404,-1.3703384,-124.07676,0.01317215,-0.119856,-0.15988119,6.7681804,-0.22332495,-0.37186578,-0.919146,1.961495,-2.752939,-17.353642,-15.249465,-3.045423
395,537769319,-39.968483,-1.3730087,-123.882614,0.013671875,-0.110958636,-0.16364197,6.771689,-0.20959473,-0.3829072,-0.918918,1.959646,-2.755666,-17.240781,-15.252958,-3.051805
396,537785986,-40.15795,-1.3750076,-123.6639,0.015958786,-0.086004734,-0.16600241,6.7647758,-0.17845601,-0.3774547,-0.918652,1.958213,-2.758433,-17.128035,-15.255932,-3.058096
397,537802653,-40.3825,-1.3744278,-123.40406,0.019591331,-0.051624596,-0.16772906,6.76933,-0.11652714,-0.36039814,-0.918325,1.957353,-2.761228,-17.015213,-15.257874,-3.064103
398,537819320,-40.567238,-1.3763885,-123.20543,0.0194273,-0.041187704,-0.16542856,6.737641,-0.14339352,-0.32111925,-0.918001,1.956667,-2.763985,-16.902919,-15.260264,-3.069455
399,537835987,-40.70022,-1.3815231,-123.08055,0.015222549,-0.054933906,-0.15844898,6.658214,-0.26888365,-0.25705385,-0.917747,1.955751,-2.766626,-16.791949,-15.264745,-3.073739
400,537852654,-40.83332,-1.3858566,-122.967384,0.009135246,-0.08154863,-0.14889006,6.5691714,-0.42573702,-0.17624328,-0.917595,1.954392,-2.769108,-16.682463,-15.271841,-3.076676
401,537869321,-40.944954,-1.3907013,-122.89466,-0.00021457672,-0.12967706,-0.13567857,6.4554944,-0.6455922,-0.07529676,-0.917599,1.952231,-2.771369,-16.574871,-15.282601,-3.077931
402,537885988,-41.067375,-1.3938751,-122.8098,-0.009288788,-0.17333144,-0.12001021,6.326849,-0.86610496,0.04524263,-0.917754,1.949342,-2.773369,-16.469424,-15.297036,-3.077177
403,537902655,-41.20559,-1.3947906,-122.7069,-0.017917633,-0.21160197,-0.10195546,6.1858387,-1.0804722,0.18511331,-0.918053,1.945815,-2.775068,-16.366327,-15.315044,-3.074092
404,537919322,-41.32505,-1.3955688,-122.636986,-0.029072762,-0.26494813,-0.07990502,6.0140257,-1.3462995,0.3477851,-0.918538,1.941399,-2.7764,-16.266093,-15.337482,-3.068296
405,537935989,-41.43313,-1.3955231,-122.58852,-0.042030334,-0.32805914,-0.054019794,5.8130198,-1.6495891,0.5334694,-0.919239,1.935931,-2.7773,-16.169209,-15.364975,-3.059405
406,537952656,-41.766914,-1.3838882,-122.27859,-0.05936718,-0.34970623,-0.049514905,5.608143,-2.0523758,0.5415722,-0.920228,1.930103,-2.778125,-16.07574,-15.399181,-3.050379
407,537969323,-42.34548,-1.3597412,-121.68556,-0.081768036,-0.32728922,-0.06862901,5.3978643,-2.5689201,0.35252866,-0.921591,1.924648,-2.779269,-15.985776,-15.441996,-3.044504
408,537985990,-43.062553,-1.3275604,-120.93456,-0.10758686,-0.2813998,-0.09954716,5.1700807,-3.1610854,0.060776193,-0.923384,1.919958,-2.780928,-15.899608,-15.494681,-3.043491
409,538002657,-43.984978,-1.2842255,-119.94617,-0.13773441,-0.19804853,-0.14941607,4.9298553,-3.84985,-0.39142722,-0.92568,1.916657,-2.783418,-15.817444,-15.558845,-3.050015
410,538019324,-44.968834,-1.236084,-118.89511,-0.17157173,-0.11231941,-0.20322926,4.6570883,-4.6137233,-0.8878649,-0.92854,1.914785,-2.786805,-15.739826,-15.63574,-3.064813
411,538035991,-46.008476,-1.183258,-117.788216,-0.20912552,-0.02550608,-0.26030427,4.3491297,-5.452406,-1.4238945,-0.932025,1.91436,-2.791143,-15.667341,-15.726613,-3.088545
412,538052658,-47.236015,-1.1196518,-116.466774,-0.2516241,0.09233433,-0.33456284,4.019163,-6.3971763,-2.110067,-0.936219,1.915899,-2.796719,-15.600355,-15.833233,-3.123713
413,538069325,-48.624535,-1.0463257,-114.96374,-0.2990713,0.23434019,-0.42316467,3.6616237,-7.4460125,-2.9251432,-0.941204,1.919805,-2.803772,-15.539328,-15.957333,-3.172465
414,538085992,-49.93963,-0.9420929,-113.66777,-0.31232738,0.3348856,-0.4782877,2.667742,-8.5191765,-3.134609,-0.946409,1.925386,-2.811743,-15.494866,-16.099319,-3.224708
415,538102659,-51.178658,-0.80366516,-112.59336,-0.2877102,0.39164856,-0.49726665,0.9752617,-9.616074,-2.6815686,-0.951204,1.931913,-2.820031,-15.478612,-16.259587,-3.269401
416,538119326,-52.437904,-0.6413269,-111.575485,-0.24369335,0.43144202,-0.50104225,-1.1362648,-10.776007,-1.899774,-0.955266,1.939104,-2.828382,-15.49755,-16.439187,-3.301064
417,538135993,-53.658745,-0.44837952,-110.71606,-0.16909504,0.43696237,-0.4766938,-3.844728,-11.9802065,-0.5839484,-0.958084,1.946387,-2.836327,-15.561629,-16.638857,-3.310796
418,538152660,-55.016365,-0.23486328,-109.74377,-0.086862564,0.45467797,-0.455849,-6.800506,-13.286815,0.81064874,-0.959532,1.953965,-2.843924,-15.674971,-16.860304,-3.297285
419,538169327,-56.52224,-0.0007324219,-108.64312,0.002005577,0.48692355,-0.4401502,-9.993448,-14.702118,2.2631545,-0.959499,1.96208,-2.85126,-15.841528,-17.105339,-3.259566
420,538185994,-58.040672,0.26554108,-107.636734,0.11907959,0.49558204,-0.40252542,-13.7621765,-16.182947,4.184174,-0.957514,1.97034,-2.857969,-16.070898,-17.375055,-3.18983
421,538202661,-59.610725,0.5626755,-106.66718,0.26008415,0.49031103,-0.34940976,-18.04579,-17.743893,6.485707,-0.953179,1.978512,-2.863792,-16.371661,-17.670787,-3.081735
422,538219328,-61.06791,0.84775543,-105.6591,0.3405285,0.49975735,-0.32555097,-20.214783,-18.987576,7.5417104,-0.947504,1.986841,-2.869218,-16.708574,-17.987247,-2.95604
423,538235995,-62.38009,1.1188736,-104.63375,0.3552866,0.5217842,-0.33170038,-20.058357,-19.869583,7.2489333,-0.941583,1.995537,-2.874746,-17.04288,-18.318407,-2.835224
424,538252662,-63.65171,1.396225,-103.589325,0.34181404,0.54909754,-0.3507856,-18.781761,-20.587412,6.3208127,-0.935886,2.004689,-2.880592,-17.355909,-18.661531,-2.729877
425,538269329,-64.83077,1.6687164,-102.51395,0.2771244,0.5882142,-0.39433604,-15.647825,-21.02518,4.3113613,-0.931267,2.014493,-2.887164,-17.616706,-19.011951,-2.658021
426,538285996,-65.97852,1.9653015,-101.51018,0.2162695,0.612281,-0.42910147,-12.272892,-21.402523,2.2741907,-0.927663,2.024698,-2.894316,-17.821254,-19.36866,-2.620118
427,538302663,-67.09942,2.288231,-100.582245,0.16208458,0.62010473,-0.4534765,-8.731569,-21.72936,0.25892627,-0.924962,2.035033,-2.901874,-17.96678,-19.730816,-2.615803
428,538319330,-68.11425,2.6137466,-99.67246,0.06693649,0.63024354,-0.49389118,-3.5577283,-21.79033,-2.6545038,-0.923846,2.045537,-2.910106,-18.026075,-20.093988,-2.660045
429,538335997,-69.03219,2.9483109,-98.80553,-0.058065414,0.6366882,-0.54334617,2.937134,-21.625257,-6.25723,-0.924814,2.056148,-2.919162,-17.977123,-20.454409,-2.764332
430,538352664,-69.930885,3.2936935,-97.98432,-0.13297367,0.6646497,-0.58888817,7.029606,-21.628807,-8.08853,-0.92703,2.067225,-2.928977,-17.859963,-20.814889,-2.899141
431,538369331,-70.80146,3.6472092,-97.20724,-0.15646362,0.7184511,-0.6325379,8.5669365,-21.80431,-8.032005,-0.929638,2.079199,-2.939519,-17.717181,-21.178294,-3.033008
432,538385998,-71.60792,4.012459,-96.49383,-0.1593914,0.78183985,-0.6757806,9.126219,-21.984312,-7.119571,-0.932295,2.09223,-2.950782,-17.565077,-21.544699,-3.151668
433,538402665,-72.363686,4.389061,-95.8471,-0.12122536,0.8624097,-0.7159631,7.723041,-22.26611,-4.6906366,-0.934315,2.106603,-2.962715,-17.43636,-21.915801,-3.229845
434,538419332,-72.99712,4.770195,-95.25499,-0.101299286,0.95015514,-0.76761276,6.9292593,-22.355452,-2.4217987,-0.936003,2.122439,-2.975509,-17.320872,-22.288392,-3.270208
435,538435999,-73.49796,5.1558456,-94.7234,-0.102609634,1.0440134,-0.8312216,6.8838754,-22.230673,-0.39321643,-0.937713,2.139839,-2.989363,-17.206141,-22.658903,-3.276762
436,538452666,-73.90841,5.5487823,-94.26387,-0.0780983,1.1558449,-0.89756095,5.4553237,-22.117355,2.8087826,-0.939015,2.159103,-3.004322,-17.115219,-23.027526,-3.229949
437,538469333,-74.20745,5.9473267,-93.877716,-0.04034233,1.2838049,-0.9699178,3.1802044,-21.94823,6.8437004,-0.939687,2.1805,-3.020487,-17.062216,-23.39333,-3.115887
438,538486000,-74.38299,6.2900925,-93.674545,-0.038805008,1.3718772,-1.0014744,1.991776,-21.102959,9.453087,-0.940334,2.203365,-3.037178,-17.02902,-23.745046,-2.958336
439,538502667,-74.43314,6.5706024,-93.66988,-0.072675705,1.4165244,-0.98671854,1.8030629,-19.541653,10.603457,-0.941545,2.226974,-3.053623,-16.998969,-24.07074,-2.781612
440,538519334,-74.34362,6.816025,-93.816734,-0.12713337,1.4432919,-0.95007646,2.0489507,-17.50519,11.145705,-0.943664,2.251029,-3.069458,-16.96482,-24.362493,-2.59585
441,538536001,-74.1076,7.008148,-94.14994,-0.21465588,1.436981,-0.87792623,3.1890833,-14.818378,10.498628,-0.947242,2.274979,-3.08409,-16.911669,-24.609466,-2.420873
442,538552668,-73.73356,7.182472,-94.616295,-0.29441833,1.4332472,-0.7949368,3.5359929,-11.888042,10.355196,-0.952149,2.298866,-3.097339,-16.852736,-24.8076,-2.248286
443,538569335,-73.21441,7.339592,-95.21769,-0.3651371,1.4341009,-0.70248216,3.0154874,-8.721925,10.795526,-0.958235,2.322768,-3.109047,-16.802478,-24.952965,-2.068361
444,538586002,-72.535866,7.4447556,-96.015045,-0.45788956,1.408474,-0.57590073,2.8447535,-4.956488,10.47888,-0.965866,2.346243,-3.118645,-16.755065,-25.035573,-1.893713
445,538602669,-71.69451,7.5038376,-97.002396,-0.5642519,1.3636258,-0.41973644,2.654176,-0.66487956,9.761486,-0.97527,2.36897,-3.125641,-16.710829,-25.046654,-1.731022
446,538619336,-70.90792,7.5704575,-97.89647,-0.5809021,1.3412781,-0.36942333,2.3988917,2.3855412,9.500359,-0.984952,2.391325,-3.131798,-16.670847,-25.006895,-1.572683
447,538636003,-70.19218,7.643776,-98.681885,-0.5010662,1.3412362,-0.4346333,2.201775,4.0728407,9.614172,-0.993303,2.413679,-3.139042,-16.634151,-24.939014,-1.412447
448,538652670,-69.43836,7.7006454,-99.49313,-0.3675623,1.3482897,-0.5540391,1.8194132,5.1892796,9.935239,-0.999429,2.43615,-3.148276,-16.603827,-24.852526,-1.24686
449,538669337,-68.7053,7.7535553,-100.255486,-0.1515398,1.3728085,-0.76507455,1.2672329,5.24734,10.656894,-1.001955,2.45903,-3.161027,-16.582706,-24.76507,-1.069245
450,538686004,-67.85607,7.759865,-101.15603,0.07922745,1.3821633,-0.98256373,0.8752856,5.376584,10.92758,-1.000635,2.482066,-3.177403,-16.568118,-24.67546,-0.887119
451,538702671,-66.88026,7.7157745,-102.20843,0.32251167,1.3746312,-1.2023171,0.6236601,5.6320353,10.71909,-0.99526,2.504977,-3.197442,-16.557724,-24.581593,-0.708467
452,538719338,-65.89677,7.6520004,-103.25607,0.638134,1.3751141,-1.5000228,0.3644638,5.018349,10.611143,-0.984624,2.527896,-3.222442,-16.55165,-24.497954,-0.531615
453,538736005,-64.87617,7.558136,-104.339745,1.013279,1.3765091,-1.8588916,0.1644826,3.7591345,10.417147,-0.967736,2.550838,-3.253424,-16.548909,-24.435302,-0.357996
454,538752672,-63.992317,7.43705,-105.274,1.2563038,1.2885673,-2.0884387,0.5127549,3.8488023,9.909057,-0.946798,2.572314,-3.288231,-16.540363,-24.371155,-0.192845
455,538769339,-63.279137,7.29158,-106.0197,1.356864,1.1048598,-2.180537,1.4552732,5.3432746,9.118431,-0.924184,2.590728,-3.324573,-16.516108,-24.2821,-0.040871
456,538786006,-62.63671,7.1121063,-106.69053,1.3979082,0.8626453,-2.214923,2.8151228,7.4358435,8.015252,-0.900886,2.605105,-3.361488,-16.469189,-24.158169,0.092717
457,538802673,-62.121437,6.8995895,-107.22568,1.3276815,0.5364297,-2.1409192,4.7406874,10.645557,6.5418243,-0.878758,2.614045,-3.39717,-16.390178,-23.980743,0.201747
458,538819340,-61.665,6.658264,-107.69138,1.2743263,0.184165,-2.0897422,6.907298,13.540322,4.973015,-0.857519,2.617114,-3.431999,-16.275056,-23.755071,0.284631
459,538836007,-61.266045,6.386551,-108.089905,1.2443256,-0.19255966,-2.0680053,9.318614,16.04486,3.297233,-0.83678,2.613905,-3.466466,-16.119746,-23.487657,0.339585
460,538852674,-61.013298,6.0827026,-108.3296,1.128499,-0.64586836,-1.9662787,12.279319,19.317513,1.3219116,-0.817972,2.603141,-3.499237,-15.915091,-23.165698,0.361617
461,538869341,-60.898567,5.7469025,-108.41808,0.9528942,-1.1651235,-1.8115765,15.738541,23.056398,-0.9048713,-0.80209,2.583722,-3.52943,-15.652782,-22.781425,0.346536
462,538886008,-60.302162,5.419235,-108.88139,0.809083,-1.5020509,-1.6922436,16.72793,25.747305,-2.072478,-0.788605,2.558688,-3.557634,-15.373983,-22.352303,0.311995
463,538902675,-59.18049,5.103401,-109.752396,0.69099426,-1.6395884,-1.602364,14.998644,27.38392,-2.0731745,-0.777088,2.531362,-3.58434,-15.124006,-21.895904,0.277442
464,538919342,-57.82598,4.780258,-110.7815,0.57141304,-1.688673,-1.5173168,11.923552,28.478397,-1.4939407,-0.767564,2.503217,-3.609629,-14.92528,-21.421264,0.252543
465,538936009,-56.069527,4.461197,-112.10978,0.4709835,-1.5808036,-1.4572382,6.6663785,28.640875,0.03640349,-0.759714,2.47687,-3.633916,-14.814174,-20.943916,0.25315
466,538952676,-54.299706,4.121544,-113.401405,0.3064251,-1.4746208,-1.3411376,1.0362549,29.048748,1.6997612,-0.754607,2.452293,-3.656268,-14.796903,-20.45977,0.281479
467,538969343,-52.54014,3.7600708,-114.63366,0.07301998,-1.377744,-1.1649784,-4.883592,29.74434,3.4637897,-0.75339,2.429331,-3.675684,-14.878296,-19.964031,0.339209
468,538986010,-50.449318,3.3992844,-116.09552,-0.17173004,-1.1503115,-0.98501134,-12.745962,29.803574,6.071784,-0.756252,2.410159,-3.692101,-15.090729,-19.467305,0.440405
469,539002677,-48.10685,3.034401,-117.715935,-0.44702625,-0.8236585,-0.7829132,-22.204098,29.468071,9.369209,-0.763702,2.396431,-3.70515,-15.460797,-18.97617,0.596558
470,539019344,-45.52746,2.6967316,-121.138275,-0.6470318,-0.66020006,-0.6190053,-27.925024,29.455423,11.231225,-0.774486,2.385428,-3.715467,-15.926214,-18.485246,0.783745
471,539036011,-42.66326,2.3930283,-126.57125,-0.7558813,-0.66590434,-0.50465214,-29.622213,29.719822,11.558161,-0.787084,2.37433,-3.723878,-16.419918,-17.989916,0.976381
472,539052678,-39.554695,2.1061401,-133.20215,-0.83774185,-0.73563117,-0.3979125,-29.609453,30.079515,11.265304,-0.801046,2.362069,-3.73051,-16.913409,-17.488591,1.164136
473,539069345,-36.186348,1.8467255,-141.52446,-0.86133766,-0.93707246,-0.31704247,-26.448378,30.702238,9.786392,-0.815402,2.346451,-3.735794,-17.354215,-16.976887,1.327243
474,539086012,-32.45449,1.6035461,-150.67526,-0.8744726,-1.079083,-0.24059875,-23.690653,30.918251,8.566172,-0.829977,2.328466,-3.739804,-17.749059,-16.461583,1.470013
475,539102679,-28.34877,1.377037,-160.6286,-0.88151455,-1.1513526,-0.16553439,-21.517885,30.701162,7.68276,-0.844669,2.309277,-3.742563,-18.10769,-15.949897,1.598059
476,539119346,-23.896973,1.1834259,-172.27534,-0.8305111,-1.3067555,-0.118921354,-16.901419,30.521154,5.925154,-0.858511,2.287498,-3.744545,-18.38938,-15.441211,1.696812
477,539136013,-19.0662,1.0219955,-185.47289,-0.73058224,-1.5045991,-0.09662841,-10.563999,30.231276,3.5928018,-0.870687,2.262421,-3.746155,-18.565447,-14.937356,1.756692
478,539152680,-15.021683,0.89556885,-190.56374,-0.6750746,-1.5605891,-0.033647552,-6.9781137,29.288818,2.4825313,-0.881938,2.236411,-3.746716,-18.681749,-14.449209,1.798068
479,539169347,-11.871918,0.80861664,-186.7214,-0.6644163,-1.4749904,0.07160878,-6.1744227,27.68488,2.613698,-0.893012,2.211828,-3.745523,-18.784656,-13.987794,1.84163
480,539186014,-9.036812,0.76130676,-178.4174,-0.65890217,-1.307085,0.19023447,-6.4952235,25.566652,3.3324432,-0.903994,2.190043,-3.742352,-18.89291,-13.561683,1.897171
481,539202681,-6.844116,0.7569504,-162.92285,-0.6813135,-1.009517,0.33859965,-9.076202,22.785093,5.100711,-0.915349,2.173218,-3.736709,-19.04418,-13.181931,1.982183
482,539219348,-4.616638,0.80094147,-146.06651,-0.6627693,-0.728121,0.47163838,-10.50281,19.767687,6.556995,-0.926395,2.161083,-3.728848,-19.219227,-12.85247,2.091466
483,539236015,-2.3137436,0.8959656,-128.1093,-0.5980463,-0.46755356,0.5860065,-10.607336,16.514336,7.641943,-0.936362,2.15329,-3.719081,-19.396016,-12.577231,2.218832
484,539252682,-0.5644913,1.0441513,-103.688896,-0.5398207,-0.114031255,0.7176704,-12.0535755,12.674321,9.430423,-0.945359,2.151389,-3.70712,-19.596909,-12.365992,2.376006
485,539269349,0.7645798,1.2489395,-73.912964,-0.47224712,0.3027398,0.85652614,-14.113722,8.324634,11.638244,-0.95323,2.156435,-3.692845,-19.832138,-12.227248,2.569977
486,539286016,2.0504456,1.3932266,-46.43429,-0.45062447,0.5495355,0.9660824,-16.431898,5.369497,12.391103,-0.96074,2.165594,-3.676744,-20.106003,-12.137756,2.776495
487,539302683,3.2332916,1.4676666,-21.17895,-0.48615456,0.6171362,1.0467637,-19.296492,3.9503648,11.633015,-0.968843,2.17588,-3.659298,-20.427611,-12.071917,2.970379
488,539319350,4.208351,1.5316772,4.8712416,-0.54134464,0.59578675,1.1085312,-22.386702,3.2157323,10.055847,-0.977865,2.18581,-3.640822,-20.800723,-12.018321,3.137976
489,539336017,5.042717,1.5533218,29.869743,-0.6335182,0.4226771,1.1419435,-25.700594,3.6967537,7.1596255,-0.988424,2.192855,-3.62179,-21.229066,-11.956708,3.257303
490,539352684,5.3366547,1.6039124,59.83337,-0.7429867,0.2635319,1.1765305,-30.144224,4.188026,4.3101053,-1.000807,2.197247,-3.602181,-21.73147,-11.886908,3.329138
491,539369351,5.0551224,1.6888275,95.17902,-0.8675909,0.12449762,1.212763,-35.732944,4.635868,1.5543731,-1.015267,2.199322,-3.581968,-22.327019,-11.809644,3.355044
492,539386018,4.4355316,1.7448959,131.42671,-1.0331192,-0.13254994,1.2275513,-42.04991,6.116155,-2.2292876,-1.032486,2.197113,-3.561509,-23.027851,-11.707708,3.317889
493,539402685,3.3731766,1.7872543,169.95728,-1.2362614,-0.47468704,1.2266433,-49.315254,8.395044,-6.769065,-1.05309,2.189202,-3.541065,-23.849772,-11.567791,3.205071
494,539419352,2.7481384,1.7532959,196.72165,-1.2838669,-0.70762175,1.2851509,-53.228394,9.209434,-9.874323,-1.074488,2.177408,-3.519646,-24.736912,-11.4143,3.040499
495,539436019,2.6563263,1.6277084,209.82278,-1.1613054,-0.83107203,1.407623,-53.355904,8.492578,-11.477295,-1.093843,2.163557,-3.496186,-25.626177,-11.272757,2.849211
496,539452686,2.5938034,1.4491272,216.8505,-0.95830536,-0.91655654,1.5623515,-51.9032,7.17667,-12.440675,-1.109815,2.148281,-3.470147,-26.49123,-11.153146,2.641866
497,539469353,2.8056793,1.1959152,213.62344,-0.6213827,-0.91521674,1.770018,-47.652874,4.673503,-12.187121,-1.120171,2.133027,-3.440647,-27.285445,-11.075254,2.438747
498,539486020,2.8186417,0.88710785,207.1615,-0.26933098,-0.97863275,1.9806541,-43.00046,2.6000288,-12.297846,-1.12466,2.116716,-3.407636,-28.002119,-11.03192,2.233783
499,539502687,2.5866776,0.5224533,197.84592,0.09160805,-1.1146059,2.1922195,-38.097427,1.0458398,-12.845399,-1.123133,2.098139,-3.371099,-28.637076,-11.014489,2.019693
500,539519354,2.5576248,0.07095337,178.33958,0.5680752,-1.2065704,2.4480476,-30.66474,-1.2970554,-12.540929,-1.113665,2.078029,-3.330298,-29.148155,-11.036107,1.810678
501,539536021,2.6297607,-0.4663391,149.88306,1.1365967,-1.2872839,2.738359,-21.170708,-4.0853143,-11.710493,-1.094722,2.056574,-3.284659,-29.501,-11.104196,1.615503
502,539552688,1.6262589,-0.747406,123.83715,1.5089426,-1.3506198,2.7800257,-15.004358,-6.900272,-10.439192,-1.069573,2.034064,-3.238325,-29.751073,-11.219201,1.441516
503,539569355,-0.5084076,-0.7451477,100.03649,1.6717062,-1.3822651,2.5503986,-12.354643,-9.866094,-8.563254,-1.041711,2.011026,-3.195818,-29.956984,-11.383636,1.298795
504,539586022,-3.285942,-0.6226883,73.62665,1.7466536,-1.4075232,2.1763651,-10.944986,-12.953909,-6.2472577,-1.0126,1.987567,-3.159545,-30.1394,-11.599534,1.194674
505,539602689,-7.0227814,-0.2853012,47.260067,1.6566725,-1.4206214,1.5781338,-12.18325,-16.098238,-3.453628,-0.984989,1.96389,-3.133243,-30.342454,-11.867838,1.137114
506,539619356,-10.928963,0.05810547,12.076044,1.5978699,-1.3950717,0.9305637,-12.314861,-19.885723,0.22450268,-0.958358,1.940639,-3.117734,-30.547702,-12.199267,1.140856
507,539636023,-14.969109,0.39552307,-32.69511,1.5800161,-1.3312995,0.24072528,-11.125872,-24.337011,4.811775,-0.932024,1.918451,-3.113722,-30.733133,-12.604884,1.221052
508,539652690,-19.815086,0.9147186,-80.60017,1.4381313,-1.2359846,-0.6504996,-11.692022,-29.122395,10.168352,-0.908055,1.897851,-3.124564,-30.928,-13.090257,1.390525
509,539669357,-25.308662,1.5739136,-133.77936,1.2123137,-1.1023543,-1.7100377,-13.218599,-34.38139,16.409842,-0.88785,1.879478,-3.153065,-31.14831,-13.66328,1.664022
510,539686024,-29.449768,2.0145035,-171.12177,1.0448294,-1.0234475,-2.3905134,-12.13748,-36.78129,19.415585,-0.870436,1.862421,-3.192907,-31.350601,-14.276301,1.987615
511,539702691,-32.129265,2.2278976,-189.8989,0.9273243,-1.0068719,-2.6610658,-8.48177,-35.967026,18.789242,-0.854981,1.84564,-3.237258,-31.491964,-14.875751,2.300769
512,539719358,-34.18931,2.3581467,-201.65587,0.81768703,-1.0024402,-2.7608514,-3.4050002,-33.612926,16.573603,-0.841353,1.828933,-3.283272,-31.548714,-15.435966,2.576996
513,539736025,-35.085564,2.3125916,-200.1967,0.74859715,-1.0351331,-2.5416965,3.9934704,-28.759638,11.601392,-0.828876,1.811681,-3.325634,-31.482156,-15.915293,2.770353
514,539752692,-36.156395,2.3504333,-196.31627,0.5923271,-1.0516057,-2.3657138,10.851918,-23.251026,6.241323,-0.819004,1.794154,-3.365063,-31.301291,-16.30281,2.874375
515,539769359,-37.460503,2.48555,-190.70752,0.342165,-1.0468755,-2.251387,17.064085,-17.18344,0.62672985,-0.813301,1.776706,-3.402586,-31.01689,-16.589201,2.88482
516,539786026,-37.849586,2.5097427,-172.37183,0.08760071,-1.0687327,-1.8883387,24.826258,-8.769981,-7.46763,-0.811841,1.758894,-3.434058,-30.603119,-16.735367,2.76036
517,539802693,-37.589622,2.4780273,-143.31781,-0.20033836,-1.1054285,-1.3500055,33.541935,1.6448162,-17.583473,-0.81518,1.74047,-3.456558,-30.044087,-16.707953,2.467302
518,539819360,-38.070488,2.4176865,-127.59385,-0.42712498,-1.055186,-1.0364599,39.49767,8.33242,-23.775108,-0.822299,1.722884,-3.473832,-29.385793,-16.569079,2.07105
519,539836027,-39.267296,2.3050537,-125.76507,-0.57473755,-0.91401476,-0.94448125,42.58272,11.003898,-25.787737,-0.831878,1.70765,-3.489573,-28.676081,-16.385681,1.641254
520,539852694,-40.683388,2.1634598,-127.46652,-0.70907974,-0.72186905,-0.9306791,44.141182,12.176844,-26.165388,-0.843696,1.695619,-3.505084,-27.940395,-16.182734,1.205164
521,539869361,-42.655846,1.9920273,-138.79726,-0.8014574,-0.45147246,-1.0941497,43.178295,10.321558,-23.334352,-0.857054,1.688094,-3.52332,-27.220757,-16.010708,0.816258
522,539886028,-44.054558,1.7198029,-142.61073,-0.88525486,-0.17302495,-1.1179132,42.4201,9.267392,-21.360716,-0.871808,1.68521,-3.541952,-26.513755,-15.856251,0.460246
523,539902695,-44.81492,1.3444061,-137.7367,-0.9652195,0.11077154,-0.9854572,41.952084,9.229551,-20.467943,-0.887895,1.687056,-3.558376,-25.814554,-15.702425,0.119114
524,539919362,-45.775032,0.8968811,-137.79356,-0.9989071,0.45896262,-0.93718827,39.533966,6.9736156,-17.27087,-0.904543,1.694705,-3.573996,-25.155655,-15.586198,-0.168734
525,539936029,-46.68258,0.35910034,-138.9826,-0.9927082,0.857632,-0.90400493,35.703453,3.2940671,-12.61761,-0.921088,1.708999,-3.589063,-24.560597,-15.531297,-0.379027
526,539952696,-47.204597,-0.035606384,-139.651,-1.0162363,1.1105247,-0.83593786,33.044468,1.5513628,-9.630835,-0.938025,1.727508,-3.602995,-24.009856,-15.505441,-0.539541
527,539969363,-47.395226,-0.26493073,-141.23143,-1.0686016,1.2059546,-0.7551639,31.50464,1.6464019,-8.175616,-0.955835,1.747607,-3.615581,-23.484779,-15.478001,-0.675801
528,539986030,-47.22793,-0.4546814,-141.8587,-1.119482,1.2275705,-0.6369222,30.190744,2.5004184,-7.325853,-0.974493,1.768067,-3.626196,-22.9816,-15.436327,-0.797899
529,540002697,-46.625816,-0.54042053,-141.51913,-1.1850872,1.1215817,-0.47410512,29.731094,4.9257975,-7.8249245,-0.994244,1.78676,-3.634098,-22.486082,-15.35423,-0.928314
530,540019364,-45.98133,-0.6524582,-144.50992,-1.2131796,1.0175769,-0.3561352,27.98444,6.1108155,-6.962704,-1.014464,1.80372,-3.640034,-22.019675,-15.252383,-1.044359
531,540036031,-45.28605,-0.8017502,-150.80775,-1.1990747,0.92116183,-0.28223193,24.835564,5.921981,-4.6180143,-1.034449,1.819073,-3.644738,-21.605749,-15.153683,-1.121326
532,540052698,-44.275185,-0.86743164,-158.39453,-1.1812449,0.71999866,-0.20316328,21.86647,6.4297514,-2.7498856,-1.054136,1.831073,-3.648124,-21.241308,-15.04652,-1.167157
533,540069365,-43.023323,-0.87688446,-168.25497,-1.1470566,0.43962717,-0.13819389,18.602062,7.019128,-0.76421654,-1.073254,1.8384,-3.650427,-20.931274,-14.929535,-1.179894
534,540086032,-41.32412,-0.94615173,-171.227,-1.042304,0.2985326,-0.03668268,17.438204,7.631757,0.73401845,-1.090626,1.843376,-3.651038,-20.640637,-14.802339,-1.16766
535,540102699,-39.124138,-1.0693588,-166.36154,-0.86478996,0.30249092,0.10945283,18.789366,8.48599,1.4769884,-1.105039,1.848418,-3.649214,-20.327481,-14.660906,-1.143044
536,540119366,-36.566124,-1.208641,-158.77602,-0.62997246,0.3637756,0.26163682,21.194626,9.173664,2.172405,-1.115539,1.854481,-3.644853,-19.974237,-14.508012,-1.106837
537,540136033,-33.57978,-1.3905792,-145.92911,-0.32239342,0.53916246,0.4338389,25.390747,9.732632,2.5978527,-1.120912,1.863467,-3.637622,-19.551058,-14.345801,-1.063539
538,540152700,-30.19831,-1.516365,-132.64586,0.019288063,0.6705612,0.6097192,30.393158,10.71607,2.6102939,-1.120591,1.874643,-3.62746,-19.044505,-14.1672,-1.020034
539,540169367,-26.42263,-1.5800781,-119.366516,0.39566994,0.7497182,0.78510535,36.129646,12.097964,2.2545142,-1.113997,1.887138,-3.614375,-18.442344,-13.965567,-0.982459
540,540186034,-22.167183,-1.6518021,-101.47948,0.8406925,0.9040196,0.97965604,43.772747,13.646405,1.3931017,-1.099985,1.902205,-3.598047,-17.712798,-13.738127,-0.959241
541,540202701,-17.429764,-1.7088776,-79.99878,1.3480463,1.1001003,1.1890705,53.159443,15.479721,-0.012931801,-1.077518,1.92054,-3.578229,-16.826807,-13.480132,-0.959457
542,540219368,-13.453247,-1.7913132,-65.508675,1.6885948,1.163985,1.2380166,58.044357,16.228155,-1.0358254,-1.049375,1.93994,-3.557595,-15.859401,-13.209663,-0.976721
543,540236035,-10.34034,-1.9097061,-58.402534,1.8447065,1.0941193,1.111321,58.017525,15.751896,-1.6388354,-1.01863,1.958175,-3.539073,-14.892442,-12.947131,-1.004035
544,540252702,-7.4957733,-2.028244,-54.324253,1.9211721,0.95012146,0.8880115,55.96332,14.788668,-2.3109758,-0.98661,1.97401,-3.524273,-13.95972,-12.700653,-1.042551
545,540269369,-5.2656784,-2.1594543,-56.067844,1.8541012,0.6868657,0.5181488,50.184025,12.95557,-2.8229625,-0.955708,1.985458,-3.515637,-13.12332,-12.484727,-1.0896
546,540286036,-2.9010544,-2.296257,-56.337917,1.7867556,0.43803096,0.105860665,44.64001,10.97588,-3.7560441,-0.925929,1.992759,-3.513873,-12.37932,-12.301796,-1.152201
547,540302703,-0.35980225,-2.4354858,-54.77225,1.7260485,0.20830563,-0.34512895,39.56155,8.906335,-5.1748757,-0.897162,1.996231,-3.519625,-11.719961,-12.153357,-1.238449
548,540319370,1.6777191,-2.5917358,-57.42817,1.543603,-0.10816139,-0.93216646,31.49029,6.0497713,-6.6081576,-0.871435,1.994428,-3.535161,-11.195123,-12.052527,-1.348585
549,540336037,3.3598557,-2.763298,-62.803017,1.2674255,-0.48413903,-1.6362132,21.2353,2.5522263,-8.196884,-0.850311,1.986359,-3.562431,-10.841201,-12.00999,-1.4852
550,540352704,5.240486,-2.8735428,-57.555107,1.0593796,-0.71452516,-2.0364394,14.242398,0.40900737,-8.631267,-0.832655,1.97445,-3.596372,-10.603828,-12.003173,-1.629054
551,540369371,7.2721634,-2.9175491,-41.137997,0.9163761,-0.79217786,-2.105827,10.573282,-0.2843253,-7.727563,-0.817382,1.961247,-3.631469,-10.427607,-12.007912,-1.757847
552,540386038,9.277412,-2.9306564,-18.857151,0.7779646,-0.79590076,-2.0323374,8.1625,-0.38116002,-6.204633,-0.804416,1.947982,-3.665341,-10.291565,-12.014265,-1.861258
553,540402705,11.373268,-2.8920898,12.867591,0.682889,-0.67089957,-1.7008909,8.398692,0.6520353,-3.6704578,-0.793035,1.9368,-3.693689,-10.151587,-12.003398,-1.922432
554,540419372,13.044548,-2.8492126,44.71908,0.5004797,-0.5645283,-1.3831698,7.195825,1.4763861,-0.7786114,-0.784694,1.927391,-3.716742,-10.031657,-11.978792,-1.935409
555,540436039,14.252953,-2.8047562,76.31588,0.22227097,-0.48249716,-1.0930287,4.348297,2.0231905,2.4338572,-0.780989,1.919349,-3.734959,-9.959185,-11.945072,-1.894845
556,540452706,15.338882,-2.7169724,115.45193,-0.05554962,-0.3031906,-0.59361863,3.0707006,3.4245794,6.6527896,-0.781915,1.914296,-3.744853,-9.908007,-11.887996,-1.783965
557,540469373,16.176277,-2.595436,160.26093,-0.36281395,-0.056194186,0.060560957,2.4934409,5.4065742,11.762201,-0.787962,1.913359,-3.743844,-9.86645,-11.797886,-1.587928
558,540486040,16.779228,-2.4679947,189.8454,-0.6250963,0.043080807,0.47733688,1.3256922,6.128506,14.914497,-0.79838,1.914077,-3.735888,-9.844355,-11.695744,-1.339353
559,540502707,17.171066,-2.3313828,203.16034,-0.8251343,-0.010532677,0.6511139,-0.16837883,5.5593204,15.941261,-0.812132,1.913901,-3.725036,-9.847161,-11.603089,-1.073665
560,540519374,17.24215,-2.1781769,208.86856,-1.019803,-0.13407505,0.7337219,-1.9639783,4.3930936,16.130587,-0.829129,1.911666,-3.712807,-9.879894,-11.529871,-0.804822
561,540536041,16.992676,-2.0139847,201.31316,-1.1855879,-0.38378835,0.62499386,-4.3102736,2.154212,14.714253,-0.848889,1.90527,-3.70239,-9.951732,-11.493967,-0.559584
562,540552708,16.477272,-1.8110962,194.70445,-1.3429956,-0.601327,0.6174361,-5.618898,0.21325678,13.541183,-0.871272,1.895248,-3.692099,-10.04538,-11.490413,-0.333898
563,540569375,15.671982,-1.5676117,189.66266,-1.4958982,-0.77941626,0.7263947,-5.849359,-1.3665314,12.717412,-0.896204,1.882258,-3.679992,-10.142869,-11.513189,-0.121941
564,540586042,14.540428,-1.3012772,174.11737,-1.6126633,-1.0455098,0.7212196,-5.9752946,-3.67638,10.652249,-0.923082,1.864833,-3.667972,-10.242457,-11.574462,0.055596
565,540602709,13.080551,-1.0052872,150.90907,-1.6969213,-1.3667114,0.66443104,-5.639382,-6.42965,7.7261577,-0.951364,1.842054,-3.656898,-10.336447,-11.681623,0.184365
566,540619376,11.535988,-0.8217392,127.89851,-1.7196789,-1.5217361,0.6983625,-4.81239,-8.12005,5.363005,-0.980025,1.816692,-3.645259,-10.416653,-11.816957,0.273748
567,540636043,9.919319,-0.7662735,104.15473,-1.671319,-1.5044911,0.8092764,-3.558989,-8.732493,3.484658,-1.00788,1.791617,-3.631771,-10.475969,-11.962499,0.331826
568,540652710,8.104752,-0.7668991,77.663315,-1.5658112,-1.3974357,0.9724116,-1.6145716,-8.785608,1.655857,-1.033977,1.768326,-3.615564,-10.502879,-12.108926,0.359424
569,540669377,6.1548004,-0.86470795,50.023376,-1.3911381,-1.1419454,1.2202182,1.0358591,-7.8881173,0.2044693,-1.057163,1.749294,-3.595227,-10.485615,-12.240395,0.362832
570,540686044,3.8976746,-0.98165894,13.240701,-1.1542978,-0.8996566,1.4107312,4.150173,-7.1986923,-2.1263156,-1.076401,1.7343,-3.571715,-10.416445,-12.360373,0.327393
571,540702711,1.3166428,-1.1136551,-33.203888,-0.85263443,-0.6766402,1.540262,7.7833114,-6.7583413,-5.404657,-1.090612,1.723023,-3.546044,-10.286723,-12.473012,0.237315
572,540719378,-1.4520569,-1.336853,-84.20738,-0.46933937,-0.34094828,1.7061195,12.090609,-5.6493883,-8.745015,-1.098434,1.717341,-3.517609,-10.085213,-12.567168,0.091565
573,540736045,-4.44928,-1.6367264,-141.71133,-0.0025787354,0.07485813,1.8778542,17.052103,-4.1080465,-12.432867,-1.098477,1.718589,-3.486311,-9.801011,-12.635635,-0.115649
574,540752712,-6.35688,-1.8462982,-181.57368,0.36592484,0.30280432,1.9193915,18.888859,-3.2632189,-14.5153,-1.092378,1.723636,-3.454321,-9.486197,-12.690022,-0.357571
575,540769379,-7.025032,-1.9613037,-201.00801,0.6233568,0.33349958,1.8265066,17.246653,-3.1100864,-14.708639,-1.081989,1.729194,-3.423879,-9.198753,-12.741857,-0.602715
576,540786046,-7.100418,-2.0531387,-212.89261,0.85959625,0.27246284,1.6410581,13.901083,-3.2691326,-14.139566,-1.067662,1.733735,-3.396528,-8.967068,-12.796343,-0.838374
577,540802713,-6.195984,-2.0792007,-210.27562,1.025651,0.04847181,1.3253434,7.7710915,-4.026334,-12.227148,-1.050568,1.734543,-3.374439,-8.83755,-12.863449,-1.04216
578,540819380,-5.036995,-2.1586227,-206.01884,1.2354631,-0.147219,0.98254913,1.1122885,-4.475936,-9.88446,-1.029977,1.732089,-3.358063,-8.819012,-12.938048,-1.206901
579,540836047,-3.6519852,-2.2992096,-200.9685,1.4974613,-0.30635303,0.61335015,-5.9775376,-4.581045,-7.177411,-1.005019,1.726983,-3.34784,-8.918638,-13.014399,-1.326525
580,540852714,-1.3234711,-2.4058762,-182.47447,1.71276,-0.5864659,0.13161862,-15.602112,-5.036879,-3.1220632,-0.976473,1.717209,-3.345646,-9.178673,-13.098347,-1.378559
581,540869381,1.820343,-2.5047836,-153.00822,1.9057169,-0.9486479,-0.44389212,-27.33869,-5.652834,2.115663,-0.944711,1.701398,-3.353044,-9.634318,-13.192561,-1.343298
582,540886048,0.8450775,-2.5935135,-137.94577,1.97962,-1.1889336,-0.84477675,-33.105896,-5.753385,4.878613,-0.911717,1.681582,-3.367124,-10.186083,-13.288451,-1.261988
583,540902715,-4.6301956,-2.6603928,-137.79623,1.9110317,-1.3079827,-1.0568602,-32.41686,-5.3537674,4.9689145,-0.879866,1.659782,-3.384738,-10.726364,-13.37768,-1.179173
584,540919382,-12.349968,-2.724472,-141.89874,1.7606268,-1.3773427,-1.1961806,-28.843973,-4.643122,4.0325847,-0.850522,1.636826,-3.404674,-11.207097,-13.455065,-1.111963
585,540936049,-23.690453,-2.781601,-156.68396,1.4952545,-1.3457048,-1.1903837,-20.189102,-3.4511964,1.0918709,-0.825601,1.614398,-3.424514,-11.543582,-13.512585,-1.093765
586,540952716,-35.595528,-2.8093567,-163.84778,1.1442919,-1.3743961,-1.2211366,-11.727259,-2.3518944,-1.4535984,-0.806529,1.591491,-3.444866,-11.739036,-13.551783,-1.117992
587,540969383,-47.91987,-2.8078613,-162.20425,0.7078104,-1.4708755,-1.2977966,-3.7282329,-1.3609887,-3.4614775,-0.794732,1.566976,-3.466496,-11.801173,-13.574466,-1.175683
588,540986050,-63.415504,-2.7833405,-166.23895,0.13842106,-1.5114071,-1.2666022,8.369095,-0.045523703,-6.973997,-0.792425,1.541786,-3.487606,-11.661688,-13.575225,-1.291916
589,541002717,-81.48815,-2.7300186,-171.92374,-0.56199074,-1.5304387,-1.1647353,23.500572,1.4767861,-11.491498,-0.801792,1.516279,-3.507018,-11.270012,-13.550612,-1.483441
590,541019384,-84.63717,-2.7593002,-171.77634,-1.0304213,-1.4632802,-1.0950923,33.701538,2.4431221,-14.33628,-0.818966,1.491891,-3.52527,-10.70832,-13.509893,-1.722379
591,541036051,-71.48818,-2.881096,-166.74126,-1.2417316,-1.2885258,-1.0467353,38.81332,2.8286507,-15.514526,-0.839662,1.470416,-3.542716,-10.061431,-13.462749,-1.980954
592,541052718,-49.902718,-3.037651,-157.53526,-1.370079,-1.0597076,-0.99412227,41.9353,2.9135442,-15.968259,-0.862497,1.452754,-3.559285,-9.362509,-13.41419,-2.247092
593,541069385,-14.96566,-3.259697,-142.48499,-1.3170605,-0.75355166,-0.9589826,41.011086,2.4929132,-15.023257,-0.884448,1.440195,-3.575268,-8.678991,-13.372641,-2.49748
594,541086052,22.4898,-3.4835052,-129.48006,-1.3101397,-0.37453866,-0.83932745,41.900455,2.1250215,-14.7697,-0.906284,1.433953,-3.589257,-7.98065,-13.337224,-2.743642
595,541102719,62.008026,-3.7042618,-118.62282,-1.3643446,0.07610077,-0.6293779,44.896553,1.8279881,-15.30294,-0.929023,1.435221,-3.599747,-7.232374,-13.306758,-2.998691
596,541119386,113.409325,-3.9805374,-104.59492,-1.2809162,0.6234808,-0.39594877,45.321445,1.1419735,-15.010748,-0.950372,1.445612,-3.606346,-6.477017,-13.287725,-3.24887
597,541136053,174.6295,-4.299156,-89.04524,-1.107297,1.2692972,-0.114989296,44.411274,0.17727906,-14.337327,-0.968827,1.466767,-3.608262,-5.736829,-13.28477,-3.487825
598,541152720,209.33173,-4.505623,-78.36123,-1.0132723,1.683799,0.077135056,43.210007,-0.57914335,-13.283023,-0.985715,1.49483,-3.606976,-5.016662,-13.294422,-3.709209
599,541169387,215.33446,-4.5927505,-72.652435,-0.98827076,1.8410053,0.16161345,41.230324,-1.1425229,-11.652991,-1.002186,1.525513,-3.604282,-4.32949,-13.313464,-3.903426
600,541186054,208.56177,-4.6250305,-70.08572,-0.98192596,1.9002721,0.22130343,38.79164,-1.6758788,-9.744988,-1.018551,1.557184,-3.600594,-3.682963,-13.341395,-4.065842
601,541202721,179.11252,-4.5610123,-72.4039,-1.0328722,1.7706892,0.21682896,35.99882,-2.062898,-7.4990654,-1.035766,1.586695,-3.59698,-3.082983,-13.375777,-4.190826
602,541219388,150.77293,-4.5052032,-74.496475,-0.98980904,1.6519518,0.21243906,30.999598,-2.7179182,-4.487745,-1.052263,1.614228,-3.593439,-2.566323,-13.421076,-4.265622
603,541236055,124.714516,-4.4624863,-76.321846,-0.8445749,1.5563066,0.2146853,23.730377,-3.663716,-0.70746243,-1.066339,1.640166,-3.589861,-2.170817,-13.482138,-4.277413
604,541252722,80.359055,-4.3444824,-82.018776,-0.7028847,1.3042865,0.1567618,15.130289,-4.599751,3.7049289,-1.078054,1.661904,-3.587248,-1.918646,-13.558801,-4.215664
605,541269389,22.478752,-4.17231,-90.63503,-0.53026867,0.9362826,0.051754355,4.744562,-5.619046,8.860142,-1.086892,1.677509,-3.586385,-1.83957,-13.652452,-4.067995
606,541286056,-14.333267,-4.0494995,-97.48192,-0.3500471,0.6859367,0.021547109,-0.13407373,-6.03782,12.164817,-1.092726,1.688941,-3.586026,-1.841805,-13.753082,-3.865248
607,541302723,-29.517647,-3.9741745,-102.69372,-0.1742611,0.5505149,0.06769563,1.2463827,-5.7554183,13.376899,-1.09563,1.698116,-3.584898,-1.821032,-13.849006,-3.6423
608,541319390,-36.47268,-3.9105225,-107.94951,0.033974648,0.4439559,0.1399953,5.078764,-5.1595626,13.81621,-1.095064,1.705515,-3.582565,-1.736386,-13.934999,-3.41203
609,541336057,-26.327415,-3.8838272,-112.138626,0.2666273,0.42329168,0.26898482,13.426491,-4.0450716,12.757591,-1.09062,1.71257,-3.578082,-1.512611,-14.002417,-3.199403
610,541352724,-24.795776,-3.809639,-119.26342,0.51287365,0.30390456,0.36629522,22.264997,-2.731721,11.681315,-1.082072,1.717635,-3.571977,-1.141528,-14.047946,-3.004714
611,541369391,-33.200775,-3.6835556,-129.57997,0.7768202,0.07503247,0.4262251,31.322649,-1.2396207,10.685551,-1.069125,1.718886,-3.564873,-0.619484,-14.068606,-2.826621
612,541386058,-31.186256,-3.5684586,-140.21205,1.0572977,-0.12460387,0.5181384,44.43911,0.7789965,8.391719,-1.051503,1.716809,-3.556237,0.121168,-14.055623,-2.686759
613,541402725,-24.222198,-3.4457703,-152.08223,1.3531141,-0.3360688,0.6225197,60.81976,3.2681239,5.0961175,-1.028951,1.711208,-3.545862,1.134831,-14.001154,-2.601824
614,541419392,-22.226112,-3.3892593,-158.06273,1.567502,-0.4740587,0.61183965,70.203735,5.014507,2.8831043,-1.002826,1.703307,-3.535665,2.304893,-13.917579,-2.553772
615,541436059,-23.684624,-3.4133682,-157.15039,1.689681,-0.5147645,0.48105192,72.14712,5.958025,1.7537133,-0.974665,1.694728,-3.527647,3.507345,-13.818279,-2.524543
616,541452726,-27.588089,-3.4704056,-153.37247,1.7641382,-0.52741104,0.2761869,71.0282,6.64697,0.89632165,-0.945263,1.685938,-3.523044,4.691148,-13.707496,-2.509604
617,541469393,-36.005287,-3.583603,-144.6128,1.7620783,-0.48348564,-0.037595227,64.12731,6.760309,0.82676077,-0.915895,1.67788,-3.523671,5.759937,-13.594824,-2.495825
618,541486060,-37.876198,-3.7263489,-134.30606,1.7404146,-0.39806706,-0.37017834,58.43274,7.104126,-0.043025933,-0.886888,1.671246,-3.529841,6.733816,-13.476422,-2.496542
619,541502727,-32.88922,-3.8964615,-122.68333,1.700573,-0.27478415,-0.71946657,54.321404,7.729455,-1.8101078,-0.858545,1.666666,-3.541832,7.639173,-13.347598,-2.52671
620,541519394,-28.14801,-4.1287537,-106.10446,1.587367,-0.079351604,-1.1617832,45.957935,7.959261,-3.2578664,-0.832089,1.665343,-3.561195,8.405139,-13.214944,-2.581008
621,541536061,-21.196243,-4.419159,-85.19341,1.4105787,0.18676832,-1.6800925,34.793434,7.964487,-4.7385297,-0.808579,1.668456,-3.589197,8.98503,-13.082203,-2.659983
622,541552728,-14.586067,-4.5300827,-64.68213,1.2361078,0.3240483,-1.950143,26.499792,8.6425,-5.2354093,-0.787977,1.673857,-3.621699,9.426693,-12.938161,-2.74724
623,541569395,-9.159164,-4.44442,-44.40226,1.0608883,0.3205749,-1.9501735,20.867569,9.995438,-4.5076575,-0.770296,1.6792,-3.654202,9.774486,-12.77157,-2.822368
624,541586062,-1.8613129,-4.2730713,-22.385624,0.85779953,0.272076,-1.8226413,16.151283,11.713259,-3.2793908,-0.755999,1.683735,-3.684579,10.043674,-12.576349,-2.877025
625,541602729,6.538353,-3.9507828,0.30926394,0.64125156,0.1255287,-1.4779854,13.710875,14.025053,-1.2185626,-0.745311,1.685827,-3.709212,10.272189,-12.342598,-2.897334
626,541619396,15.791939,-3.6253662,27.529823,0.35507393,0.007051885,-1.1254545,8.698582,16.23744,1.3910943,-0.739393,1.685945,-3.72797,10.417165,-12.071974,-2.874149
627,541636063,26.25396,-3.3051682,59.62866,-0.00605011,-0.074287236,-0.77449936,0.8913827,18.322765,4.5175457,-0.739494,1.684707,-3.740878,10.432021,-11.766595,-2.798857
628,541652730,37.434906,-2.8590927,93.90841,-0.40381527,-0.22667593,-0.24114068,-6.17856,20.823189,8.615325,-0.746224,1.680929,-3.744897,10.329045,-11.419542,-2.655268
629,541669397,49.38162,-2.3169174,131.32393,-0.8524227,-0.42311186,0.43354517,-13.573252,23.59462,13.648565,-0.760431,1.673877,-3.737671,10.102824,-11.026298,-2.427792
630,541686064,57.944916,-1.9235611,157.74478,-1.1861086,-0.58533436,0.8635779,-18.048096,24.431229,16.447937,-0.780199,1.664121,-3.723278,9.802022,-10.619111,-2.15366
631,541702731,62.603317,-1.6847534,171.52005,-1.385397,-0.7198425,1.0370156,-18.893465,23.174715,16.792894,-0.803289,1.652124,-3.705994,9.487131,-10.232866,-1.873778
632,541719398,65.34707,-1.5031357,180.0302,-1.5395689,-0.8459242,1.1114981,-18.382486,20.762772,16.181728,-0.828948,1.638025,-3.687469,9.180756,-9.88682,-1.604083
633,541736065,64.920944,-1.4420853,179.17036,-1.6008244,-0.9460588,0.9861931,-15.482389,16.575743,13.751475,-0.855628,1.622257,-3.671032,8.922716,-9.610558,-1.374892
634,541752732,63.735474,-1.3240585,176.53783,-1.6575956,-1.0933495,0.9363142,-11.165926,12.024726,11.476277,-0.883255,1.604035,-3.655427,8.736617,-9.410146,-1.183621
635,541769399,61.857635,-1.1398392,172.56944,-1.7158947,-1.2910416,0.9763872,-5.549703,7.1575136,9.477637,-0.911853,1.582518,-3.639154,8.644122,-9.290854,-1.02566
636,541786066,56.911606,-1.0320969,159.76189,-1.6887846,-1.4889138,0.8827153,2.8118873,0.71015614,6.0181026,-0.939999,1.557703,-3.624442,8.690987,-9.279018,-0.925358
637,541802733,49.310005,-0.9633255,139.53593,-1.5933723,-1.7033637,0.71318144,13.775562,-7.0525475,1.5026474,-0.966555,1.529314,-3.612556,8.92058,-9.39656,-0.900314
638,541819400,45.446907,-0.93297577,128.67807,-1.4987745,-1.7814877,0.68326026,20.251612,-11.853001,-1.9064454,-0.991535,1.499623,-3.601168,9.258107,-9.59411,-0.932088
639,541836067,45.551914,-0.9592285,127.64018,-1.3977365,-1.7029498,0.78601223,21.829027,-13.452516,-4.2378135,-1.014831,1.471241,-3.588068,9.621924,-9.818319,-1.002718
640,541852734,46.785805,-1.0179062,129.22426,-1.2663708,-1.5514696,0.9580254,21.839365,-13.717071,-6.261624,-1.035937,1.445383,-3.572101,9.985913,-10.046937,-1.107078
641,541869401,50.801323,-1.1149979,137.72505,-1.1182699,-1.2818944,1.251969,18.39421,-11.489547,-7.447825,-1.054575,1.424018,-3.551235,10.292483,-10.238429,-1.231208
642,541886068,53.14476,-1.2890778,141.22906,-0.8880539,-0.9698246,1.4842784,16.037699,-9.610425,-9.518009,-1.069376,1.407854,-3.526497,10.559778,-10.398603,-1.389841
643,541902735,53.513805,-1.541565,138.95947,-0.5697031,-0.61985725,1.6479776,15.076914,-8.225001,-12.564609,-1.078871,1.397523,-3.499031,10.81106,-10.535686,-1.599251
644,541919402,55.518715,-1.86129,140.45512,-0.20456791,-0.15313154,1.878714,11.625831,-4.9037466,-15.292098,-1.08228,1.394971,-3.467719,11.004824,-10.617415,-1.854119
645,541936069,58.18439,-2.259018,143.10779,0.22425747,0.41670144,2.137361,6.6484303,-0.22365004,-18.078777,-1.078542,1.401916,-3.432096,11.115631,-10.621143,-2.155432
646,541952736,61.110394,-2.5660706,142.31409,0.5529871,0.7225089,2.203471,3.089992,1.988518,-19.675516,-1.069326,1.413958,-3.395371,11.167131,-10.588001,-2.483357
647,541969403,64.699,-2.7681503,138.7548,0.7630739,0.74064314,2.069798,0.72664833,1.6851585,-19.810055,-1.056608,1.426302,-3.360874,11.179242,-10.559915,-2.813525
648,541986070,68.47601,-2.9550705,132.80205,0.9456644,0.6373513,1.8125113,-1.2073841,0.31102353,-19.332914,-1.040847,1.436925,-3.330665,11.159119,-10.554731,-3.13574
649,542002737,72.46478,-3.0810623,123.47003,1.0543575,0.3125632,1.371631,-2.047418,-3.1131763,-17.843092,-1.023274,1.442134,-3.307804,11.124995,-10.606617,-3.433125
650,542019404,77.803665,-3.2439728,115.79333,1.1769028,0.0012189746,0.909042,-4.510916,-5.7099824,-15.732513,-1.003659,1.442154,-3.292653,11.049813,-10.701783,-3.695334
651,542036071,84.508514,-3.4523163,109.86368,1.3206034,-0.28398842,0.42824852,-8.723778,-7.3383303,-13.0390625,-0.981649,1.437421,-3.285516,10.904417,-10.824089,-3.912652
652,542052738,92.08249,-3.618103,102.38353,1.4008732,-0.7480412,-0.20545898,-12.807377,-10.26572,-9.190887,-0.958301,1.424954,-3.28894,10.690961,-10.995184,-4.065833
653,542069405,100.804146,-3.762535,94.43383,1.4356728,-1.3434465,-0.96125996,-17.372456,-13.88234,-4.242312,-0.934373,1.402563,-3.304961,10.40142,-11.226556,-4.136538
654,542086072,108.526764,-3.902214,86.918205,1.414424,-1.6984031,-1.4561527,-17.855806,-15.785247,-1.5944415,-0.910799,1.374256,-3.32923,10.103823,-11.489643,-4.163112
655,542102739,115.049484,-4.026634,79.62465,1.3228712,-1.8045158,-1.670792,-13.614447,-16.009384,-1.4695451,-0.888751,1.344181,-3.357077,9.876916,-11.756466,-4.187604
656,542119406,121.626495,-4.1413803,72.9174,1.1759233,-1.8078249,-1.7673132,-7.2373376,-15.27462,-2.2666693,-0.869152,1.314051,-3.386532,9.756294,-12.011043,-4.225382
657,542136073,127.682495,-4.246666,67.01642,0.9648371,-1.6120114,-1.6424325,2.628714,-12.97234,-4.905102,-0.853071,1.287184,-3.413906,9.800106,-12.227249,-4.307134
658,542152740,134.37468,-4.310341,60.548805,0.6721144,-1.4881482,-1.5569279,13.8157835,-11.081075,-7.2395186,-0.841869,1.262382,-3.439855,10.030369,-12.411934,-4.427793
659,542169407,141.8369,-4.330261,53.591187,0.29449368,-1.4498167,-1.5233626,26.175255,-9.661064,-9.134178,-0.836961,1.238218,-3.465244,10.466623,-12.572952,-4.580029
660,542186074,149.01091,-4.3205795,47.047604,-0.17037487,-1.2794356,-1.3212397,42.019894,-7.201234,-12.456681,-0.839801,1.216894,-3.487265,11.166955,-12.692973,-4.78764
661,542202741,156.16252,-4.272484,40.67952,-0.72991085,-1.034024,-1.0034873,60.956627,-4.1078534,-16.761862,-0.851966,1.19966,-3.50399,12.182899,-12.761437,-5.067004
662,542219408,163.92258,-4.1512985,33.92544,-1.0682545,-0.8509473,-0.84412885,75.29908,-3.2172024,-19.042017,-0.86977,1.185478,-3.518059,13.437884,-12.815057,-5.384371
663,542236075,172.21664,-3.9522858,26.848867,-1.1579361,-0.7164059,-0.8402333,84.67431,-4.6314907,-19.25173,-0.889069,1.173538,-3.532063,14.849122,-12.892249,-5.705233
664,542252742,180.92941,-3.6832657,19.5815,-1.1559792,-0.60319346,-0.89545596,92.523766,-7.2873344,-18.5261,-0.908335,1.163485,-3.546987,16.391185,-13.013705,-6.014001
665,542269409,190.19586,-3.3322144,12.004498,-0.9745512,-0.54182583,-1.0775706,96.81305,-11.948504,-16.091219,-0.924578,1.154455,-3.564947,18.004736,-13.212847,-6.282188
666,542286076,199.40793,-2.9195251,4.767639,-0.80111504,-0.3950743,-1.1672269,102.664566,-16.568176,-14.180502,-0.93793,1.14787,-3.584401,19.715812,-13.488983,-6.51853
667,542302743,208.54424,-2.4423904,-2.090074,-0.6476946,-0.15794504,-1.1533186,110.3943,-21.077444,-12.899032,-0.948725,1.145238,-3.603623,21.555717,-13.840274,-6.733514
668,542319410,218.01282,-1.8778,-8.977486,-0.34342957,0.07702714,-1.2015674,115.70203,-27.1736,-10.471414,-0.954449,1.146522,-3.623649,23.484084,-14.293167,-6.908038
669,542336077,227.67899,-1.226944,-15.737486,0.07381821,0.34028703,-1.264235,119.66981,-34.45256,-7.3662353,-0.953219,1.152193,-3.64472,25.478581,-14.867376,-7.030809
670,542352744,234.88647,-0.74676514,-21.025297,0.28887558,0.5264779,-1.2778788,122.882706,-37.528393,-5.2780046,-0.948404,1.160968,-3.666018,27.526626,-15.492849,-7.118776
671,542369411,239.39853,-0.45778656,-24.725878,0.29511738,0.6163708,-1.2547548,124.825386,-36.089584,-4.15481,-0.943485,1.171241,-3.686931,29.607049,-16.094342,-7.188023
672,542386078,242.3565,-0.23757172,-27.338766,0.21844196,0.6818616,-1.1912805,125.91332,-32.418236,-3.5092509,-0.939844,1.182605,-3.706786,31.705604,-16.634646,-7.246511
673,542402745,242.99097,-0.15736389,-28.465012,-0.022193909,0.6912068,-1.0740703,126.10942,-25.04098,-3.758816,-0.940214,1.194125,-3.724687,33.807428,-17.051996,-7.309158
674,542419412,242.9206,-0.058944702,-28.951004,-0.1979084,0.6822739,-0.98148286,123.92858,-17.540388,-3.4535027,-0.943512,1.205496,-3.741045,35.872904,-17.344336,-7.366716
675,542436079,242.18271,0.06678009,-28.79127,-0.29632378,0.6601556,-0.91350794,119.28973,-10.071248,-2.5429487,-0.948451,1.216499,-3.75627,37.861066,-17.51219,-7.409098
676,542452746,239.25949,0.07788849,-27.18399,-0.50037956,0.5774617,-0.82004666,112.806694,0.45859557,-2.1027477,-0.956791,1.226123,-3.769937,39.741178,-17.504547,-7.444144
677,542469413,234.43503,0.0061187744,-24.26278,-0.76131535,0.44138938,-0.71731824,104.07778,13.3411665,-1.827026,-0.96948,1.233479,-3.781892,41.475808,-17.282194,-7.474594
678,542486080,233.86542,-0.07904053,-22.368427,-0.8580656,0.31615707,-0.65012354,99.108154,21.421942,-1.4532241,-0.983781,1.238748,-3.792727,43.127611,-16.925162,-7.498814
679,542502747,237.92197,-0.19173431,-21.592728,-0.7908554,0.19940981,-0.61825967,98.45544,24.421673,-1.0795065,-0.996962,1.242071,-3.803031,44.768535,-16.518134,-7.516806
680,542519414,243.84503,-0.34654236,-20.88032,-0.6307936,0.06363547,-0.61224306,98.92585,25.28242,-0.62146217,-1.007475,1.243132,-3.813235,46.417299,-16.09676,-7.527164
681,542536081,253.30365,-0.53208923,-20.838219,-0.32102776,-0.076981544,-0.64430517,102.17606,22.106647,-0.038609028,-1.012825,1.241849,-3.823973,48.120233,-15.728316,-7.527807
682,542552748,262.27408,-0.8289108,-19.837893,-0.03631687,-0.2731378,-0.6748069,104.790375,19.89567,0.22991088,-1.01343,1.237297,-3.83522,49.866739,-15.396722,-7.523975
683,542569415,270.53638,-1.2435684,-17.765862,0.217803,-0.52979344,-0.7039721,106.491104,18.895142,0.18116572,-1.0098,1.228467,-3.846953,51.641591,-15.081803,-7.520956
684,542586082,281.5561,-1.7300949,-15.944357,0.5778141,-0.81138366,-0.7629046,110.41937,14.964894,0.060074557,-1.00017,1.214944,-3.859668,53.481914,-14.832388,-7.519955
685,542602749,294.51166,-2.3095856,-14.01549,1.0081615,-1.1306565,-0.8443681,115.857414,9.135639,-0.23124543,-0.983367,1.1961,-3.873741,55.412871,-14.680127,-7.523809
686,542619416,292.893,-2.6558533,-13.337808,1.2247591,-1.3070261,-0.8436544,118.09779,5.0538945,0.42728415,-0.962954,1.174316,-3.887802,57.381168,-14.595895,-7.516688
687,542636083,275.49487,-2.734764,-14.213009,1.216155,-1.3194182,-0.7546008,117.11565,2.531856,2.1637514,-0.942685,1.152326,-3.900379,59.333095,-14.553697,-7.480625
688,542652750,249.54297,-2.717598,-15.762506,1.0927143,-1.2627082,-0.6223068,114.68203,0.5049074,4.37687,-0.924473,1.131281,-3.910751,61.244462,-14.545282,-7.407677
689,542669417,210.4209,-2.5118637,-18.432863,0.77787495,-1.0845311,-0.41817158,109.61053,-0.17252523,7.3877435,-0.911508,1.113205,-3.917721,63.071304,-14.548157,-7.284548
690,542686084,168.54837,-2.298645,-21.777704,0.47297478,-0.8820613,-0.21232529,105.43997,-2.737287,10.613022,-0.903625,1.098504,-3.92126,64.828637,-14.593778,-7.107664
691,542702751,124.33804,-2.090332,-25.772999,0.18552971,-0.6611015,-0.008051902,102.35401,-7.342758,14.012884,-0.900533,1.087486,-3.921394,66.534537,-14.716157,-6.874116
692,542719418,68.44577,-1.714592,-31.069553,-0.2525015,-0.3259129,0.2548557,97.58989,-11.686437,18.165606,-0.904741,1.082054,-3.917146,68.161035,-14.910931,-6.571356
693,542736085,2.8579254,-1.2073364,-37.615875,-0.8011303,0.10517818,0.5623493,91.90689,-16.488194,22.959003,-0.918093,1.083807,-3.907774,69.692817,-15.185734,-6.188706
694,542752752,-42.097054,-0.80202484,-42.021534,-1.1429853,0.33117875,0.7920494,87.066284,-20.103516,25.502047,-0.937143,1.089327,-3.894573,71.143922,-15.520793,-5.763672
695,542769419,-64.76879,-0.49536896,-44.08978,-1.2694225,0.33726537,0.94009835,82.91524,-22.134361,25.593683,-0.9583,1.094948,-3.878905,72.525843,-15.889699,-5.337111
696,542786086,-78.30288,-0.19732666,-45.43348,-1.3053722,0.2555857,1.055519,79.142654,-23.875513,24.531029,-0.980056,1.099208,-3.861313,73.844887,-16.287624,-4.928261
697,542802753,-74.505516,0.036109924,-45.15225,-1.1678295,0.0059452653,1.106155,76.15869,-24.804665,21.51616,-0.99952,1.099307,-3.842877,75.114199,-16.701035,-4.569658
698,542819420,-73.58262,0.3883667,-45.430225,-1.0875502,-0.21022737,1.1794001,72.23561,-25.305397,18.375795,-1.017646,1.095803,-3.82322,76.318126,-17.122792,-4.263395
699,542836087,-76.555305,0.8718338,-46.422436,-1.0756226,-0.38151973,1.2794949,67.33513,-25.464483,15.197786,-1.035573,1.089444,-3.801895,77.440378,-17.5472,-4.010099
700,542852754,-66.17455,1.3500977,-46.271156,-0.94547176,-0.6777285,1.3350906,62.66026,-24.614555,10.363114,-1.051331,1.078149,-3.779643,78.484716,-17.957443,-3.83738
701,542869421,-46.542824,1.8651123,-45.445312,-0.74518204,-1.0569632,1.3643167,57.846817,-22.820066,4.2313547,-1.063751,1.060533,-3.756904,79.44883,-18.337777,-3.766857
702,542886088,-37.83393,2.319931,-44.889034,-0.56217957,-1.2704937,1.4346377,53.141926,-22.000748,0.16439718,-1.073121,1.039358,-3.732993,80.334529,-18.704456,-3.764117
703,542902755,-39.668694,2.6907806,-44.45254,-0.38102055,-1.3159685,1.5435024,48.699272,-22.207594,-1.7371122,-1.079471,1.017425,-3.707268,81.146184,-19.074583,-3.793069
704,542919422,-45.064323,3.0539627,-43.997364,-0.191535,-1.2835917,1.6708236,44.149918,-22.539331,-2.84546,-1.082663,0.996032,-3.679421,81.882016,-19.450239,-3.840493
705,542936089,-58.938026,3.3784637,-43.71044,-0.010624886,-1.1095517,1.8328518,39.596157,-23.474169,-2.284153,-1.08284,0.977539,-3.648873,82.541952,-19.841475,-3.878562
706,542952756,-64.85894,3.6884766,-42.567375,0.26277065,-0.9826661,1.9713464,35.22057,-23.7089,-2.4531152,-1.07846,0.961161,-3.616017,83.128961,-20.236623,-3.919447
707,542969423,-61.96241,3.9891434,-40.52356,0.6329775,-0.91119176,2.083824,31.003786,-23.131441,-3.4801013,-1.06791,0.945974,-3.581287,83.645691,-20.622147,-3.977449
708,542986090,-62.48342,4.2401047,-38.223537,1.0378075,-0.7463481,2.212738,26.954035,-22.779142,-3.417926,-1.050613,0.933535,-3.544408,84.094925,-21.001799,-4.034414
709,543002757,-62.801598,4.4454803,-35.42922,1.5009203,-0.527602,2.3454394,23.117071,-22.351002,-2.7724502,-1.025598,0.924742,-3.505317,84.48021,-21.374316,-4.080622
710,543019424,-62.811363,4.711029,-33.330635,1.7870703,-0.45698875,2.3037589,19.511974,-22.04639,-2.7200499,-0.995813,0.917126,-3.466921,84.80541,-21.741756,-4.125956
711,543036091,-63.831978,5.0388947,-32.093388,1.8682756,-0.5364248,2.0739477,16.168222,-22.000223,-3.129553,-0.964675,0.908186,-3.432355,85.07488,-22.108426,-4.178115
712,543052758,-63.34153,5.379669,-30.971975,1.8735447,-0.6971311,1.7303562,13.126614,-21.900827,-3.7783544,-0.933449,0.896567,-3.403516,85.293657,-22.47344,-4.241088
