PacketCounter,SampleTimeFine,Euler_X,Euler_Y,Euler_Z,Acc_X,Acc_Y,Acc_Z,Gyr_X,Gyr_Y,Gyr_Z,Velo_X,Velo_Y,Velo_Z,ANG_X,ANG_Y,ANG_Z
0,584672714,-153.66957,-4.682762,20.672932,-2.5295825,-0.26594633,1.3936638,4.345436,16.435448,-1.4636581,0.0,0.0,0.0,0.0,0.0,0.0
1,584689381,-140.82164,-4.4176254,31.394476,-2.2534165,-0.26109567,1.4603498,2.6906767,16.511963,-2.1617897,-0.037557,-0.004352,0.024339,0.044845,0.275199,-0.03603
2,584706048,-127.46912,-4.1378403,42.470917,-1.9531059,-0.25780615,1.5315839,0.906446,16.618254,-2.8927033,-0.070109,-0.008649,0.049865,0.059952,0.55217,-0.084242
3,584722715,-113.834656,-3.847206,53.69372,-1.6330805,-0.2563293,1.6063733,-0.9858818,16.753155,-3.6456528,-0.097327,-0.012921,0.076638,0.043521,0.831389,-0.145003
4,584739382,-95.41758,-3.4668503,69.22741,-1.2037659,-0.25182965,1.7046452,-3.4377842,16.93803,-4.64071,-0.11739,-0.017118,0.105049,-0.013775,1.11369,-0.222348
5,584756049,-73.216446,-3.013855,88.14301,-0.6833515,-0.24558385,1.8222059,-6.3563147,17.171646,-5.829532,-0.128779,-0.021211,0.135419,-0.119714,1.399884,-0.319507
6,584772716,-58.367043,-2.6729584,100.35943,-0.32177162,-0.2548712,1.8780324,-9.245906,16.84251,-6.511377,-0.134142,-0.025459,0.16672,-0.273812,1.680593,-0.42803
7,584789383,-51.331856,-2.45092,105.46868,-0.13018703,-0.28085247,1.8669416,-12.128297,15.892922,-6.6478324,-0.136312,-0.03014,0.197836,-0.47595,1.945475,-0.538827
8,584806050,-47.454166,-2.2705383,107.66932,-0.00075912476,-0.31627488,1.8246348,-15.188542,14.610067,-6.540201,-0.136325,-0.035411,0.228247,-0.729092,2.188976,-0.64783
9,584822717,-49.69057,-2.180359,104.28794,0.0002412796,-0.36596355,1.7288921,-18.314693,12.818873,-5.9986415,-0.136321,-0.04151,0.257062,-1.034337,2.402624,-0.747807
10,584839384,-50.331028,-2.050949,102.32711,0.043289185,-0.41870186,1.6321033,-21.928764,10.877185,-5.4898663,-0.1356,-0.048488,0.284264,-1.399816,2.58391,-0.839305
11,584856051,-48.982143,-1.8752899,102.14278,0.13789368,-0.47410446,1.5367726,-26.063293,8.799955,-5.0364585,-0.133302,-0.05639,0.309877,-1.834204,2.730576,-0.923246
12,584872718,-52.051125,-1.7597122,97.92722,0.14188194,-0.542114,1.3971227,-30.423435,6.249857,-4.23896,-0.130937,-0.065425,0.333162,-2.341261,2.83474,-0.993895
13,584889385,-57.94463,-1.6770325,91.12854,0.090851784,-0.620607,1.2235553,-35.11072,3.2931042,-3.191423,-0.129423,-0.075768,0.353555,-2.92644,2.889625,-1.047085
14,584906052,-60.65808,-1.5464249,87.561905,0.076553345,-0.68593687,1.1720369,-39.045116,2.041842,-2.8737535,-0.128147,-0.0872,0.373089,-3.577192,2.923656,-1.094981
15,584922719,-60.44532,-1.3736343,87.03773,0.08925724,-0.737232,1.2518175,-42.092075,2.6572285,-3.3293524,-0.126659,-0.099487,0.393953,-4.278727,2.967943,-1.15047
16,584939386,-59.122345,-1.1790619,87.74011,0.10848522,-0.78444815,1.3958985,-44.836853,4.1829686,-4.15558,-0.124851,-0.112561,0.417218,-5.026008,3.037659,-1.21973
17,584956053,-55.261852,-0.94412994,91.07315,0.15397453,-0.8213767,1.646923,-46.964436,7.2085433,-5.6151667,-0.122285,-0.126251,0.444667,-5.808749,3.157801,-1.313316
18,584972720,-54.072178,-0.7438431,92.10427,0.13451481,-0.8646138,1.9023149,-49.034252,10.419866,-7.033121,-0.120043,-0.140661,0.476372,-6.625987,3.331465,-1.430535
19,584989387,-55.79687,-0.58135986,90.60805,0.04578209,-0.91508126,2.157453,-51.08233,13.75682,-8.378769,-0.11928,-0.155912,0.51233,-7.477359,3.560745,-1.570181
20,585006054,-56.676647,-0.40435028,90.20047,-0.051787376,-0.95917904,2.5012233,-52.54504,18.401552,-10.21873,-0.120143,-0.171898,0.554017,-8.35311,3.867438,-1.740493
21,585022721,-57.85997,-0.2294159,89.805,-0.17913342,-1.0004064,2.9133031,-53.527485,24.09966,-12.416423,-0.123129,-0.188571,0.602572,-9.245235,4.269099,-1.947433
22,585039388,-58.860302,-0.07007599,89.15182,-0.27007294,-1.0551301,3.1792247,-54.728394,26.669159,-13.667357,-0.12763,-0.206157,0.655559,-10.157375,4.713585,-2.175222
23,585056055,-59.238407,0.07736206,88.60397,-0.3129692,-1.1232556,3.2900631,-56.123055,25.8636,-13.917022,-0.132846,-0.224878,0.710393,-11.092759,5.144645,-2.407172
24,585072722,-60.0488,0.20701599,87.5257,-0.35496044,-1.1993849,3.334508,-57.432304,23.502337,-13.69324,-0.138762,-0.244868,0.765968,-12.049964,5.536351,-2.635393
25,585089389,-61.06576,0.31586456,85.93337,-0.376647,-1.2876647,3.2554545,-58.8143,18.446354,-12.646754,-0.145039,-0.266329,0.820226,-13.030202,5.84379,-2.846172
26,585106056,-61.64021,0.4243698,84.89291,-0.40245628,-1.3750806,3.2016106,-59.697075,13.442753,-11.685444,-0.151747,-0.289247,0.873586,-14.025153,6.067836,-3.040929
27,585122723,-61.852436,0.531456,84.361565,-0.4365368,-1.4611386,3.180202,-60.032448,8.624096,-10.849238,-0.159023,-0.313599,0.926589,-15.025694,6.211571,-3.22175
28,585139390,-61.814438,0.623909,83.83833,-0.44979572,-1.5558724,3.0673995,-60.224243,1.6171331,-9.379508,-0.16652,-0.33953,0.977712,-16.029431,6.238523,-3.378075
29,585156057,-61.390934,0.7053528,83.54728,-0.44756794,-1.6565702,2.8936982,-60.133278,-7.0280027,-7.4597487,-0.173979,-0.36714,1.02594,-17.031652,6.12139,-3.502404
30,585172724,-61.354866,0.76039886,82.93175,-0.4544201,-1.709204,2.8140693,-59.450714,-12.205575,-6.510057,-0.181553,-0.395627,1.072841,-18.022497,5.917964,-3.610905
31,585189391,-61.743767,0.7857971,81.919624,-0.46794796,-1.7094597,2.8274255,-58.1765,-13.736443,-6.5701213,-0.189352,-0.424118,1.119965,-18.992105,5.689023,-3.720407
32,585206058,-62.072853,0.7907791,80.9482,-0.47944164,-1.6808146,2.8800673,-56.34398,-13.688237,-7.0863423,-0.197343,-0.452132,1.167966,-19.931171,5.460886,-3.838513
33,585222725,-62.524406,0.7702942,79.87537,-0.49378014,-1.6079329,3.0107565,-53.86345,-10.712945,-8.431483,-0.205573,-0.478931,1.218145,-20.828895,5.282337,-3.979038
34,585239392,-62.690693,0.7284317,78.882385,-0.48944187,-1.5244733,3.0961769,-50.98935,-8.416432,-9.576353,-0.21373,-0.504339,1.269748,-21.678717,5.142063,-4.138644
35,585256059,-62.49934,0.665123,78.02631,-0.4644394,-1.4315461,3.1306167,-47.706055,-6.973257,-10.474024,-0.221471,-0.528198,1.321925,-22.473818,5.025842,-4.313211
36,585272726,-62.28769,0.57341003,77.108345,-0.4327135,-1.2984239,3.208165,-43.79706,-3.4179325,-11.960238,-0.228683,-0.549838,1.375394,-23.203769,4.968876,-4.512548
37,585289393,-61.943104,0.45348358,76.18489,-0.38875008,-1.1313206,3.302413,-39.298477,1.5049393,-13.822469,-0.235162,-0.568693,1.430434,-23.858744,4.993958,-4.742922
38,585306060,-62.466496,0.33616638,75.96701,-0.3574257,-1.002397,3.3498006,-36.646645,3.6211073,-15.085085,-0.241119,-0.5854,1.486264,-24.469521,5.05431,-4.99434
39,585322727,-63.988026,0.22278595,76.50687,-0.34198093,-0.91404927,3.354875,-36.051414,2.9007254,-15.758913,-0.246819,-0.600634,1.542179,-25.070378,5.102655,-5.256989
40,585339394,-65.94528,0.09811401,77.519226,-0.32608318,-0.83552814,3.329378,-36.381916,0.8296428,-16.166235,-0.252254,-0.614559,1.597669,-25.676743,5.116482,-5.526426
41,585356061,-68.63043,-0.029937744,79.20669,-0.3166256,-0.78557885,3.258053,-38.327053,-3.6623344,-16.062729,-0.257531,-0.627652,1.65197,-26.315527,5.055443,-5.794138
42,585372728,-71.51683,-0.18206024,81.13976,-0.30150223,-0.713216,3.2018657,-40.405796,-7.3651123,-16.23836,-0.262556,-0.639539,1.705334,-26.988957,4.932691,-6.064777
43,585389395,-74.565,-0.36009216,83.312126,-0.27896118,-0.6153606,3.1618965,-42.550774,-10.142881,-16.726074,-0.267205,-0.649795,1.758032,-27.698137,4.763643,-6.343545
44,585406062,-78.29956,-0.5473175,86.12523,-0.26083755,-0.5333464,3.0947526,-46.120125,-14.51317,-16.925346,-0.271552,-0.658684,1.809611,-28.466806,4.521757,-6.625634
45,585422729,-82.61756,-0.748497,89.50551,-0.24426937,-0.45622054,3.0129974,-50.83114,-19.8057,-17.003687,-0.275623,-0.666288,1.859828,-29.313992,4.191662,-6.909029
46,585439396,-81.80048,-1.0287323,87.74636,-0.23376179,-0.39547825,2.9086065,-53.62619,-23.893978,-17.030941,-0.279519,-0.672879,1.908305,-30.207762,3.793429,-7.192878
47,585456063,-75.34647,-1.3927994,80.33083,-0.23138714,-0.35751823,2.7757869,-54.40749,-26.87735,-16.942759,-0.283375,-0.678838,1.954568,-31.114553,3.345473,-7.475257
48,585472730,-65.877304,-1.8137512,69.89756,-0.23310947,-0.32970804,2.6267219,-54.45995,-29.31362,-16.819319,-0.28726,-0.684333,1.998347,-32.022219,2.856913,-7.755579
49,585489397,-51.766476,-2.310028,54.81787,-0.24083424,-0.31712002,2.457687,-52.988644,-30.689047,-16.659487,-0.291274,-0.689618,2.039308,-32.905363,2.345429,-8.033237
50,585506064,-36.439598,-2.840622,38.492348,-0.2546358,-0.3239374,2.2611132,-52.156013,-32.907288,-16.263504,-0.295518,-0.695017,2.076993,-33.77463,1.796974,-8.304295
51,585522731,-20.034565,-3.404457,21.059109,-0.27457333,-0.3502316,2.0372508,-52.087494,-36.03247,-15.629702,-0.300094,-0.700854,2.110947,-34.642755,1.196433,-8.56479
52,585539398,0.6298561,-4.038864,-0.65429735,-0.30259132,-0.3992527,1.7860191,-51.028187,-38.68595,-14.849395,-0.305137,-0.707508,2.140714,-35.493225,0.551667,-8.81228
53,585556065,24.915592,-4.736458,-26.015898,-0.33903694,-0.47278374,1.5052565,-49.43952,-41.273186,-13.8749,-0.310788,-0.715388,2.165802,-36.317217,-0.136219,-9.043528
54,585572732,43.85174,-5.000885,-45.956303,-0.36265278,-0.49803638,1.2835339,-48.11746,-44.578705,-13.0621195,-0.316832,-0.723689,2.187194,-37.119175,-0.879197,-9.26123
55,585589399,57.037746,-4.787239,-60.06582,-0.37199497,-0.46945095,1.128724,-46.92022,-48.53042,-12.446049,-0.323032,-0.731513,2.206006,-37.901179,-1.688037,-9.468664
56,585606066,68.360016,-4.324089,-72.28256,-0.3776741,-0.42355138,0.9969994,-45.77887,-53.042328,-11.818487,-0.329327,-0.738572,2.222623,-38.66416,-2.572076,-9.665639
57,585622733,75.44232,-3.469696,-80.20306,-0.37400818,-0.34057403,0.91310453,-44.850136,-58.303352,-11.275682,-0.33556,-0.744248,2.237841,-39.411662,-3.543799,-9.853567
58,585639400,84.40932,-2.52005,-90.00728,-0.37421227,-0.26450536,0.8254339,-43.21665,-63.50064,-10.629599,-0.341797,-0.748656,2.251598,-40.131939,-4.602143,-10.030727
59,585656067,95.60878,-1.4868698,-102.04729,-0.37931728,-0.19859895,0.7308465,-40.847496,-68.6308,-9.858931,-0.348119,-0.751966,2.263779,-40.812731,-5.74599,-10.195043
60,585672734,103.93965,-0.09390259,-111.170616,-0.3778906,-0.10385138,0.67699254,-38.31396,-74.263626,-9.138617,-0.354417,-0.753697,2.275062,-41.451297,-6.983717,-10.347353
61,585689401,110.68533,1.6040497,-118.672104,-0.37278938,0.010457039,0.6536361,-35.40688,-80.23632,-8.426151,-0.36063,-0.753523,2.285956,-42.041412,-8.320989,-10.487789
62,585706068,116.872696,3.0967178,-125.54435,-0.3034668,0.06850371,0.5282464,-32.816822,-84.53492,-7.7146373,-0.365688,-0.752381,2.29476,-42.588359,-9.729904,-10.616366
63,585722735,121.923386,4.3773346,-131.19771,-0.16215992,0.06799117,0.2945767,-30.654526,-87.01907,-7.0272536,-0.368391,-0.751248,2.29967,-43.099268,-11.180222,-10.733487
64,585739402,126.16942,5.6584854,-135.98691,0.02098465,0.03864631,0.0090049505,-28.433197,-88.52391,-6.339347,-0.368041,-0.750604,2.29982,-43.573155,-12.655621,-10.839143
65,585756069,129.66241,6.8124466,-139.95035,0.26415634,-0.039494306,-0.36390555,-26.350132,-88.482445,-5.6577044,-0.363638,-0.751262,2.293755,-44.012324,-14.130328,-10.933438
66,585772736,130.43294,8.21772,-141.12393,0.5356636,-0.11260638,-0.7344949,-24.138153,-88.21459,-5.028374,-0.35471,-0.753139,2.281513,-44.414627,-15.600571,-11.017244
67,585789403,128.37428,9.899796,-139.39986,0.83450985,-0.17829576,-1.0982056,-21.750721,-87.760826,-4.4541125,-0.340802,-0.756111,2.26321,-44.777139,-17.063251,-11.091479
68,585806070,124.40437,11.56469,-135.67964,1.1934662,-0.2807367,-1.5305982,-19.490005,-85.94885,-3.9220104,-0.320911,-0.76079,2.2377,-45.101972,-18.495732,-11.156846
69,585822737,118.00633,13.297043,-129.44492,1.6072798,-0.40891865,-2.013311,-17.294636,-83.02555,-3.44555,-0.294123,-0.767605,2.204145,-45.390216,-19.879491,-11.214272
70,585839404,114.15306,14.842545,-126.19051,1.9098883,-0.4646878,-2.449348,-14.764649,-80.46365,-3.0339773,-0.262292,-0.77535,2.163323,-45.636293,-21.220552,-11.264838
71,585856071,113.31444,16.141945,-126.434456,2.0903559,-0.4439525,-2.8392558,-11.906566,-78.22832,-2.6924362,-0.227453,-0.782749,2.116002,-45.834736,-22.524357,-11.309712
72,585872738,112.685715,17.374115,-127.124,2.224722,-0.38579118,-3.2171917,-8.871087,-75.75563,-2.4306805,-0.190374,-0.789179,2.062382,-45.982587,-23.786951,-11.350223
73,585889405,113.61847,18.45617,-129.75912,2.2677164,-0.26383084,-3.558909,-5.562331,-73.39247,-2.2558632,-0.152579,-0.793576,2.003067,-46.075293,-25.010159,-11.387821
74,585906072,113.34793,19.462685,-131.26778,2.32549,-0.14664271,-3.941071,-2.2814684,-69.92973,-2.16542,-0.113821,-0.79602,1.937382,-46.113317,-26.175655,-11.423911
75,585922739,111.594604,20.401546,-131.3561,2.4039984,-0.037026048,-4.3673544,0.952579,-65.28088,-2.166142,-0.073754,-0.796637,1.864593,-46.097441,-27.26367,-11.460013
76,585939406,110.88571,21.157448,-132.83832,2.4106379,0.12241611,-4.7791786,4.3675127,-60.320877,-2.2697136,-0.033577,-0.794597,1.78494,-46.024649,-28.269018,-11.497842
77,585956073,110.60797,21.740154,-135.04303,2.366992,0.3179579,-5.1930184,7.8958387,-54.766937,-2.4808204,0.005873,-0.789298,1.69839,-45.893052,-29.1818,-11.539189
78,585972740,111.845474,22.405178,-136.10922,2.332693,0.45125005,-5.469,10.412464,-49.258423,-2.2399359,0.044751,-0.781777,1.60724,-45.719511,-30.002774,-11.576521
79,585989407,115.056595,23.152386,-136.23895,2.3004675,0.5203253,-5.5858445,11.826139,-43.941513,-1.4957315,0.083092,-0.773105,1.514143,-45.522409,-30.735133,-11.60145
80,586006074,119.338104,23.858753,-135.87677,2.2551546,0.56303895,-5.620175,12.61422,-38.301643,-0.517982,0.120678,-0.763721,1.420473,-45.312172,-31.373494,-11.610083
81,586022741,125.13457,24.583714,-134.63039,2.2087774,0.55392396,-5.5292315,12.454836,-32.53572,0.85168207,0.157491,-0.754489,1.328319,-45.104591,-31.915756,-11.595888
82,586039408,132.45255,25.140423,-134.2793,2.1010656,0.5658654,-5.377812,12.046169,-26.467005,2.281363,0.192509,-0.745058,1.238689,-44.903822,-32.356873,-11.557865
83,586056075,141.31377,25.509007,-134.917,1.9280796,0.60237753,-5.1687307,11.406324,-20.05188,3.753848,0.224644,-0.735018,1.152543,-44.713717,-32.691071,-11.495301
84,586072742,152.18097,25.82726,-135.36464,1.7282133,0.60530543,-4.829733,9.891971,-13.552494,5.576544,0.253448,-0.72493,1.072047,-44.548851,-32.916946,-11.402359
85,586089409,165.1364,26.048306,-136.03566,1.4868078,0.5899575,-4.3712106,7.628415,-6.930402,7.6853833,0.278228,-0.715097,0.999193,-44.421711,-33.032453,-11.274269
86,586106076,166.9411,26.070576,-136.53232,1.2331648,0.5807259,-4.0488987,5.9494205,0.4592222,9.532146,0.298781,-0.705418,0.931711,-44.322554,-33.024799,-11.1154
87,586122743,156.41014,25.89466,-136.72285,0.972538,0.5726876,-3.8748927,4.8839664,8.633089,11.109372,0.31499,-0.695873,0.867129,-44.241155,-32.880914,-10.930244
88,586139410,139.89436,25.53022,-137.11664,0.6791687,0.5643871,-3.7318897,3.864573,17.305,12.6402,0.326309,-0.686467,0.804931,-44.176745,-32.592497,-10.719574
89,586156077,113.65881,24.947918,-137.59828,0.36095142,0.5604185,-3.686987,3.2295566,26.637815,13.986494,0.332325,-0.677127,0.743481,-44.122919,-32.148533,-10.486466
90,586172744,85.53473,24.230461,-138.14168,0.008227348,0.5311121,-3.5691242,2.007063,36.194717,15.554094,0.332462,-0.668275,0.683996,-44.089468,-31.545288,-10.227231
91,586189411,55.926357,23.372383,-138.8153,-0.3824854,0.47539905,-3.3665872,0.1320324,45.944046,17.36829,0.326087,-0.660352,0.627886,-44.087267,-30.779554,-9.93776
92,586206078,17.585346,22.30302,-139.54668,-0.80030346,0.4112611,-3.2216196,-1.6298265,56.238617,19.111834,0.312749,-0.653498,0.574192,-44.114431,-29.842244,-9.619229
93,586222745,-27.977158,21.033848,-140.35477,-1.2484398,0.3318216,-3.0972447,-3.494071,66.98153,20.874065,0.291942,-0.647968,0.522571,-44.172666,-28.725885,-9.271328
94,586239412,-64.36238,19.83303,-141.27243,-1.670907,0.24971154,-2.9434695,-4.963935,74.812775,22.075703,0.264094,-0.643806,0.473513,-44.255398,-27.479005,-8.9034
95,586256079,-91.03677,18.714607,-142.29663,-2.0608754,0.16730821,-2.7734535,-5.8992586,79.428795,22.620173,0.229746,-0.641018,0.427289,-44.353719,-26.155192,-8.526397
96,586272746,-114.884346,17.55539,-143.4363,-2.4473057,0.07319221,-2.5861878,-6.6826515,82.33327,22.840288,0.188958,-0.639798,0.384186,-44.465097,-24.782971,-8.145726
97,586289413,-131.63612,16.426529,-144.70062,-2.8137136,-0.029226542,-2.3733382,-7.1440086,82.560104,22.556705,0.142063,-0.640285,0.34463,-44.584164,-23.406969,-7.769781
98,586306080,-152.84882,15.145737,-146.09254,-3.1911778,-0.14335404,-2.2001638,-7.379589,82.11835,22.021921,0.088877,-0.642674,0.307961,-44.707157,-22.03833,-7.402749
99,586322747,-179.18524,13.700912,-147.61995,-3.5813136,-0.27069253,-2.0689511,-7.403249,81.071945,21.248627,0.029188,-0.647186,0.273478,-44.830544,-20.687131,-7.048605
100,586339414,-201.24348,12.243675,-149.29285,-3.95359,-0.40692127,-1.9420118,-7.0035887,77.53483,19.94302,-0.036705,-0.653968,0.241111,-44.94727,-19.394884,-6.716221
101,586356081,-221.48178,10.734848,-151.11794,-4.3137536,-0.5532516,-1.8347077,-6.1859484,71.86891,18.144741,-0.108601,-0.663189,0.210533,-45.050369,-18.197069,-6.413809
102,586372748,-237.51965,9.455605,-152.76913,-4.5033846,-0.6906707,-1.7222021,-6.08022,67.01904,16.609423,-0.183657,-0.6747,0.18183,-45.151706,-17.080085,-6.136985
103,586389415,-247.9051,8.454552,-154.21986,-4.5009565,-0.8167684,-1.6002243,-6.747039,62.9682,15.355549,-0.258673,-0.688313,0.15516,-45.264157,-16.030615,-5.881059
104,586406082,-255.35739,7.574585,-155.63318,-4.3830805,-0.94148684,-1.4930334,-7.63729,58.499733,14.036251,-0.331724,-0.704004,0.130276,-45.391445,-15.055619,-5.647121
105,586422749,-258.77313,6.904396,-156.91945,-4.1011558,-1.0591927,-1.3944254,-9.046485,54.322067,12.840318,-0.400077,-0.721657,0.107036,-45.54222,-14.150251,-5.433116
106,586439416,-257.0264,6.3225327,-158.27812,-3.736291,-1.1804315,-1.3110981,-10.247127,48.142654,11.234323,-0.462349,-0.741331,0.085184,-45.713005,-13.347873,-5.245877
107,586456083,-250.06865,5.82518,-159.72314,-3.2896366,-1.3057559,-1.2468157,-11.181506,39.78723,9.174503,-0.517176,-0.763094,0.064404,-45.899363,-12.684752,-5.092969
108,586472750,-237.27847,5.557251,-161.07707,-2.674602,-1.42476,-1.1939821,-12.460813,30.961025,7.080194,-0.561753,-0.78684,0.044504,-46.107043,-12.168735,-4.974966
109,586489417,-218.19742,5.5015182,-162.38148,-1.9034638,-1.5393896,-1.1555569,-13.924396,21.129171,4.8285303,-0.593477,-0.812496,0.025245,-46.339116,-11.816582,-4.89449
110,586506084,-206.65396,5.352501,-163.47969,-1.3634892,-1.6249504,-1.0980778,-14.071361,13.152928,3.0882053,-0.616202,-0.839579,0.006944,-46.573639,-11.597367,-4.84302
111,586522751,-203.63327,5.1094284,-164.33012,-1.0772858,-1.6771144,-1.017829,-12.824531,7.4924498,1.9736859,-0.634157,-0.867531,-0.01002,-46.787381,-11.472493,-4.810125
112,586539418,-202.05287,4.915016,-165.03102,-0.8658991,-1.7082838,-0.9334619,-10.777293,2.4074016,1.0830382,-0.648589,-0.896002,-0.025578,-46.967003,-11.43237,-4.792074
113,586556085,-205.60667,4.696991,-165.5268,-0.8330879,-1.7104241,-0.8355204,-7.5179634,-1.240258,0.62224805,-0.662474,-0.924509,-0.039503,-47.092302,-11.453041,-4.781703
114,586572752,-205.85507,4.6826706,-165.85867,-0.7261114,-1.6944135,-0.7436955,-4.057109,-4.7146873,0.30408823,-0.674576,-0.952749,-0.051898,-47.15992,-11.531619,-4.776635
115,586589419,-202.09323,4.8942337,-166.02484,-0.52892876,-1.6600721,-0.6596861,-0.4269905,-8.121811,0.10890281,-0.683391,-0.980417,-0.062893,-47.167037,-11.666983,-4.77482
116,586606086,-201.66704,5.162895,-165.94856,-0.4570732,-1.5940866,-0.5654299,4.245225,-10.046367,0.37075174,-0.691009,-1.006985,-0.072317,-47.096283,-11.834422,-4.768641
117,586622753,-202.73122,5.544449,-165.62994,-0.45740032,-1.4976684,-0.4651295,9.766215,-10.718334,1.0416509,-0.698632,-1.031946,-0.080069,-46.933513,-12.013061,-4.75128
118,586639420,-204.78653,5.832184,-165.42139,-0.40320206,-1.4193647,-0.35671973,12.805611,-11.64259,0.85274136,-0.705352,-1.055602,-0.086014,-46.720086,-12.207104,-4.737068
119,586656087,-208.75897,5.990265,-165.33755,-0.31089973,-1.3611175,-0.2373923,13.153905,-12.712753,-0.26107168,-0.710534,-1.078287,-0.089971,-46.500854,-12.418983,-4.741419
120,586672754,-213.67772,6.1593475,-165.20274,-0.20638657,-1.2997141,-0.110685825,12.263824,-13.308744,-1.7182004,-0.713974,-1.099949,-0.091816,-46.296457,-12.640795,-4.770056
121,586689421,-219.74594,6.278023,-165.10616,-0.063676834,-1.2475572,0.025024056,9.221566,-13.739117,-3.8543277,-0.715035,-1.120742,-0.091399,-46.142764,-12.86978,-4.834295
122,586706088,-229.10957,6.4322205,-164.81148,-0.013324738,-1.1715182,0.1733154,6.1993628,-12.703764,-5.833341,-0.715257,-1.140267,-0.08851,-46.039441,-13.081509,-4.931517
123,586722755,-241.87543,6.6335907,-164.29662,-0.061969757,-1.0688335,0.33461875,3.2978268,-10.06587,-7.6003513,-0.71629,-1.158081,-0.082933,-45.984477,-13.249274,-5.05819
124,586739422,-257.30887,6.7850037,-163.75183,-0.12566757,-0.9662323,0.5091406,-1.3753881,-6.6779613,-9.859389,-0.718384,-1.174185,-0.074447,-46.0074,-13.360573,-5.222513
125,586756089,-276.00696,6.9044266,-163.12184,-0.2350254,-0.85616004,0.6982273,-7.3898945,-2.1989667,-12.432334,-0.722301,-1.188454,-0.06281,-46.130565,-13.397222,-5.429719
126,586772756,-278.08664,7.0011826,-162.28847,-0.29024696,-0.7411978,0.74288625,-11.910117,0.6103936,-14.500976,-0.727138,-1.200807,-0.050429,-46.329067,-13.387049,-5.671402
127,586789423,-261.64053,7.0597687,-161.26039,-0.2752552,-0.6246793,0.6275977,-14.925338,1.427438,-16.074629,-0.731726,-1.211218,-0.039969,-46.577823,-13.363258,-5.939312
128,586806090,-236.55957,7.0847855,-160.05246,-0.26103973,-0.50002116,0.42831904,-17.517101,1.8372676,-17.421228,-0.736077,-1.219552,-0.03283,-46.869775,-13.332637,-6.229666
129,586822757,-197.21957,7.0713654,-158.63545,-0.21913433,-0.3688241,0.09944439,-18.974766,1.0596607,-18.335772,-0.739729,-1.225699,-0.031173,-47.186021,-13.314976,-6.535262
130,586839424,-155.03532,6.987808,-157.11903,-0.18911743,-0.23584071,-0.2670387,-21.473995,0.5557654,-19.472189,-0.742881,-1.22963,-0.035624,-47.543921,-13.305713,-6.859798
131,586856091,-110.66307,6.828682,-155.50244,-0.17802525,-0.10077833,-0.6670617,-25.136562,0.4611448,-20.856518,-0.745848,-1.23131,-0.046742,-47.962864,-13.298027,-7.207407
132,586872758,-53.38751,6.6008835,-153.70473,-0.14184952,0.037060678,-1.1878531,-28.285194,-0.63444924,-21.988737,-0.748212,-1.230692,-0.06654,-48.434284,-13.308601,-7.573886
133,586889425,14.574177,6.2929,-151.7466,-0.08987522,0.17650723,-1.8123443,-31.394798,-2.4245548,-23.006378,-0.74971,-1.22775,-0.096746,-48.957531,-13.34901,-7.957326
134,586906092,61.982876,6.184593,-150.07605,-0.06911087,0.27333662,-2.2336419,-33.939007,-3.798192,-23.753313,-0.750862,-1.223194,-0.133973,-49.523181,-13.412313,-8.353215
135,586922759,87.33653,6.2999115,-148.72823,-0.07765579,0.32253936,-2.4347236,-35.669205,-4.8558908,-24.15273,-0.752156,-1.217818,-0.174552,-50.117668,-13.493245,-8.755761
136,586939426,104.09035,6.4948196,-147.50578,-0.09926033,0.34360573,-2.5510588,-37.160156,-5.9401855,-24.369078,-0.75381,-1.212091,-0.21707,-50.737004,-13.592248,-9.161912
137,586956093,103.900635,6.846222,-146.53517,-0.14479065,0.32321557,-2.4999416,-38.203304,-6.8176823,-24.337967,-0.756223,-1.206704,-0.258736,-51.373726,-13.705876,-9.567545
138,586972760,107.825134,7.1878204,-145.53423,-0.17715168,0.28659132,-2.4841824,-38.67607,-8.5043745,-24.013817,-0.759176,-1.201927,-0.300139,-52.018327,-13.847616,-9.967775
139,586989427,116.98091,7.507019,-144.49225,-0.19407558,0.23397338,-2.514734,-38.596825,-11.072514,-23.397846,-0.762411,-1.198027,-0.342051,-52.661607,-14.032158,-10.357739
140,587006094,113.6212,7.95343,-143.66417,-0.22265434,0.14018631,-2.418347,-37.819317,-13.847998,-22.446686,-0.766122,-1.195691,-0.382357,-53.291929,-14.262958,-10.73185
141,587022761,102.08421,8.492111,-142.99672,-0.25447083,0.009244025,-2.236567,-36.294964,-17.077135,-21.140814,-0.770363,-1.195537,-0.419633,-53.896845,-14.547577,-11.084197
142,587039428,98.22577,8.9268875,-142.16008,-0.25644207,-0.02747193,-2.116106,-34.08753,-18.76974,-20.468517,-0.774637,-1.195995,-0.454901,-54.46497,-14.860406,-11.425339
143,587056095,101.22136,9.2591095,-141.16092,-0.22785854,0.038794458,-2.0476263,-31.135666,-18.67551,-20.50826,-0.778435,-1.195348,-0.489028,-54.983898,-15.171665,-11.767143
144,587072762,106.32323,9.55925,-140.12654,-0.17796612,0.1477218,-1.9876451,-27.337067,-17.924353,-20.770002,-0.781401,-1.192886,-0.522155,-55.439516,-15.470404,-12.11331
145,587089429,117.22331,9.778633,-138.97878,-0.09764099,0.3351631,-1.9694602,-22.661873,-15.942421,-21.524591,-0.783028,-1.1873,-0.554979,-55.817214,-15.736111,-12.472053
146,587106096,119.92026,10.069824,-137.98512,-0.012091637,0.51704586,-1.8606427,-16.99754,-13.740209,-22.17885,-0.78323,-1.178683,-0.58599,-56.100506,-15.965114,-12.841701
147,587122763,113.70772,10.440598,-137.16449,0.07872963,0.6886326,-1.6539154,-10.2839155,-11.400135,-22.692236,-0.781918,-1.167206,-0.613555,-56.271905,-16.155116,-13.219905
148,587139430,108.518585,10.7743225,-136.322,0.19584465,0.9232638,-1.4412887,-2.51373,-7.9075174,-23.596682,-0.778654,-1.151818,-0.637576,-56.313801,-16.286908,-13.613183
149,587156097,101.21155,11.104012,-135.51988,0.3347845,1.2038333,-1.1924381,6.3810368,-3.462204,-24.769754,-0.773074,-1.131754,-0.65745,-56.20745,-16.344611,-14.026012
150,587172764,96.209335,11.351418,-134.69482,0.38932228,1.4159255,-1.0216577,12.053183,-0.24989736,-24.865656,-0.766585,-1.108155,-0.674478,-56.006564,-16.348776,-14.44044
151,587189431,94.93158,11.494934,-133.82196,0.35187817,1.5583785,-0.9489126,14.098846,1.6715128,-23.823503,-0.76072,-1.082182,-0.690293,-55.771583,-16.320917,-14.837498
152,587206098,92.99222,11.593857,-132.97807,0.2699709,1.6745797,-0.89776516,14.639739,3.222835,-22.199839,-0.75622,-1.054272,-0.705256,-55.527587,-16.267203,-15.207495
153,587222765,91.84659,11.621521,-132.1419,0.11414051,1.735425,-0.90242505,12.446628,3.8430352,-19.633778,-0.754318,-1.025348,-0.720296,-55.320143,-16.203152,-15.534725
154,587239432,91.322174,11.592796,-131.30713,-0.047781944,1.8270718,-0.9182699,10.081836,5.076123,-17.042198,-0.755114,-0.994897,-0.7356,-55.152112,-16.11855,-15.818762
155,587256099,91.065186,11.509659,-130.48134,-0.21262646,1.953916,-0.939677,7.685097,7.01689,-14.467098,-0.758658,-0.962332,-0.751261,-55.024027,-16.001602,-16.05988
156,587272766,92.46504,11.339058,-129.6495,-0.44042778,2.0483806,-1.0195067,2.879716,8.422474,-11.13523,-0.765998,-0.928192,-0.768253,-54.976032,-15.861227,-16.245467
157,587289433,95.481445,11.0816345,-128.81172,-0.7178707,2.1288638,-1.14904,-3.83646,9.626656,-7.231749,-0.777963,-0.892711,-0.787404,-55.039973,-15.700783,-16.365996
158,587306100,96.39017,10.931,-128.1185,-0.8800955,2.169894,-1.226116,-7.4355593,10.552936,-4.7011724,-0.792631,-0.856546,-0.807839,-55.163899,-15.524901,-16.444349
159,587322767,95.158646,10.898277,-127.58152,-0.9192438,2.160574,-1.2498279,-7.776908,11.039252,-3.6341093,-0.807952,-0.820536,-0.828669,-55.293514,-15.340913,-16.504917
160,587339434,93.61075,10.889465,-127.12975,-0.90503025,2.1251214,-1.2643545,-6.950511,11.345131,-3.2320762,-0.823036,-0.785117,-0.849742,-55.409356,-15.151827,-16.558785
161,587356101,90.868195,10.955612,-126.80485,-0.79325104,2.0535085,-1.2446456,-3.6568623,11.398735,-4.018974,-0.836257,-0.750892,-0.870486,-55.470304,-14.961848,-16.625768
162,587372768,89.42299,10.973068,-126.519005,-0.69595814,1.9425491,-1.2644138,-1.4797955,10.923909,-4.6613226,-0.847856,-0.718516,-0.89156,-55.494967,-14.779783,-16.703457
163,587389435,89.54118,10.932343,-126.267555,-0.6186867,1.7924939,-1.3293214,-0.6273184,9.916652,-5.1006684,-0.858167,-0.688641,-0.913715,-55.505422,-14.614505,-16.788468
164,587406102,89.30682,10.938316,-126.13114,-0.46698952,1.5947645,-1.382385,1.7901182,8.430297,-6.462423,-0.86595,-0.662062,-0.936755,-55.475587,-14.474,-16.896175
165,587422769,89.33359,10.963989,-126.092674,-0.26372337,1.3472645,-1.4405107,5.0049767,6.3872204,-8.47883,-0.870345,-0.639608,-0.960764,-55.392171,-14.367546,-17.037489
166,587439436,89.1781,10.922417,-125.90803,-0.15716362,1.198362,-1.4440024,7.801981,5.456505,-9.11851,-0.872964,-0.619635,-0.984831,-55.262138,-14.276604,-17.189464
167,587456103,88.619064,10.818275,-125.564735,-0.14934444,1.1597362,-1.3806198,10.419919,5.7804675,-8.332914,-0.875453,-0.600306,-1.007841,-55.088473,-14.180263,-17.328346
168,587472770,88.34419,10.674377,-125.167885,-0.18480015,1.1584924,-1.290597,12.918543,6.4972205,-6.9133263,-0.878533,-0.580998,-1.029351,-54.873164,-14.071976,-17.443568
169,587489437,88.20184,10.470062,-124.65183,-0.3016634,1.2353452,-1.1551125,15.063715,8.0642185,-4.330906,-0.883561,-0.560409,-1.048603,-54.622102,-13.937572,-17.51575
170,587506104,88.07843,10.281731,-124.1802,-0.38848686,1.3007879,-0.9952843,18.306633,9.509323,-2.0720458,-0.890036,-0.538729,-1.065191,-54.316991,-13.779083,-17.550284
171,587522771,88.05859,10.112091,-123.761284,-0.4400692,1.3489008,-0.81328344,22.690887,10.757956,-0.20803678,-0.89737,-0.516247,-1.078746,-53.93881,-13.599784,-17.553751
172,587539438,88.077774,9.905975,-123.256325,-0.544569,1.459887,-0.5811434,27.32425,12.691637,2.4567862,-0.906446,-0.491916,-1.088432,-53.483406,-13.388257,-17.512805
173,587556105,88.13872,9.679749,-122.69863,-0.6785593,1.6153706,-0.3022865,32.536377,15.106698,5.6118784,-0.917755,-0.464993,-1.09347,-52.941133,-13.136479,-17.419274
174,587572772,88.365524,9.441917,-122.424355,-0.7299166,1.7054644,-0.14297307,35.889263,16.451622,7.8920865,-0.92992,-0.436569,-1.095853,-52.342979,-12.862285,-17.287739
175,587589439,88.75827,9.187347,-122.448524,-0.6982527,1.73062,-0.114516854,37.071507,16.69459,9.312165,-0.941558,-0.407725,-1.097762,-51.725121,-12.584042,-17.132536
176,587606106,89.26892,8.923454,-122.63415,-0.62066746,1.7314047,-0.13958919,37.48136,16.438408,10.310679,-0.951902,-0.378868,-1.100088,-51.100432,-12.310069,-16.960691
177,587622773,89.927536,8.6512375,-123.07165,-0.4682045,1.6805555,-0.26351547,36.415867,15.2820425,10.5436535,-0.959705,-0.350859,-1.10448,-50.493501,-12.055368,-16.784963
178,587639440,90.69081,8.351379,-123.52955,-0.32880116,1.6632637,-0.38199997,35.06853,14.351518,11.117872,-0.965185,-0.323138,-1.110847,-49.909025,-11.816176,-16.599665
179,587656107,91.55789,8.024315,-123.99781,-0.20539474,1.6841586,-0.48896945,33.53951,13.7017765,12.074876,-0.968608,-0.295069,-1.118996,-49.350033,-11.587813,-16.398417
180,587672774,92.576645,7.680252,-124.67124,-0.028999329,1.678121,-0.67610717,30.607609,12.427974,12.5695095,-0.969091,-0.2671,-1.130264,-48.839906,-11.38068,-16.188925
181,587689441,93.74069,7.3151245,-125.50335,0.18245602,1.6637505,-0.92219114,26.506977,10.765973,12.833363,-0.96605,-0.239371,-1.145634,-48.398123,-11.201247,-15.975036
182,587706108,94.66254,7.0029755,-126.11761,0.29160213,1.6503414,-1.0714312,23.723087,9.59422,12.812517,-0.96119,-0.211865,-1.163491,-48.002738,-11.041343,-15.761494
183,587722775,95.3121,6.752014,-126.50301,0.2933054,1.6313896,-1.1211469,22.307096,8.886158,12.398146,-0.956302,-0.184675,-1.182177,-47.630953,-10.89324,-15.554858
184,587739442,95.86981,6.5244675,-126.807976,0.24046707,1.6154796,-1.1316979,21.211494,8.383348,11.768603,-0.952294,-0.15775,-1.201039,-47.277428,-10.753518,-15.358715
185,587756109,96.22803,6.341751,-126.93363,0.0962162,1.6032505,-1.0630567,21.06617,8.301506,10.875693,-0.95069,-0.131029,-1.218757,-46.926325,-10.61516,-15.177453
186,587772776,96.62581,6.1641693,-127.1515,-0.041306496,1.5729501,-1.030211,20.093357,7.8925924,9.520218,-0.951378,-0.104813,-1.235927,-46.591436,-10.483617,-15.018783
187,587789443,97.07565,5.989662,-127.474266,-0.16841221,1.5248151,-1.0389891,18.177595,7.1288657,7.699246,-0.954185,-0.079399,-1.253243,-46.288476,-10.364803,-14.890462
188,587806110,97.36276,5.8573303,-127.68116,-0.36654472,1.4697301,-0.9979825,16.730455,6.5646534,5.455649,-0.960294,-0.054903,-1.269876,-46.009635,-10.255392,-14.799535
189,587822777,97.5343,5.759903,-127.828316,-0.6161289,1.4028736,-0.93154573,15.361272,6.041116,2.7340298,-0.970563,-0.031522,-1.285402,-45.753614,-10.154707,-14.753968
190,587839444,97.91263,5.67955,-128.13298,-0.7538185,1.3613342,-0.8938818,14.254995,5.0443134,1.0140597,-0.983127,-0.008833,-1.3003,-45.516031,-10.070635,-14.737067
191,587856111,98.49809,5.6211777,-128.58809,-0.7743311,1.3492461,-0.87906575,13.598818,3.5850968,0.4283477,-0.996033,0.013654,-1.314951,-45.289384,-10.010883,-14.729928
192,587872778,99.166,5.5898514,-129.1276,-0.74243927,1.3453488,-0.8777876,13.037502,1.7952235,0.22760642,-1.008407,0.036076,-1.329581,-45.072092,-9.980963,-14.726135
193,587889445,99.99635,5.5835724,-129.80426,-0.6150398,1.3600019,-0.9020462,12.675192,-0.4571421,0.8231908,-1.018658,0.058743,-1.344615,-44.860839,-9.988582,-14.712415
194,587906112,100.74182,5.624687,-130.43285,-0.5092964,1.3745457,-0.89647293,12.758738,-2.7308078,1.3583232,-1.027146,0.081652,-1.359556,-44.648193,-10.034095,-14.689776
195,587922779,101.38757,5.7160034,-131.00548,-0.43062973,1.387189,-0.8593252,13.281827,-5.018063,1.7751716,-1.034323,0.104772,-1.373878,-44.426829,-10.117729,-14.66019
196,587939446,102.12303,5.8464127,-131.65834,-0.28323555,1.4162536,-0.8277507,14.232932,-7.654908,2.8627748,-1.039044,0.128376,-1.387674,-44.189613,-10.245311,-14.612477
197,587956113,102.89349,6.022522,-132.35135,-0.091257095,1.457841,-0.7895868,15.6813545,-10.553736,4.44776,-1.040565,0.152673,-1.400834,-43.928257,-10.421207,-14.538348
198,587972780,103.59396,6.178665,-132.99577,0.0221138,1.477347,-0.76208806,16.081577,-12.478797,5.2041407,-1.040196,0.177295,-1.413535,-43.660231,-10.629187,-14.451612
199,587989447,104.23494,6.308861,-133.59752,0.057071686,1.4740472,-0.75044215,15.310516,-13.346899,5.115401,-1.039245,0.201862,-1.426042,-43.405056,-10.851635,-14.366355
200,588006114,104.826935,6.4503403,-134.17003,0.056118965,1.4619104,-0.73760784,14.166767,-13.681484,4.703618,-1.03831,0.226227,-1.438335,-43.168943,-11.07966,-14.287961
201,588022781,105.34503,6.585396,-134.69133,-0.011955261,1.4320666,-0.7290745,12.231638,-13.138037,3.6328835,-1.038509,0.250095,-1.450486,-42.965082,-11.298627,-14.227413
202,588039448,105.89592,6.7517776,-135.2472,-0.05001545,1.4092789,-0.7241651,10.414177,-12.522859,2.8853064,-1.039343,0.273583,-1.462555,-42.791512,-11.507341,-14.179325
203,588056115,106.4798,6.9534683,-135.8379,-0.053920746,1.3949252,-0.7213949,8.787693,-11.865572,2.516201,-1.040242,0.296832,-1.474578,-42.64505,-11.705101,-14.137388
204,588072782,107.021835,7.1567154,-136.4013,-0.09865475,1.3691458,-0.725916,6.539053,-10.454466,1.7537638,-1.041886,0.319651,-1.486677,-42.536066,-11.879342,-14.108159
205,588089449,107.54321,7.370117,-136.95422,-0.16373825,1.337226,-0.7374743,3.8623133,-8.443688,0.81036055,-1.044615,0.341938,-1.498968,-42.471694,-12.02007,-14.094653
206,588106116,108.02539,7.522743,-137.49394,-0.19216156,1.3078932,-0.75079846,2.0733833,-6.769971,0.49817812,-1.047818,0.363736,-1.511481,-42.437138,-12.132903,-14.08635
207,588122783,108.45758,7.602913,-138.0123,-0.18723488,1.2795477,-0.76657903,1.1934848,-5.419208,0.8078071,-1.050939,0.385062,-1.524257,-42.417247,-12.223223,-14.072887
208,588139450,108.86215,7.6495285,-138.52118,-0.16201687,1.2516068,-0.78743625,0.72834253,-4.0349317,1.5037299,-1.053639,0.405922,-1.537381,-42.405108,-12.290472,-14.047825
209,588156117,109.23097,7.6404266,-139.0171,-0.10279274,1.2257905,-0.8125421,1.0175323,-2.8424683,2.794117,-1.055352,0.426352,-1.550923,-42.388149,-12.337846,-14.001256
210,588172784,109.552475,7.608139,-139.48294,-0.06232834,1.1918837,-0.84608924,1.0942574,-1.0886998,4.0158486,-1.056391,0.446217,-1.565024,-42.369911,-12.355991,-13.934325
211,588189451,109.826584,7.553787,-139.91788,-0.042049408,1.1495785,-0.8888047,0.9148922,1.276104,5.1528435,-1.057092,0.465377,-1.579837,-42.354663,-12.334723,-13.848444
212,588206118,110.05063,7.44014,-140.32623,-0.00411129,1.1052313,-0.93828154,1.2530494,3.6957145,6.717563,-1.057161,0.483798,-1.595475,-42.333779,-12.273128,-13.736485
213,588222785,110.22069,7.2720947,-140.70297,0.0403862,1.0565323,-0.9958248,1.9076853,6.3423023,8.577,-1.056488,0.501407,-1.612072,-42.301984,-12.167423,-13.593535
214,588239452,110.529755,7.1627655,-141.1808,0.056352615,1.0092313,-1.014049,2.2162719,7.7672462,9.720363,-1.055549,0.518228,-1.628973,-42.265046,-12.037969,-13.431529
215,588256119,110.994705,7.116188,-141.7717,0.044403076,0.96437347,-0.9881792,2.2111263,7.7657666,10.110879,-1.054809,0.534301,-1.645443,-42.228194,-11.90854,-13.263014
216,588272786,111.52046,7.080078,-142.40845,0.01333046,0.91747236,-0.9416499,2.0731592,7.1424465,10.138292,-1.054587,0.549592,-1.661137,-42.193641,-11.789499,-13.094042
217,588289453,112.16087,7.083351,-143.12793,-0.045972824,0.87017,-0.8609066,1.6441808,5.4645514,9.531861,-1.055353,0.564095,-1.675485,-42.166238,-11.698423,-12.935178
218,588306120,112.80243,7.0480804,-143.85324,-0.10320473,0.82063246,-0.7731135,1.5155544,3.4335415,9.018852,-1.057073,0.577772,-1.68837,-42.140979,-11.641197,-12.784864
219,588322787,113.43823,6.9682465,-144.57921,-0.15794563,0.7683954,-0.67969525,1.7102036,1.0912714,8.627437,-1.059705,0.590579,-1.699698,-42.112476,-11.623009,-12.641073
220,588339454,114.172516,6.9066315,-145.37666,-0.233387,0.7157544,-0.5548997,1.802805,-2.3088007,7.7568564,-1.063595,0.602508,-1.708946,-42.082429,-11.661489,-12.511792
221,588356121,114.98265,6.8457184,-146.23004,-0.32359314,0.6622411,-0.40389085,1.9213934,-6.642626,6.553058,-1.068988,0.613545,-1.715678,-42.050406,-11.772199,-12.402574
222,588372788,115.7245,6.8603287,-146.96301,-0.37339306,0.61748564,-0.31848848,2.175377,-9.579383,5.721988,-1.075211,0.623836,-1.720986,-42.01415,-11.931855,-12.307208
223,588389455,116.39925,6.9655,-147.5682,-0.38021755,0.58283544,-0.30392492,2.5306897,-11.016059,5.2521906,-1.081548,0.63355,-1.726051,-41.971972,-12.115456,-12.219671
224,588406122,117.061874,7.114006,-148.11931,-0.366251,0.55349183,-0.3198223,3.02674,-11.997653,4.9010186,-1.087652,0.642775,-1.731381,-41.921526,-12.315417,-12.137987
225,588422789,117.67717,7.32975,-148.56943,-0.31655407,0.53241146,-0.39102304,3.6847596,-11.912927,4.841859,-1.092928,0.651649,-1.737898,-41.860113,-12.513966,-12.057289
226,588439456,118.357895,7.584976,-149.03957,-0.26966286,0.5145627,-0.45716274,4.3333106,-12.3347,4.497283,-1.097422,0.660225,-1.745517,-41.787891,-12.719544,-11.982334
227,588456123,119.11104,7.8778763,-149.53581,-0.22712994,0.4998285,-0.51510143,4.9763527,-13.364887,3.8380966,-1.101207,0.668555,-1.754102,-41.704952,-12.942292,-11.918366
228,588472790,119.85181,8.244911,-149.95717,-0.15654087,0.49350962,-0.6166868,5.71739,-13.698923,3.295669,-1.103816,0.67678,-1.76438,-41.609662,-13.170607,-11.863438
229,588489457,120.60544,8.682106,-150.32846,-0.065574646,0.49480835,-0.7496604,6.5221834,-13.674085,2.7436228,-1.104909,0.685027,-1.776874,-41.500959,-13.398508,-11.817711
230,588506124,120.56212,8.990494,-150.71722,-0.00475502,0.49067238,-0.8465221,7.0578375,-13.345842,2.3691645,-1.104988,0.693205,-1.790983,-41.383328,-13.620939,-11.778225
231,588522791,119.629395,9.157448,-151.11644,0.02536869,0.48078582,-0.90774393,7.2997994,-12.550713,2.2392435,-1.104565,0.701218,-1.806112,-41.261665,-13.830118,-11.740904
232,588539458,118.204056,9.2762375,-151.50993,0.043911934,0.47106263,-0.9575932,7.3798976,-11.483185,2.1773825,-1.103833,0.709069,-1.822072,-41.138667,-14.021504,-11.704614
233,588556125,116.04797,9.293259,-151.91217,0.03799057,0.4582303,-0.9793229,7.202667,-10.101128,2.250341,-1.1032,0.716706,-1.838394,-41.018623,-14.189856,-11.667108
234,588572792,113.60437,9.33519,-152.25642,0.045947075,0.45161256,-1.0262377,6.9896793,-8.032144,2.4592824,-1.102434,0.724233,-1.855498,-40.902128,-14.323725,-11.62612
235,588589459,110.89014,9.410118,-152.53915,0.06971836,0.45194808,-1.1011083,6.745173,-5.2609544,2.7959404,-1.101272,0.731765,-1.87385,-40.789708,-14.411408,-11.579521
236,588606126,107.465195,9.4084015,-152.80447,0.0792799,0.45191994,-1.1634212,6.270664,-1.9103377,3.323617,-1.099951,0.739297,-1.89324,-40.685197,-14.443247,-11.524127
237,588622793,103.40732,9.356476,-153.03685,0.08281517,0.45366302,-1.2247803,5.6059513,2.1222665,4.047511,-1.098571,0.746858,-1.913653,-40.591764,-14.407876,-11.456668
238,588639460,103.30916,9.30072,-153.28502,0.08017826,0.44882765,-1.2693908,5.4916935,5.197856,4.4670563,-1.097235,0.754338,-1.93481,-40.500236,-14.321245,-11.382217
239,588656127,107.565,9.230591,-153.55737,0.06768417,0.4357516,-1.2909982,5.9713006,7.172454,4.551083,-1.096107,0.761601,-1.956327,-40.400714,-14.201704,-11.306366
240,588672794,114.058365,9.14061,-153.81894,0.05087948,0.4198831,-1.3050456,6.716887,8.9146805,4.5468283,-1.095259,0.768599,-1.978078,-40.288766,-14.053126,-11.230586
241,588689461,124.08917,9.038467,-154.0839,0.028568268,0.398589,-1.305655,7.9292216,9.976423,4.321675,-1.094783,0.775242,-1.999839,-40.156612,-13.886852,-11.158558
242,588706128,134.88628,8.867714,-154.33382,-0.0070590973,0.37496254,-1.2915835,9.119839,11.301668,4.1869597,-1.094901,0.781491,-2.021365,-40.004615,-13.698491,-11.088775
243,588722795,146.32979,8.624863,-154.56546,-0.05610466,0.34927353,-1.2633982,10.262914,12.969235,4.167067,-1.095836,0.787312,-2.042422,-39.833566,-13.482337,-11.019324
244,588739462,160.97357,8.342323,-154.80025,-0.116187096,0.31752858,-1.2159784,11.777735,14.122046,3.9941673,-1.097772,0.792604,-2.062688,-39.63727,-13.24697,-10.952755
245,588756129,178.29393,8.005928,-155.03392,-0.18937111,0.2802175,-1.1485012,13.564834,14.961231,3.7359018,-1.100928,0.797274,-2.08183,-39.411189,-12.997616,-10.89049
246,588772796,179.29756,7.7266235,-155.30191,-0.2350769,0.2663084,-1.1003397,14.847332,15.58548,3.6155195,-1.104846,0.801712,-2.100169,-39.163733,-12.737858,-10.830231
247,588789463,162.44217,7.5167007,-155.61131,-0.24964333,0.2779537,-1.0736659,15.605055,15.882676,3.6205096,-1.109007,0.806345,-2.118063,-38.903649,-12.473147,-10.769889
248,588806130,136.34442,7.3120728,-155.94325,-0.2540617,0.30166224,-1.048526,16.141758,15.930402,3.6906009,-1.113241,0.811373,-2.135538,-38.63462,-12.20764,-10.708379
249,588822797,95.655396,7.143669,-156.30952,-0.237113,0.34542778,-1.0351198,16.254528,15.709655,3.8782382,-1.117193,0.81713,-2.15279,-38.363711,-11.945812,-10.643742
250,588839464,52.02653,6.953041,-156.69522,-0.22203922,0.39134195,-1.0086408,16.506155,14.937781,3.9872055,-1.120894,0.823652,-2.169601,-38.088608,-11.696849,-10.577289
251,588856131,5.9545097,6.7343826,-157.10056,-0.21055698,0.43843177,-0.96685076,16.923185,13.591473,4.009723,-1.124403,0.830959,-2.185715,-37.806555,-11.470324,-10.51046
252,588872798,-53.183365,6.543541,-157.54472,-0.18126965,0.5026902,-0.9305792,17.050098,11.771124,4.086497,-1.127424,0.839337,-2.201225,-37.522387,-11.274139,-10.442352
253,588889465,-123.1723,6.367981,-158.02614,-0.13895798,0.5805483,-0.8941984,17.003815,9.393547,4.1749005,-1.12974,0.849013,-2.216128,-37.23899,-11.11758,-10.37277
254,588906132,-172.40742,6.2090073,-158.45772,-0.1134367,0.6335529,-0.85358477,16.538391,7.6863923,4.2174115,-1.131631,0.859572,-2.230354,-36.96335,-10.989473,-10.30248
255,588922799,-199.33171,6.07502,-158.83498,-0.10457611,0.6601554,-0.81084967,15.568541,6.755692,4.22294,-1.133374,0.870575,-2.243868,-36.703874,-10.876878,-10.232098
256,588939466,-217.59085,5.95784,-159.19965,-0.10121441,0.67632437,-0.76401067,14.283512,5.942537,4.1880746,-1.135061,0.881847,-2.256602,-36.465815,-10.777836,-10.162297
257,588956133,-218.7269,5.8611984,-159.52893,-0.11071873,0.6718606,-0.71265054,12.590479,5.5803967,4.0994377,-1.136906,0.893045,-2.26848,-36.255974,-10.684829,-10.093973
258,588972800,-224.07016,5.7989426,-159.88048,-0.110105515,0.67339575,-0.6640562,10.504952,4.955138,4.025685,-1.138741,0.904268,-2.279548,-36.080891,-10.602243,-10.026878
259,588989467,-234.75156,5.772728,-160.25873,-0.09807205,0.682266,-0.6182797,8.024793,4.0033417,3.9657063,-1.140376,0.915639,-2.289853,-35.947144,-10.535521,-9.960783
260,589006134,-232.78305,5.7807693,-160.6158,-0.0921669,0.67634845,-0.5715569,5.0475426,3.3662963,3.8733463,-1.141912,0.926911,-2.299379,-35.863018,-10.479416,-9.896227
261,589022801,-222.55711,5.8278503,-160.96445,-0.087340355,0.6611346,-0.5255567,1.5615215,2.8886971,3.7618756,-1.143368,0.93793,-2.308138,-35.836993,-10.431271,-9.833529
262,589039468,-219.991,5.8160553,-161.31992,-0.08000088,0.64384687,-0.49084818,-0.78558445,2.6429539,3.675982,-1.144701,0.948661,-2.316319,-35.850086,-10.387222,-9.772263
263,589056135,-224.2304,5.737587,-161.67784,-0.071764946,0.62221134,-0.4684173,-1.8596992,2.72506,3.6148238,-1.145897,0.959031,-2.324126,-35.881081,-10.341804,-9.712016
264,589072802,-230.52951,5.6438065,-162.03972,-0.06077385,0.5962578,-0.45470774,-2.4590578,3.0022902,3.5659647,-1.14691,0.968969,-2.331704,-35.922065,-10.291766,-9.652583
265,589089469,-242.5832,5.5082855,-162.40804,-0.04651928,0.566973,-0.45295942,-2.1273308,3.5289152,3.5407977,-1.147685,0.978419,-2.339253,-35.957521,-10.232951,-9.59357
266,589106136,-246.28482,5.389679,-162.76218,-0.035425186,0.5240842,-0.45632815,-1.8591623,4.427532,3.4993267,-1.148275,0.987154,-2.346858,-35.988507,-10.159159,-9.535248
267,589122803,-240.91803,5.293022,-163.10168,-0.027420044,0.46700034,-0.46500432,-1.7145987,5.708868,3.440403,-1.148732,0.994937,-2.354608,-36.017084,-10.064011,-9.477908
268,589139470,-236.463,5.166527,-163.43845,-0.01895523,0.4012268,-0.4855659,-0.79548264,7.3767996,3.3938122,-1.149048,1.001624,-2.362701,-36.030342,-9.941064,-9.421344
269,589156137,-229.74817,5.022995,-163.76772,-0.0114068985,0.3241547,-0.51702607,0.6981478,9.474755,3.3512607,-1.149238,1.007027,-2.371318,-36.018706,-9.783151,-9.36549
270,589172804,-225.40935,4.912422,-164.19188,-0.007581711,0.2636421,-0.5353466,1.3112593,10.521462,3.3160744,-1.149364,1.011421,-2.38024,-35.996852,-9.607793,-9.310222
271,589189471,-224.88365,4.832939,-164.72203,-0.007557869,0.22258681,-0.539346,1.0293751,10.390801,3.2921739,-1.14949,1.015131,-2.389229,-35.979696,-9.434613,-9.255352
272,589206138,-223.65573,4.7694473,-165.30656,-0.011072159,0.18565604,-0.5400938,0.41939354,9.827188,3.2725177,-1.149675,1.018225,-2.398231,-35.972706,-9.270827,-9.20081
273,589222805,-223.23596,4.73394,-165.97507,-0.018993378,0.16062504,-0.53126144,-0.8862705,8.421466,3.2591686,-1.149992,1.020902,-2.407085,-35.987477,-9.130469,-9.146491
274,589239472,-223.3294,4.684601,-166.6716,-0.028782845,0.1323092,-0.5291227,-1.7983656,7.050974,3.258469,-1.150472,1.023107,-2.415904,-36.01745,-9.012953,-9.092183
275,589256139,-223.5656,4.6196594,-167.3933,-0.040602684,0.099408925,-0.5347965,-2.2559357,5.775844,3.270453,-1.151149,1.024764,-2.424817,-36.055049,-8.916689,-9.037675
276,589272806,-225.43909,4.56987,-168.19476,-0.0566082,0.07627499,-0.53479505,-3.1103086,3.8004673,3.2942533,-1.152092,1.026035,-2.43373,-36.106887,-8.853348,-8.982771
277,589289473,-228.87907,4.5261917,-169.0657,-0.076438904,0.05973816,-0.53264534,-4.1254635,1.3047241,3.331674,-1.153366,1.027031,-2.442607,-36.175645,-8.831603,-8.927243
278,589306140,-230.21655,4.479309,-169.49577,-0.08400345,0.03584093,-0.5315083,-4.0568123,-0.09956515,3.2642026,-1.154766,1.027628,-2.451465,-36.243259,-8.833262,-8.87284
279,589322807,-229.43599,4.431694,-169.44176,-0.078053474,0.005308062,-0.52998626,-2.8778324,-0.36449158,3.0804276,-1.156067,1.027716,-2.460298,-36.291223,-8.839337,-8.8215
280,589339474,-228.31226,4.381363,-169.1375,-0.06603527,-0.02717805,-0.52893853,-1.0092888,-0.13880157,2.8376846,-1.157168,1.027263,-2.469114,-36.308044,-8.84165,-8.774205
281,589356141,-225.98589,4.326477,-168.43866,-0.04346943,-0.064786166,-0.5287057,1.8808908,0.9988231,2.5021787,-1.157892,1.026183,-2.477926,-36.276696,-8.825003,-8.732502
282,589372808,-224.93758,4.2802505,-167.65428,-0.020435333,-0.09563349,-0.5240196,4.862587,1.9045401,2.142239,-1.158233,1.024589,-2.48666,-36.195653,-8.793261,-8.696798
283,589389475,-225.43004,4.2425537,-166.79753,0.0025520325,-0.1189564,-0.51470935,7.912551,2.5209813,1.7611946,-1.15819,1.022606,-2.495238,-36.063777,-8.751245,-8.667445
284,589406142,-225.57022,4.2053223,-165.58414,0.03449726,-0.14312892,-0.5034853,11.7900095,3.7810066,1.2944964,-1.157615,1.020221,-2.503629,-35.867277,-8.688228,-8.64587
285,589422809,-225.96994,4.1712418,-164.0725,0.07341194,-0.16538726,-0.4890654,16.31401,5.4461813,0.7550267,-1.156391,1.017465,-2.51178,-35.595377,-8.597458,-8.633286
286,589439476,-225.98354,4.1255035,-163.99757,0.09678459,-0.16709712,-0.44969046,19.321991,6.464933,0.45350897,-1.154778,1.01468,-2.519275,-35.273344,-8.489709,-8.625728
287,589456143,-225.37411,4.0658417,-165.49205,0.103666306,-0.14707994,-0.38314235,20.700222,6.852279,0.41130483,-1.15305,1.012229,-2.525661,-34.92834,-8.375504,-8.618873
288,589472810,-224.92444,4.0011444,-167.7741,0.10348129,-0.11192742,-0.29847896,21.355434,6.948137,0.4894303,-1.151325,1.010364,-2.530636,-34.572416,-8.259702,-8.610716
289,589489477,-224.42679,3.9269867,-171.32863,0.09024334,-0.056287423,-0.18919969,20.700657,6.489877,0.7735857,-1.149821,1.009426,-2.533789,-34.227405,-8.151537,-8.597823
290,589506144,-223.89023,3.8495712,-175.07565,0.07946968,0.007356435,-0.068202734,20.20211,6.3340445,1.0661823,-1.148497,1.009549,-2.534926,-33.890703,-8.04597,-8.580053
291,589522811,-223.40611,3.7693863,-178.96715,0.07194996,0.07897541,0.064450145,19.925259,6.5151334,1.3577248,-1.147298,1.010865,-2.533852,-33.558615,-7.937384,-8.557424
292,589539478,-222.79912,3.6793518,-183.97588,0.05475521,0.1698012,0.22134215,18.62164,6.383897,1.8227557,-1.146385,1.013695,-2.530163,-33.248254,-7.830986,-8.527045
293,589556145,-222.0962,3.580574,-189.89372,0.031083107,0.27771518,0.4004115,16.584694,6.121561,2.4222975,-1.145867,1.018324,-2.523489,-32.971842,-7.72896,-8.486673
294,589572812,-221.50967,3.4825897,-182.55956,0.019071579,0.34451106,0.51443654,14.944799,6.1263537,2.7863345,-1.145549,1.024066,-2.514915,-32.722762,-7.626854,-8.440234
295,589589479,-221.03177,3.3850327,-160.6679,0.01881504,0.36614117,0.5567934,13.638193,6.361944,2.9031153,-1.145235,1.030168,-2.505635,-32.495459,-7.520822,-8.391849
296,589606146,-220.58652,3.283821,-130.72801,0.02381897,0.3689671,0.567654,12.308059,6.764114,2.9238768,-1.144838,1.036317,-2.496174,-32.290325,-7.408087,-8.343118
297,589622813,-220.22252,3.1809998,-88.68023,0.038707733,0.33695576,0.5227944,11.212135,7.425667,2.751812,-1.144193,1.041933,-2.487461,-32.103456,-7.284326,-8.297254
298,589639480,-219.81361,3.068901,-42.91956,0.049516678,0.30727133,0.47657764,9.342701,7.945342,2.6498694,-1.143368,1.047054,-2.479518,-31.947744,-7.151904,-8.25309
299,589656147,-219.3528,2.9467392,6.237918,0.055630684,0.28180948,0.43175662,6.639922,8.315067,2.6318192,-1.142441,1.051751,-2.472322,-31.837079,-7.01332,-8.209226
300,589672814,-218.94237,2.81987,66.67462,0.0679512,0.22786465,0.3397057,3.8066573,8.812393,2.4834266,-1.141308,1.055549,-2.46666,-31.773635,-6.866447,-8.167836
301,589689481,-218.55573,2.6863556,136.8516,0.08353996,0.15284696,0.21113724,0.61008215,9.352905,2.25986,-1.139916,1.058096,-2.463141,-31.763467,-6.710565,-8.130172
302,589706148,-218.04765,2.5400467,184.56174,0.089250565,0.09434697,0.13432181,-1.3527584,9.89431,2.154673,-1.138428,1.059668,-2.460902,-31.786013,-6.54566,-8.094261
303,589722815,-217.41643,2.380661,207.81052,0.085082054,0.051365763,0.11093068,-1.8557005,10.461654,2.1597438,-1.13701,1.060524,-2.459053,-31.816941,-6.371299,-8.058265
304,589739482,-216.71259,2.2094574,220.94464,0.07524967,0.010544866,0.105606794,-1.8231573,11.0159235,2.2199974,-1.135756,1.0607,-2.457293,-31.847327,-6.1877,-8.021265
305,589756149,-215.89835,2.0245895,215.19078,0.056362152,-0.019166604,0.14093721,-0.7836504,11.551632,2.3820086,-1.134817,1.060381,-2.454944,-31.860388,-5.995173,-7.981565
306,589772816,-215.08406,1.8304825,211.47076,0.03888607,-0.06875162,0.15213966,0.5044546,12.168016,2.4770823,-1.134169,1.059235,-2.452408,-31.85198,-5.792373,-7.94028
307,589789483,-214.27368,1.6268463,210.87018,0.023144722,-0.14009148,0.13557923,1.9828873,12.862363,2.498582,-1.133783,1.0569,-2.450148,-31.818932,-5.578,-7.898637
308,589806150,-213.3793,1.4096375,195.24911,0.00097465515,-0.21056363,0.1426357,4.4561234,13.581235,2.5692048,-1.133767,1.053391,-2.447771,-31.744663,-5.351646,-7.855817
309,589822817,-212.4234,1.1794662,168.82942,-0.025499344,-0.28719884,0.15937728,7.782523,14.345189,2.6525812,-1.134192,1.048604,-2.445115,-31.614954,-5.11256,-7.811607
310,589839484,-211.67538,1.0110168,155.65984,-0.04114628,-0.33522958,0.16201639,9.928675,14.144204,2.604247,-1.134878,1.043017,-2.442415,-31.449476,-4.876823,-7.768203
311,589856151,-211.15135,0.91116333,155.58102,-0.045474052,-0.34882262,0.15441585,10.82766,12.8709135,2.4227304,-1.135636,1.037203,-2.439841,-31.269015,-4.662308,-7.727824
312,589872818,-210.73932,0.845047,159.82214,-0.04421234,-0.34941968,0.13834357,11.370468,11.0128355,2.1500716,-1.136373,1.031379,-2.437535,-31.079507,-4.478761,-7.691989
313,589889485,-210.51358,0.83400726,174.33504,-0.033325195,-0.32646388,0.10886574,11.033279,8.276312,1.7475272,-1.136928,1.025938,-2.435721,-30.895619,-4.340822,-7.662864
314,589906152,-210.29501,0.8336563,180.1817,-0.023795128,-0.29459104,0.09293413,11.224952,5.224098,1.3294078,-1.137325,1.021028,-2.434172,-30.708536,-4.253754,-7.640707
315,589922819,-210.07686,0.8421402,176.3377,-0.016034126,-0.25503787,0.09118295,12.038803,1.8785627,0.8971175,-1.137592,1.016777,-2.432652,-30.507889,-4.222445,-7.625755
316,589939486,-210.01485,0.9009018,177.1795,-0.0010204315,-0.19084764,0.08635974,12.3316965,-2.30975,0.35868442,-1.137609,1.013596,-2.431213,-30.302361,-4.260941,-7.619777
317,589956153,-210.07425,1.0016861,178.55977,0.019039154,-0.10460347,0.084389925,12.410607,-7.240161,-0.26424897,-1.137292,1.011853,-2.429807,-30.095518,-4.38161,-7.624181
318,589972820,-210.11093,1.0801315,178.64,0.033777237,-0.044198856,0.09065032,12.557863,-10.312175,-0.6457921,-1.136729,1.011116,-2.428296,-29.88622,-4.55348,-7.634944
319,589989487,-210.13367,1.1364746,178.85442,0.043380737,-0.011333317,0.10425949,12.660978,-11.353916,-0.7658118,-1.136006,1.010927,-2.426558,-29.675204,-4.742712,-7.647708
320,590006154,-210.19089,1.1968231,177.161,0.05137539,0.015583247,0.12715638,12.794926,-11.539042,-0.7646047,-1.13515,1.011187,-2.424439,-29.461955,-4.935029,-7.660451
321,590022821,-210.2505,1.2455444,173.46062,0.05521393,0.02423954,0.16081965,12.996649,-10.155651,-0.5526452,-1.13423,1.011591,-2.421759,-29.245344,-5.10429,-7.669662
322,590039488,-210.44186,1.3323059,172.41199,0.06343937,0.04740286,0.19792634,12.814306,-8.868503,-0.3451618,-1.133173,1.012381,-2.41846,-29.031772,-5.252098,-7.675415
323,590056155,-210.774,1.4606628,173.93076,0.07647419,0.08740726,0.23907006,12.238335,-7.764512,-0.1517092,-1.131898,1.013838,-2.414475,-28.8278,-5.381507,-7.677943
324,590072822,-211.15833,1.5932693,175.70781,0.08796024,0.11761472,0.28946698,11.51155,-5.3865714,0.2144469,-1.130432,1.015798,-2.409651,-28.635941,-5.471283,-7.674369
325,590089489,-211.62567,1.7415237,178.76064,0.09976673,0.14524707,0.34800494,10.528343,-2.0688767,0.7107743,-1.128769,1.018219,-2.403851,-28.460469,-5.505764,-7.662523
326,590106156,-211.99579,1.857338,180.2149,0.107860565,0.15713024,0.3806119,9.696094,-0.14976954,0.9443594,-1.126971,1.020838,-2.397507,-28.298867,-5.50826,-7.646784
327,590122823,-212.24326,1.9319382,179.70282,0.1111269,0.14865628,0.3846385,9.064228,0.34452224,0.9024848,-1.125119,1.023316,-2.391096,-28.147797,-5.502518,-7.631743
328,590139490,-212.47679,1.9962158,179.38817,0.11276913,0.13091281,0.37558442,8.354233,0.31424952,0.7447387,-1.12324,1.025498,-2.384836,-28.00856,-5.497281,-7.619331
329,590156157,-212.6439,2.0353928,178.52379,0.11143303,0.0990468,0.34391803,7.675136,-0.83470964,0.3680328,-1.121383,1.027149,-2.379104,-27.880641,-5.511193,-7.613197
330,590172824,-212.8298,2.068489,178.18678,0.107829094,0.053966492,0.3112542,6.842346,-1.3459144,0.051974893,-1.119586,1.028048,-2.373916,-27.766602,-5.533625,-7.612331
331,590189491,-213.04266,2.0972977,178.65239,0.102108,-0.0041018724,0.27861112,5.8231306,-1.1258929,-0.18923175,-1.117884,1.02798,-2.369272,-27.66955,-5.55239,-7.615485
332,590206158,-213.19337,2.0987244,178.80043,0.09263706,-0.080420196,0.22669905,4.7982097,-1.5514939,-0.58378077,-1.11634,1.02664,-2.365494,-27.58958,-5.578248,-7.625215
333,590222825,-213.29886,2.0761185,178.9406,0.079470634,-0.17536925,0.15974277,3.7207098,-2.2453632,-1.0733058,-1.115015,1.023717,-2.362832,-27.527568,-5.615671,-7.643103
334,590239492,-213.43634,2.0744858,179.0604,0.07000351,-0.23260386,0.1262052,3.015542,-2.465673,-1.3339543,-1.113848,1.01984,-2.360729,-27.477309,-5.656766,-7.665336
335,590256159,-213.59877,2.0939713,179.0333,0.06457329,-0.24800833,0.12811649,2.748939,-2.3030772,-1.3625121,-1.112772,1.015707,-2.358594,-27.431493,-5.695151,-7.688045
336,590272826,-213.75853,2.1143875,179.11249,0.059588432,-0.24904913,0.14512277,2.6881127,-1.84992,-1.2731881,-1.111779,1.011556,-2.356175,-27.386691,-5.725983,-7.709265
337,590289493,-213.93117,2.1465225,179.26259,0.056951523,-0.2204055,0.19008702,2.964007,-0.941792,-0.9823034,-1.11083,1.007883,-2.353007,-27.337291,-5.74168,-7.725637
338,590306160,-214.04706,2.1572952,179.329,0.05183506,-0.1966592,0.22955656,3.368657,-0.36123073,-0.7373663,-1.109966,1.004605,-2.349181,-27.281147,-5.747701,-7.737926
339,590322827,-214.09982,2.1437683,179.34085,0.043837547,-0.18015336,0.26180393,3.893036,-0.12511003,-0.5480434,-1.109235,1.001602,-2.344818,-27.216263,-5.749786,-7.74706
340,590339494,-214.13463,2.1309204,179.34206,0.036940575,-0.14034393,0.3146506,4.7633314,0.28987026,-0.21867716,-1.108619,0.999263,-2.339574,-27.136874,-5.744955,-7.750705
341,590356161,-214.13365,2.110855,179.3087,0.030056953,-0.084426925,0.38117534,5.9453173,0.71582747,0.19972312,-1.108118,0.997856,-2.333221,-27.037785,-5.733025,-7.747376
342,590372828,-214.17656,2.1015854,179.3127,0.025502205,-0.05310747,0.42674524,6.680325,0.94426495,0.40481102,-1.107693,0.996971,-2.326109,-26.926446,-5.717287,-7.740629
343,590389495,-214.27376,2.1073303,179.36151,0.023996353,-0.046212524,0.4515791,6.933826,1.0041058,0.39085567,-1.107293,0.996201,-2.318583,-26.810882,-5.700552,-7.734115
344,590406162,-214.37283,2.1136398,179.40587,0.023697853,-0.049070224,0.46755654,7.0514708,0.87171084,0.26668298,-1.106898,0.995383,-2.31079,-26.693357,-5.686023,-7.72967
345,590422829,-214.49594,2.1261444,179.46405,0.025424957,-0.07183011,0.46598393,6.834585,0.49488783,-0.04700005,-1.106474,0.994186,-2.303024,-26.579447,-5.677775,-7.730453
346,590439496,-214.60437,2.13974,179.52127,0.028808594,-0.082857355,0.47436017,6.793723,0.12905705,-0.32271552,-1.105994,0.992805,-2.295118,-26.466218,-5.675624,-7.735832
347,590456163,-214.69257,2.1532288,179.57286,0.03379059,-0.08055748,0.4939028,6.9635725,-0.23456335,-0.55198455,-1.105431,0.991462,-2.286886,-26.350158,-5.679533,-7.745032
348,590472830,-214.79836,2.174179,179.6411,0.041358948,-0.089196146,0.50355566,6.9210644,-0.77277875,-0.91732645,-1.104742,0.989975,-2.278493,-26.234807,-5.692413,-7.760321
349,590489497,-214.91257,2.2015152,179.72235,0.051516533,-0.10194759,0.50916594,6.7766275,-1.4394913,-1.372479,-1.103883,0.988276,-2.270007,-26.121863,-5.716405,-7.783196
350,590506164,-215.06886,2.2251816,179.67726,0.056126595,-0.10541402,0.49642217,6.745391,-1.8861692,-1.6394184,-1.102948,0.986519,-2.261733,-26.00944,-5.747841,-7.81052
351,590522831,-215.2758,2.2456055,179.49544,0.054629326,-0.10106228,0.4613312,6.7953053,-2.1006846,-1.713992,-1.102038,0.984835,-2.254044,-25.896185,-5.782852,-7.839087
352,590539498,-215.51158,2.267105,179.24007,0.050959587,-0.09048116,0.4145195,6.898804,-2.2198513,-1.6974447,-1.101189,0.983327,-2.247135,-25.781205,-5.81985,-7.867378
353,590556165,-215.78781,2.2874832,178.8725,0.04291725,-0.07059556,0.35105473,7.1002455,-2.1508677,-1.5176499,-1.100474,0.98215,-2.241284,-25.662868,-5.855698,-7.892672
354,590572832,-216.09383,2.314499,178.47743,0.035556793,-0.055330276,0.273548,7.1676445,-2.1536632,-1.3855034,-1.099881,0.981228,-2.236725,-25.543407,-5.891592,-7.915764
355,590589499,-216.42944,2.3489532,178.0588,0.029222488,-0.044878274,0.18225467,7.0932074,-2.239915,-1.3098087,-1.099394,0.98048,-2.233687,-25.425187,-5.928924,-7.937594
356,590606166,-216.81148,2.3853912,177.53978,0.019491196,-0.029722214,0.071076274,7.02608,-2.1992712,-1.1231985,-1.099069,0.979985,-2.232502,-25.308086,-5.965579,-7.956314
357,590622833,-217.23912,2.4257965,176.93669,0.007426262,-0.012760311,-0.059963107,6.914083,-2.0854425,-0.86935383,-1.098945,0.979772,-2.233501,-25.192851,-6.000336,-7.970803
358,590639500,-217.56723,2.4702759,177.76128,-0.0013751984,0.0014262497,-0.13781416,7.098253,-2.1951902,-0.7334031,-1.098968,0.979796,-2.235798,-25.074547,-6.036923,-7.983026
359,590656167,-217.78514,2.5184631,180.15703,-0.0069561005,0.013375998,-0.15664387,7.625446,-2.531176,-0.7127335,-1.099084,0.980019,-2.238409,-24.947456,-6.079109,-7.994905
360,590672834,-217.96205,2.5719604,183.42596,-0.0112838745,0.023226053,-0.15137744,8.296253,-2.9885802,-0.7487657,-1.099272,0.980406,-2.240932,-24.809185,-6.128919,-8.007384
361,590689501,-218.05817,2.6308289,188.00323,-0.012964249,0.0298782,-0.10177398,9.210216,-3.6439137,-0.8879611,-1.099488,0.980904,-2.242628,-24.655681,-6.189651,-8.022183
362,590706168,-218.16342,2.6940765,193.0009,-0.016399384,0.038578838,-0.052122116,10.206978,-4.269077,-0.9781529,-1.099761,0.981547,-2.243497,-24.485565,-6.260802,-8.038486
363,590722835,-218.28331,2.7620697,198.38635,-0.021801949,0.049304813,-0.004972577,11.272982,-4.8549223,-1.0136113,-1.100124,0.982369,-2.24358,-24.297682,-6.341717,-8.05538
364,590739502,-218.33821,2.8355484,204.99963,-0.025810242,0.058471918,0.079637885,12.577421,-5.581079,-1.1097192,-1.100554,0.983344,-2.242253,-24.088058,-6.434735,-8.073875
365,590756169,-218.34647,2.9144974,212.6793,-0.029371262,0.06712031,0.19286567,14.089542,-6.4003043,-1.2345037,-1.101044,0.984463,-2.239039,-23.853232,-6.541407,-8.09445
366,590772836,-218.46902,3.0088882,213.37338,-0.028097153,0.07292515,0.25176215,14.889695,-7.0252495,-1.2992576,-1.101512,0.985678,-2.234843,-23.60507,-6.658494,-8.116104
367,590789503,-218.71089,3.119995,206.39528,-0.021138191,0.07523292,0.25384748,14.912558,-7.449399,-1.3087435,-1.101864,0.986932,-2.230612,-23.356527,-6.782651,-8.137916
368,590806170,-219.00755,3.243309,195.4365,-0.011198044,0.07580885,0.23294306,14.574127,-7.7767086,-1.2830993,-1.102051,0.988195,-2.22673,-23.113625,-6.912263,-8.159301
369,590822837,-219.40121,3.3819199,178.21745,0.003118515,0.07385713,0.16742212,13.620373,-7.9313183,-1.2007402,-1.101999,0.989426,-2.22394,-22.886619,-7.044452,-8.179313
370,590839504,-219.7775,3.5306244,159.61273,0.02017212,0.06963238,0.11627269,12.627755,-8.127287,-1.1436112,-1.101663,0.990587,-2.222002,-22.676156,-7.179907,-8.198373
371,590856171,-220.13078,3.6894531,139.82874,0.039868355,0.06317258,0.08261311,11.624509,-8.372264,-1.1137093,-1.100999,0.99164,-2.220625,-22.482414,-7.319445,-8.216935
372,590872838,-220.5546,3.8638916,114.37815,0.064344406,0.053576916,0.01850009,10.097767,-8.4930935,-1.0518404,-1.099927,0.992533,-2.220317,-22.314118,-7.460997,-8.234466
373,590889505,-221.02518,4.053238,84.18038,0.09336567,0.040809274,-0.06365752,8.160989,-8.532914,-0.97506267,-1.098371,0.993213,-2.221378,-22.178102,-7.603212,-8.250717
374,590906172,-221.37604,4.2072754,55.905724,0.11085796,0.031469166,-0.11501908,7.054299,-8.40654,-0.9021037,-1.096523,0.993737,-2.223295,-22.06053,-7.743321,-8.265752
375,590922839,-221.60248,4.321991,29.514866,0.11563015,0.025964111,-0.13679671,6.8273735,-8.081543,-0.82809424,-1.094596,0.99417,-2.225575,-21.94674,-7.878013,-8.279554
376,590939506,-221.7674,4.4207687,2.3469443,0.1152153,0.021048784,-0.14381945,6.9632053,-7.624055,-0.7557912,-1.092676,0.994521,-2.227972,-21.830687,-8.005081,-8.292151
377,590956173,-221.82663,4.4895782,-23.979465,0.105187416,0.018472672,-0.12402201,7.7902775,-7.0004587,-0.6887431,-1.090923,0.994829,-2.230039,-21.700849,-8.121755,-8.30363
378,590972840,-221.90129,4.5591736,-54.663044,0.095505714,0.01407215,-0.118263364,8.448184,-6.2096972,-0.599946,-1.089331,0.995064,-2.23201,-21.560046,-8.22525,-8.313629
379,590989507,-221.99611,4.631111,-90.06459,0.08673191,0.007524103,-0.12808704,8.89285,-5.249564,-0.4891944,-1.087885,0.995189,-2.234145,-21.411832,-8.312743,-8.321782
380,591006174,-222.01224,4.6775513,-126.28979,0.069996834,0.0023896694,-0.12294865,9.837637,-4.0854487,-0.37263322,-1.086718,0.995229,-2.236194,-21.247871,-8.380834,-8.327993
381,591022841,-221.97418,4.704544,-164.52849,0.047301292,-0.0022372603,-0.111500144,11.1044,-2.7106872,-0.2443893,-1.08593,0.995192,-2.238052,-21.062798,-8.426012,-8.332066
382,591039508,-221.98582,4.741272,-191.94112,0.034449577,-0.0037489533,-0.11047971,11.71028,-1.7100832,-0.14912355,-1.085356,0.99513,-2.239893,-20.867627,-8.454513,-8.334551
383,591056175,-222.04428,4.7864304,-206.80797,0.031746864,-0.0014089346,-0.11804104,11.650747,-1.1302128,-0.092606306,-1.084827,0.995107,-2.24186,-20.673448,-8.47335,-8.336094
384,591072842,-222.11588,4.82959,-216.00768,0.032943726,0.0029705465,-0.13222456,11.274002,-0.6848674,-0.04949546,-1.084278,0.995157,-2.244064,-20.485548,-8.484764,-8.336919
385,591089509,-222.22588,4.877434,-215.7177,0.04210186,0.010313243,-0.15687251,10.329181,-0.5350199,-0.032741785,-1.083576,0.995329,-2.246679,-20.313395,-8.493681,-8.337465
386,591106176,-222.28665,4.9049683,-212.39285,0.04762745,0.020035535,-0.17426026,9.575449,-0.3262496,-0.020856142,-1.082782,0.995663,-2.249583,-20.153804,-8.499118,-8.337813
387,591122843,-222.29395,4.9104614,-206.3694,0.048906326,0.0321292,-0.18411946,9.045417,-0.035677433,-0.012164354,-1.081967,0.996198,-2.252652,-20.003047,-8.499713,-8.338016
388,591139510,-222.31215,4.9114532,-190.91655,0.05516243,0.04780385,-0.19849563,8.146275,0.01898992,-0.028994918,-1.081048,0.996995,-2.25596,-19.867276,-8.499397,-8.338499
389,591156177,-222.32208,4.9020615,-167.16946,0.06392765,0.06705776,-0.21367598,7.037189,-0.08980656,-0.067254424,-1.079983,0.998113,-2.259521,-19.74999,-8.500894,-8.33962
390,591172844,-222.3393,4.895355,-154.23459,0.06658554,0.07521865,-0.22672391,6.383519,-0.04124832,-0.10135853,-1.078873,0.999367,-2.2633,-19.643598,-8.501581,-8.341309
391,591189511,-222.37231,4.894165,-152.85182,0.06340313,0.07111448,-0.23858953,6.1796064,0.15086317,-0.13253093,-1.077816,1.000552,-2.267276,-19.540605,-8.499067,-8.343518
392,591206178,-222.40022,4.887787,-154.50296,0.05676937,0.061769873,-0.24805331,6.218792,0.37883747,-0.17088437,-1.07687,1.001581,-2.27141,-19.436958,-8.492753,-8.346366
393,591222845,-222.42914,4.880127,-164.14937,0.044550896,0.043120176,-0.25453663,6.670689,0.7171162,-0.21078682,-1.076127,1.0023,-2.275652,-19.32578,-8.480801,-8.349879
394,591239512,-222.46635,4.867401,-168.68398,0.034111977,0.024083614,-0.26300478,6.993909,0.89319134,-0.27357268,-1.075558,1.002701,-2.280035,-19.209215,-8.465914,-8.354439
395,591256179,-222.51059,4.848549,-167.22995,0.025672913,0.0051781237,-0.27334046,7.1711855,0.8906021,-0.36112177,-1.07513,1.002787,-2.284591,-19.089695,-8.451071,-8.360458
396,591272846,-222.56422,4.828865,-170.5124,0.013744354,-0.021631494,-0.2825687,7.618873,0.9038936,-0.45868886,-1.074901,1.002426,-2.2893,-18.962714,-8.436006,-8.368103
397,591289513,-222.62912,4.807396,-175.68375,-0.0001411438,-0.05456023,-0.2916832,8.225795,0.87062407,-0.5715586,-1.074903,1.001517,-2.294161,-18.825617,-8.421496,-8.377629
398,591306180,-222.77208,4.789276,-177.83061,-0.010310173,-0.071247295,-0.30041957,8.476032,0.84608704,-0.6558647,-1.075075,1.00033,-2.299168,-18.68435,-8.407395,-8.38856
399,591322847,-223.00168,4.775917,-177.79375,-0.016835213,-0.070604965,-0.30847657,8.369164,0.85422015,-0.70605266,-1.075356,0.999153,-2.304309,-18.544864,-8.393158,-8.400328
400,591339514,-223.2889,4.7644196,-175.96512,-0.021352768,-0.06208098,-0.3166721,8.074806,0.8222255,-0.7469319,-1.075712,0.998118,-2.309587,-18.410284,-8.379454,-8.412777
401,591356181,-223.65442,4.7566986,-171.35422,-0.0224123,-0.0396678,-0.32488966,7.4602265,0.76891303,-0.76581657,-1.076086,0.997457,-2.315002,-18.285947,-8.366639,-8.425541
402,591372848,-224.06123,4.7509766,-169.511,-0.024764061,-0.018470347,-0.33238924,6.9374027,0.70668626,-0.7851423,-1.076499,0.997149,-2.320542,-18.170324,-8.354861,-8.438627
403,591389515,-224.50954,4.747429,-170.59053,-0.028533936,0.0007805228,-0.33924353,6.5206385,0.62821424,-0.8066925,-1.076975,0.997162,-2.326196,-18.061647,-8.344391,-8.452072
404,591406182,-225.03787,4.7489166,-171.08162,-0.03008461,0.030871123,-0.34572554,5.8897758,0.5433967,-0.8079622,-1.077476,0.997677,-2.331958,-17.963484,-8.335334,-8.465538
405,591422849,-225.64082,4.7553864,-172.22379,-0.030384064,0.06873652,-0.351691,5.129569,0.45341933,-0.7933674,-1.077982,0.998823,-2.33782,-17.877991,-8.327777,-8.478761
406,591439516,-225.56696,4.7628403,-172.63573,-0.026817322,0.07459298,-0.3533175,4.8279963,0.20244563,-0.84291685,-1.078429,1.000066,-2.343709,-17.797524,-8.324403,-8.49281
407,591456183,-224.7466,4.7716827,-171.90366,-0.018654823,0.046153396,-0.35020888,5.004694,-0.22244668,-0.9611288,-1.07874,1.000835,-2.349546,-17.714112,-8.32811,-8.508829
408,591472850,-223.53041,4.7841797,-171.62234,-0.0077266693,0.000177145,-0.34404087,5.4391956,-0.74704814,-1.1128149,-1.078869,1.000838,-2.35528,-17.623459,-8.340561,-8.527376
409,591489517,-221.70352,4.799652,-171.38924,0.006884575,-0.074224845,-0.33368015,6.288972,-1.4147847,-1.3195944,-1.078754,0.999601,-2.360841,-17.518643,-8.364141,-8.549369
410,591506184,-219.71037,4.8217316,-171.16345,0.024729729,-0.15066236,-0.32141066,7.1281085,-2.136304,-1.5291457,-1.078342,0.99709,-2.366198,-17.399841,-8.399746,-8.574855
411,591522851,-217.5693,4.8510666,-171.1399,0.045804024,-0.22802971,-0.30727315,7.941588,-2.9069366,-1.7387428,-1.077579,0.99329,-2.371319,-17.267481,-8.448195,-8.603834
412,591539518,-214.86401,4.885582,-171.02524,0.07124615,-0.32915097,-0.28906965,9.080737,-3.8099537,-1.9933937,-1.076392,0.987804,-2.376137,-17.116135,-8.511694,-8.637057
413,591556185,-211.67697,4.926445,-170.87032,0.10108566,-0.4488371,-0.2671864,10.460828,-4.8281775,-2.282482,-1.074707,0.980323,-2.38059,-16.941788,-8.592164,-8.675098
414,591572852,-211.65254,4.972786,-170.6396,0.09557819,-0.47590613,-0.2655338,10.671036,-5.419038,-2.5883205,-1.073114,0.972391,-2.385016,-16.763937,-8.682481,-8.718237
415,591589519,-215.09682,5.024597,-170.28503,0.05096531,-0.40231103,-0.28617775,9.615759,-5.5400505,-2.9155436,-1.072265,0.965686,-2.389786,-16.603674,-8.774815,-8.766829
416,591606186,-220.34557,5.0834274,-169.8766,-0.013976097,-0.2771002,-0.3180821,7.904337,-5.436048,-3.2661247,-1.072498,0.961068,-2.395087,-16.471935,-8.865416,-8.821264
417,591622853,-228.42891,5.149269,-169.38646,-0.11061478,-0.069281295,-0.36801898,5.1449986,-4.954894,-3.6374562,-1.074342,0.959913,-2.401221,-16.386185,-8.947998,-8.881888
418,591639520,-237.13184,5.2226562,-168.85696,-0.21570015,0.15079266,-0.42156243,2.2476225,-4.432054,-4.0524187,-1.077937,0.962426,-2.408247,-16.348725,-9.021866,-8.949428
419,591656187,-246.36067,5.304077,-168.294,-0.32822323,0.38015667,-0.4780867,-0.75090885,-3.8820667,-4.5126476,-1.083407,0.968762,-2.416215,-16.36124,-9.086567,-9.024639
420,591672854,-258.1489,5.393463,-167.64696,-0.47007656,0.6816462,-0.5508933,-4.6548615,-3.0011148,-5.0056176,-1.091242,0.980123,-2.425397,-16.438821,-9.136586,-9.108066
421,591689521,-272.0779,5.4912415,-166.92455,-0.6369333,1.0417131,-0.63725567,-9.288568,-1.8533959,-5.5372767,-1.101858,0.997485,-2.436018,-16.59363,-9.167476,-9.200354
422,591706188,-270.15247,5.5875854,-166.34344,-0.7009821,1.245308,-0.66366494,-12.335328,-1.490305,-5.8927603,-1.113541,1.01824,-2.447079,-16.799219,-9.192314,-9.298567
423,591722855,-250.84805,5.6817245,-165.91704,-0.6526995,1.2800725,-0.6247046,-13.680581,-1.972053,-6.0499034,-1.124419,1.039575,-2.457491,-17.027229,-9.225182,-9.399399
424,591739522,-222.3666,5.778816,-165.548,-0.5497799,1.2393416,-0.55337596,-14.312907,-2.8404737,-6.114461,-1.133582,1.060231,-2.466714,-17.265777,-9.272523,-9.501307
425,591756189,-179.61162,5.8762054,-165.29518,-0.35664654,1.0646794,-0.42922485,-13.610261,-4.3808646,-6.0246296,-1.139526,1.077976,-2.473868,-17.492615,-9.345537,-9.601717
426,591772856,-133.50394,5.979988,-165.02054,-0.15324402,0.8980987,-0.29839516,-13.140586,-5.8994274,-5.9018164,-1.14208,1.092944,-2.478841,-17.711625,-9.443861,-9.700081
427,591789523,-84.49344,6.090706,-164.7167,0.056729317,0.7465234,-0.16298676,-12.982762,-7.3616104,-5.751938,-1.141135,1.105386,-2.481557,-17.928004,-9.566555,-9.795947
428,591806190,-22.531818,6.2030716,-164.50412,0.3448763,0.48774508,0.01826787,-11.8121,-9.363896,-5.458492,-1.135387,1.113515,-2.481253,-18.124872,-9.72262,-9.886922
429,591822857,50.327198,6.318428,-164.35489,0.6956501,0.15031412,0.23640531,-9.948804,-11.766326,-5.044102,-1.123793,1.11602,-2.477313,-18.290685,-9.918725,-9.97099
430,591839524,100.26076,6.4653473,-163.98247,0.8802757,-0.019530147,0.37572926,-8.501603,-13.377931,-5.148805,-1.109122,1.115694,-2.471051,-18.432378,-10.141691,-10.056803
431,591856191,125.41632,6.6460724,-163.37494,0.88627243,-0.014148593,0.4307075,-7.398988,-14.162164,-5.818948,-1.094351,1.115458,-2.463873,-18.555694,-10.377727,-10.153785
432,591872858,140.58794,6.848152,-162.65004,0.81220436,0.06805208,0.4505993,-6.316556,-14.593401,-6.76592,-1.080814,1.116592,-2.456363,-18.66097,-10.62095,-10.26655
433,591889525,136.6521,7.0796814,-161.73131,0.596158,0.2917411,0.4044274,-5.506116,-14.358842,-8.16717,-1.070878,1.121454,-2.449623,-18.752739,-10.860264,-10.402669
434,591906192,136.06549,7.3229523,-160.81714,0.3903923,0.48094907,0.37071842,-3.960678,-14.310353,-9.620382,-1.064371,1.12947,-2.443444,-18.81875,-11.09877,-10.563009
435,591922859,140.00414,7.5774155,-159.91689,0.20236588,0.6271714,0.35346234,-1.6258478,-14.4887085,-11.10646,-1.060998,1.139923,-2.437553,-18.845847,-11.340248,-10.748117
436,591939526,129.30066,7.8591766,-158.865,-0.098171234,0.873999,0.2865196,0.79951715,-14.198884,-12.9839,-1.062634,1.15449,-2.432778,-18.832522,-11.576896,-10.964515
437,591956193,108.537506,8.164986,-157.70197,-0.48047733,1.1849356,0.1859783,3.5456204,-13.617356,-15.17393,-1.070642,1.174239,-2.429678,-18.773428,-11.803852,-11.217414
438,591972860,99.11989,8.465347,-156.82887,-0.7010193,1.3843083,0.122549295,5.264788,-13.554638,-16.169209,-1.082326,1.197311,-2.427636,-18.685682,-12.029763,-11.486901
439,591989527,100.53772,8.759842,-156.26408,-0.75341797,1.4731398,0.094302535,5.7559023,-14.00156,-15.86942,-1.094883,1.221863,-2.426064,-18.58975,-12.263122,-11.751391
440,592006194,105.53952,9.060684,-155.84473,-0.7333441,1.5105001,0.07798934,5.8233757,-14.690531,-14.936054,-1.107105,1.247038,-2.424764,-18.492694,-12.507964,-12.000325
441,592022861,119.30795,9.360481,-155.67897,-0.5772238,1.4520558,0.090706944,5.0675535,-15.82444,-12.953195,-1.116725,1.271239,-2.423252,-18.408235,-12.771705,-12.216212
442,592039528,124.2021,9.681206,-155.49062,-0.461586,1.4378607,0.07347667,4.1010914,-16.747816,-10.889373,-1.124418,1.295203,-2.422027,-18.339883,-13.050835,-12.397702
443,592056195,119.30284,10.0243,-155.2681,-0.39490604,1.4736764,0.023362875,2.97569,-17.43336,-8.788159,-1.131,1.319764,-2.421638,-18.290288,-13.341391,-12.544171
444,592072862,117.65103,10.372696,-155.24432,-0.23443508,1.45198,-0.016198754,1.0246916,-18.379475,-5.7967935,-1.134907,1.343964,-2.421908,-18.27321,-13.647716,-12.640784
445,592089529,115.35077,10.731308,-155.36409,-0.016945839,1.4022691,-0.058182716,-1.6374254,-19.447206,-2.105117,-1.135189,1.367335,-2.422878,-18.3005,-13.971836,-12.675869
446,592106196,113.43309,11.02903,-155.55412,0.07638168,1.3846543,-0.054679513,-2.9797525,-19.643438,0.6585375,-1.133916,1.390413,-2.423789,-18.350163,-14.299227,-12.664893
447,592122863,113.400925,11.256638,-155.84026,0.045609474,1.3922261,0.00390172,-2.9127302,-18.925358,2.455686,-1.133156,1.413617,-2.423724,-18.398709,-14.61465,-12.623965
448,592139530,111.989655,11.450798,-156.22433,-0.048046112,1.4164989,0.0859251,-2.3390303,-17.66361,3.942554,-1.133957,1.437225,-2.422292,-18.437693,-14.909044,-12.558256
449,592156197,109.83067,11.590286,-156.69821,-0.25081062,1.4708911,0.20645738,-0.72507286,-15.586733,4.6988745,-1.138137,1.46174,-2.418851,-18.449778,-15.168823,-12.479941
450,592172864,109.546646,11.711624,-157.3713,-0.4199581,1.4920686,0.34887195,0.5645509,-13.395592,5.908761,-1.145136,1.486608,-2.413036,-18.440369,-15.392083,-12.381462
451,592189531,110.92027,11.816338,-158.25194,-0.54997635,1.4784652,0.5116103,1.4444108,-11.109592,7.6368585,-1.154302,1.511249,-2.404509,-18.416295,-15.577243,-12.254181
452,592206198,113.26802,11.866585,-159.28471,-0.7516594,1.472499,0.7169721,3.0506663,-8.135682,8.935493,-1.16683,1.535791,-2.392559,-18.365451,-15.712838,-12.105256
453,592222865,117.16089,11.868599,-160.49901,-0.99532413,1.4604797,0.96238923,5.092997,-4.6081557,10.057082,-1.183419,1.560132,-2.376519,-18.280568,-15.789641,-11.937638
454,592239532,119.551544,11.91935,-160.91896,-1.0519657,1.4629567,1.0315678,5.938472,-2.3328607,10.822702,-1.200952,1.584515,-2.359326,-18.181593,-15.828522,-11.75726
455,592256199,120.250046,12.021828,-160.44576,-0.9119301,1.4860733,0.90696836,5.5684614,-1.4066701,11.0948305,-1.216151,1.609283,-2.34421,-18.088785,-15.851967,-11.572346
456,592272866,121.19528,12.132805,-159.56276,-0.66294193,1.510279,0.68959856,4.5587473,-1.0589998,11.123902,-1.2272,1.634454,-2.332717,-18.012806,-15.869617,-11.386948
457,592289533,121.64923,12.277054,-157.99074,-0.24286842,1.5422045,0.31901252,2.4861956,-1.7789264,10.818642,-1.231248,1.660157,-2.3274,-17.971369,-15.899266,-11.206637
458,592306200,123.19577,12.386551,-156.28346,0.18682957,1.5809611,-0.07353866,0.5855198,-2.3517814,10.031529,-1.228134,1.686506,-2.328626,-17.96161,-15.938462,-11.039445
459,592322867,126.112656,12.456436,-154.46982,0.62078476,1.6250335,-0.48146904,-1.0967302,-2.7195992,8.759301,-1.217788,1.71359,-2.33665,-17.979889,-15.983789,-10.893457
460,592339534,129.05481,12.541199,-152.02203,1.194788,1.6807996,-1.0241389,-3.542738,-3.9176416,6.9763055,-1.197875,1.741603,-2.353719,-18.038935,-16.049083,-10.777185
461,592356201,132.45296,12.625732,-149.04489,1.877285,1.7481066,-1.6760118,-6.4998856,-5.700906,4.6324286,-1.166587,1.770738,-2.381653,-18.147266,-16.144098,-10.699978
462,592372868,132.48398,12.651886,-149.16539,2.261961,1.7369983,-2.1048853,-7.4909534,-6.103057,3.5368423,-1.128888,1.799688,-2.416734,-18.272115,-16.245816,-10.641031
463,592389535,128.63515,12.620117,-152.66978,2.3268728,1.6398494,-2.2952077,-6.3904715,-5.0699325,3.8398323,-1.090107,1.827019,-2.454987,-18.378623,-16.330315,-10.577034
464,592406202,123.04744,12.547096,-157.91354,2.2440176,1.4991443,-2.3886626,-4.197487,-3.3757863,4.634443,-1.052707,1.852005,-2.494798,-18.448581,-16.386578,-10.499793
465,592422869,114.59529,12.417809,-165.91371,1.9030676,1.2896454,-2.2965288,-0.23621082,-0.50613284,6.4186254,-1.020989,1.873499,-2.533073,-18.452518,-16.395014,-10.392816
466,592439536,105.2666,12.278839,-174.43398,1.5770531,1.064562,-2.2444017,3.7995687,2.1178818,8.119445,-0.994705,1.891242,-2.57048,-18.389192,-16.359716,-10.257492
467,592456203,95.20151,12.131126,-183.37567,1.2784309,0.82655275,-2.2439618,7.8462353,4.4285355,9.662758,-0.973398,1.905018,-2.607879,-18.258421,-16.285907,-10.096446
468,592472870,82.39244,11.938179,-194.76624,0.77384377,0.52651453,-2.105596,13.349139,7.5780725,12.018537,-0.960501,1.913793,-2.642972,-18.035935,-16.159606,-9.896137
469,592489537,67.21898,11.709145,-208.17706,0.117946625,0.17468631,-1.8757014,19.97635,11.271172,14.96603,-0.958535,1.916704,-2.674234,-17.702996,-15.971753,-9.646703
470,592506204,47.597958,11.4796295,-206.10783,-0.31043434,-0.0926221,-1.7481649,22.858936,13.997001,17.183973,-0.963709,1.91516,-2.70337,-17.322014,-15.73847,-9.360303
471,592522871,22.974316,11.248306,-187.07738,-0.5060768,-0.26920336,-1.716712,21.709248,15.751977,18.679365,-0.972144,1.910673,-2.731982,-16.960193,-15.475937,-9.04898
472,592539538,-5.5012093,11.004044,-159.04297,-0.61415863,-0.4134922,-1.719178,18.615635,17.05468,19.940405,-0.98238,1.903781,-2.760635,-16.649932,-15.191692,-8.71664
473,592556205,-38.594093,10.755356,-117.04621,-0.5377779,-0.4892251,-1.8021495,12.246853,17.518719,20.640257,-0.991343,1.895627,-2.790671,-16.445818,-14.899713,-8.372636
474,592572872,-75.7159,10.470978,-71.71386,-0.56109905,-0.58916926,-1.8018851,5.818073,18.32495,21.803883,-1.000695,1.885808,-2.820702,-16.34885,-14.594297,-8.009238
475,592589539,-116.94508,10.149361,-23.477528,-0.69861984,-0.71831036,-1.710361,-0.5259743,19.519976,23.487745,-1.012339,1.873836,-2.849208,-16.357616,-14.268964,-7.617776
476,592606206,-163.37164,9.813004,37.442497,-0.7264528,-0.79898775,-1.6473253,-9.566411,20.183447,24.909994,-1.024447,1.86052,-2.876663,-16.517056,-13.932573,-7.202609
477,592622873,-215.02249,9.454987,109.05146,-0.7051363,-0.8504261,-1.5767028,-20.66558,20.560944,26.295061,-1.036199,1.846346,-2.902941,-16.861482,-13.589891,-6.764358
478,592639540,-250.34346,9.123444,157.98132,-0.71555233,-0.9096168,-1.4861913,-26.981987,20.829046,27.030972,-1.048125,1.831186,-2.927711,-17.311182,-13.24274,-6.313842
479,592656207,-267.44095,8.825638,182.38545,-0.7383661,-0.96975946,-1.3871982,-28.22184,20.889751,26.965843,-1.060431,1.815023,-2.950831,-17.781546,-12.894577,-5.864411
480,592672874,-276.5878,8.533981,196.87828,-0.77607536,-1.0255104,-1.2596557,-27.219292,20.820019,26.54238,-1.073366,1.797931,-2.971825,-18.235201,-12.547577,-5.422038
481,592689541,-271.71167,8.262993,192.45154,-0.8434038,-1.0837106,-1.1028905,-22.148521,20.632746,25.558043,-1.087423,1.779869,-2.990207,-18.604343,-12.203698,-4.996071
482,592706208,-265.68515,7.9905624,191.2246,-0.83498764,-1.1018026,-0.9535618,-17.736427,19.974031,24.16674,-1.101339,1.761506,-3.0061,-18.89995,-11.870797,-4.593292
483,592722875,-259.16687,7.7152863,194.35439,-0.74819183,-1.0774944,-0.80994904,-14.210361,18.831896,22.386108,-1.113809,1.743548,-3.019599,-19.136789,-11.556932,-4.22019
484,592739542,-240.30525,7.4614716,182.93848,-0.6457834,-1.0364554,-0.6534655,-7.6223116,17.37896,19.947054,-1.124572,1.726274,-3.03049,-19.263828,-11.267283,-3.887739
485,592756209,-211.59055,7.2253265,161.48633,-0.50381947,-0.96838796,-0.4914776,1.0614138,15.527396,16.865824,-1.132969,1.710134,-3.038681,-19.246138,-11.008493,-3.606642
486,592772876,-195.84802,7.0509186,151.38371,-0.41726398,-0.89807224,-0.34436226,5.317549,13.619879,14.759235,-1.139923,1.695166,-3.04442,-19.157512,-10.781495,-3.360655
487,592789543,-193.55054,6.94738,152.15045,-0.3997345,-0.82928634,-0.21312082,5.0214176,11.6895,13.728249,-1.146585,1.681345,-3.047972,-19.073822,-10.58667,-3.131851
488,592806210,-195.32777,6.892891,156.49445,-0.3878641,-0.7418834,-0.09369707,2.6320972,9.497963,13.001193,-1.153049,1.66898,-3.049534,-19.029954,-10.428371,-2.915164
489,592822877,-207.00722,6.902588,169.60242,-0.40846062,-0.6424271,0.00769639,-3.5441637,7.1317716,13.010865,-1.159857,1.658273,-3.049406,-19.089023,-10.309508,-2.698316
490,592839544,-211.98232,6.959099,173.91254,-0.42125797,-0.52146554,0.10835743,-8.665559,4.4197626,12.733699,-1.166878,1.649582,-3.0476,-19.233449,-10.235845,-2.486088
491,592856211,-209.25853,7.0635986,168.50606,-0.42023563,-0.37628716,0.20761645,-12.515103,1.3282793,12.099183,-1.173882,1.643311,-3.04414,-19.442034,-10.213707,-2.284435
492,592872878,-212.01479,7.2401047,166.39142,-0.4484234,-0.21667123,0.29068625,-18.965012,-1.991323,11.9897,-1.181356,1.6397,-3.039295,-19.758118,-10.246896,-2.084607
493,592889545,-216.64641,7.4875793,163.69196,-0.49674225,-0.039726302,0.36023366,-27.008747,-5.586732,12.188418,-1.189635,1.639038,-3.033291,-20.208264,-10.340008,-1.881467
494,592906212,-219.03445,7.6018143,161.29141,-0.53073406,0.015276074,0.43576849,-32.625355,-7.1961565,11.45682,-1.198481,1.639293,-3.026028,-20.75202,-10.459944,-1.69052
495,592922879,-220.3531,7.5679855,160.67943,-0.5534754,-0.06697114,0.51663756,-35.90398,-6.573042,9.788228,-1.207706,1.638177,-3.017417,-21.35042,-10.569495,-1.527383
496,592939546,-220.08226,7.48394,158.67778,-0.57564545,-0.21894188,0.5945606,-38.07955,-4.8139634,7.6250243,-1.2173,1.634528,-3.007508,-21.985079,-10.649728,-1.400299
497,592956213,-217.51596,7.2939224,155.87865,-0.5900059,-0.48138115,0.6739125,-38.154907,-1.2584045,4.651266,-1.227133,1.626505,-2.996276,-22.620994,-10.670701,-1.322778
498,592972880,-218.37788,7.125511,154.98457,-0.6267996,-0.7757324,0.7379279,-39.49402,2.8209195,1.810454,-1.23758,1.613576,-2.983977,-23.279228,-10.623686,-1.292604
499,592989547,-222.7626,6.986824,155.78777,-0.6881504,-1.0988952,0.7850216,-42.225216,7.3732147,-0.85660356,-1.249049,1.595261,-2.970893,-23.982982,-10.500799,-1.306881
500,593006214,-227.33624,6.765648,157.53242,-0.75374603,-1.5274211,0.82673323,-43.829315,13.63854,-4.0902553,-1.261611,1.569804,-2.957114,-24.713471,-10.27349,-1.375052
501,593022881,-233.38391,6.488289,160.80814,-0.83086586,-2.047242,0.85884124,-45.018703,21.388653,-7.693092,-1.275459,1.535683,-2.9428,-25.463783,-9.917012,-1.50327
502,593039548,-235.04532,6.2745132,162.42903,-0.79423904,-2.368254,0.8865954,-45.39939,25.011482,-10.240861,-1.288696,1.496212,-2.928023,-26.22044,-9.500154,-1.673951
503,593056215,-231.5186,6.120552,162.18169,-0.6295147,-2.47392,0.9112951,-44.6358,24.144987,-11.68034,-1.299188,1.45498,-2.912835,-26.96437,-9.097738,-1.868623
504,593072882,-226.55771,5.9861984,162.08253,-0.40109158,-2.4939654,0.9269973,-43.394615,21.316648,-12.548471,-1.305873,1.413414,-2.897385,-27.687614,-8.742461,-2.077764
505,593089549,-218.5056,5.9000015,161.35011,-0.072579384,-2.3502212,0.9351108,-41.475212,14.994129,-12.461252,-1.307083,1.374244,-2.8818,-28.378868,-8.492559,-2.285452
506,593106216,-209.94502,5.7623672,161.63118,0.28831768,-2.2333076,0.93459857,-38.43103,8.78689,-12.4348545,-1.302278,1.337022,-2.866223,-29.019385,-8.346111,-2.4927
507,593122883,-201.21367,5.5678635,163.20575,0.6779661,-2.1539207,0.9245486,-34.273407,2.8854153,-12.503154,-1.290979,1.301123,-2.850814,-29.590608,-8.298021,-2.701086
508,593139550,-189.59247,5.389244,164.65646,1.1631384,-1.9489661,0.90646064,-29.013245,-5.8572173,-11.818814,-1.271593,1.26864,-2.835706,-30.074162,-8.395641,-2.898066
509,593156217,-175.64297,5.2042236,166.42354,1.7312984,-1.6576747,0.8797424,-22.52354,-16.713469,-10.581549,-1.242738,1.241012,-2.821044,-30.449554,-8.674199,-3.074425
510,593172884,-156.84048,5.1905823,167.63034,2.0834808,-1.4370714,0.7502897,-17.951889,-23.552378,-9.688714,-1.208013,1.217061,-2.808539,-30.748752,-9.066739,-3.235904
511,593189551,-132.49756,5.3740845,168.05267,2.2003365,-1.2803996,0.50845724,-15.5534315,-26.202621,-9.110259,-1.171341,1.195721,-2.800065,-31.007976,-9.503449,-3.387742
512,593206218,-104.11589,5.655472,168.4555,2.2160196,-1.138094,0.19759488,-13.715816,-27.106575,-8.541822,-1.134407,1.176753,-2.796772,-31.236573,-9.955225,-3.530106
513,593222885,-70.775055,6.0881195,168.5638,2.048791,-1.0470861,-0.20978165,-13.296395,-24.663277,-8.196045,-1.10026,1.159302,-2.800268,-31.45818,-10.36628,-3.666707
514,593239552,-33.220848,6.5877533,168.6542,1.8904724,-0.8721968,-0.6600553,-12.444261,-23.27987,-7.307982,-1.068752,1.144765,-2.811269,-31.665584,-10.754278,-3.788507
515,593256219,8.604946,7.149475,168.80278,1.7509575,-0.6063497,-1.1516564,-11.016967,-23.174685,-5.833344,-1.039569,1.134659,-2.830463,-31.8492,-11.140523,-3.885729
516,593272886,56.01795,7.8643723,168.63222,1.4626312,-0.3466132,-1.7366974,-10.678426,-20.773417,-4.3237586,-1.015192,1.128882,-2.859408,-32.027174,-11.486747,-3.957792
517,593289553,109.019745,8.717842,168.21207,1.0639706,-0.06269197,-2.4058585,-11.038484,-16.996271,-2.6057794,-0.997459,1.127837,-2.899506,-32.211149,-11.770018,-4.001222
518,593306220,145.44716,9.249489,168.25017,0.76581097,0.14970881,-2.806253,-8.959577,-13.98598,-1.9012625,-0.984695,1.130332,-2.946277,-32.360475,-12.003118,-4.03291
519,593322887,163.39175,9.428925,168.7566,0.56519413,0.27109143,-2.9108005,-4.3567953,-11.4945345,-2.3898773,-0.975275,1.13485,-2.99479,-32.433088,-12.194694,-4.072741
520,593339554,173.41014,9.466537,169.44109,0.3857727,0.368423,-2.8808384,1.5411777,-9.108538,-3.3719487,-0.968845,1.14099,-3.042804,-32.407402,-12.346503,-4.12894
521,593356221,169.27852,9.23674,170.4814,0.2789564,0.41200206,-2.618032,9.555075,-7.287862,-5.2129703,-0.964196,1.147857,-3.086438,-32.248151,-12.467967,-4.215823
522,593372888,164.29137,9.032494,171.39038,0.07592487,0.43345645,-2.3415256,17.443775,-3.832152,-7.3420806,-0.962931,1.155081,-3.125463,-31.957421,-12.531836,-4.338191
523,593389555,159.14323,8.869972,172.1383,-0.23295116,0.43700483,-2.0618403,25.10366,1.350261,-9.720813,-0.966814,1.162364,-3.159827,-31.539027,-12.509332,-4.500205
524,593406222,141.65,8.492935,173.11661,-0.52141,0.37975976,-1.5820239,34.36133,6.810998,-12.968039,-0.975504,1.168693,-3.186194,-30.966338,-12.395815,-4.716339
525,593422889,114.39957,7.9607315,174.2201,-0.8269777,0.2672257,-0.9448023,44.754288,13.049821,-16.982073,-0.989287,1.173147,-3.201941,-30.220433,-12.178318,-4.999374
526,593439556,99.31772,7.6024246,175.22485,-1.0583849,0.2407853,-0.5341246,51.272564,17.329926,-19.065928,-1.006927,1.17716,-3.210843,-29.36589,-11.889486,-5.317139
527,593456223,96.74863,7.4145126,176.15631,-1.1926374,0.30628476,-0.35907245,53.644707,19.252249,-19.055977,-1.026804,1.182265,-3.216828,-28.471812,-11.568615,-5.634739
528,593472890,97.81401,7.277893,177.04852,-1.2992487,0.39868423,-0.26321352,53.922195,20.479542,-18.176563,-1.048458,1.18891,-3.221215,-27.573109,-11.227289,-5.937682
529,593489557,108.07062,7.273407,177.8518,-1.348362,0.55456746,-0.34537935,50.733627,20.21003,-15.698565,-1.070931,1.198153,-3.226971,-26.727549,-10.890455,-6.199325
530,593506224,111.3519,7.140007,178.79507,-1.3614578,0.6796727,-0.3273319,47.452168,19.678806,-13.361496,-1.093622,1.209481,-3.232427,-25.93668,-10.562475,-6.422017
531,593522891,106.68643,6.8633423,179.88431,-1.3421783,0.7671721,-0.19330049,44.206287,19.004158,-11.264755,-1.115992,1.222267,-3.235649,-25.199909,-10.245739,-6.609763
532,593539558,106.78386,6.640259,180.96536,-1.2519073,0.89479554,-0.16574824,38.093098,16.853544,-7.905325,-1.136857,1.23718,-3.238411,-24.565024,-9.964847,-6.741518
533,593556225,108.11543,6.413254,182.08778,-1.0934019,1.0418698,-0.18501377,29.770962,13.467121,-3.6399894,-1.15508,1.254544,-3.241495,-24.068841,-9.740395,-6.802184
534,593572892,110.043274,6.1931076,182.89597,-1.0066862,1.1007518,-0.14710271,24.47155,11.553322,-0.82155764,-1.171858,1.27289,-3.243947,-23.660982,-9.54784,-6.815877
535,593589559,114.0125,6.0027695,183.33855,-0.9970703,1.0700786,-0.06901121,22.299824,11.159248,0.52168477,-1.188476,1.290725,-3.245097,-23.289318,-9.361853,-6.807182
536,593606226,117.901,5.7965775,183.61765,-0.9975128,0.98623013,0.04038763,21.177536,11.127796,1.2751108,-1.205101,1.307162,-3.244424,-22.936359,-9.17639,-6.78593
537,593622893,121.97308,5.5832977,183.62729,-1.04358,0.8210038,0.20242643,22.449635,12.138126,0.8367926,-1.222494,1.320845,-3.24105,-22.562198,-8.974088,-6.771983
538,593639560,129.80746,5.405571,183.53146,-1.0419369,0.65551126,0.29953277,22.256556,12.25076,0.97245705,-1.23986,1.33177,-3.236058,-22.191255,-8.769909,-6.755775
539,593656227,141.39395,5.2610245,183.34099,-0.98468494,0.4921669,0.3284986,20.38948,11.330735,1.7678083,-1.256271,1.339973,-3.230583,-21.85143,-8.581063,-6.726312
540,593672894,155.33345,5.137581,182.87706,-0.9475746,0.265757,0.36417758,19.913624,10.90525,1.830284,-1.272064,1.344402,-3.224513,-21.519536,-8.399309,-6.695807
541,593689561,172.4929,5.0450287,182.16862,-0.9093342,-0.007580355,0.38041937,20.003754,10.541286,1.5334376,-1.28722,1.344276,-3.218173,-21.18614,-8.223621,-6.67025
542,593706228,175.72554,4.8827896,181.6432,-0.77518654,-0.13794509,0.42857838,20.783627,10.189735,1.6562332,-1.30014,1.341977,-3.21103,-20.839746,-8.053792,-6.642646
543,593722895,163.36757,4.642601,181.31158,-0.54414654,-0.11478314,0.5198925,22.646236,10.021105,2.1049018,-1.309209,1.340064,-3.202365,-20.462309,-7.886774,-6.607564
544,593739562,144.22368,4.380455,180.98389,-0.2454176,-0.017159522,0.6104541,24.984196,9.7538595,2.7617536,-1.313299,1.339778,-3.192191,-20.045906,-7.72421,-6.561535
545,593756229,113.477356,4.0696564,180.76799,0.14614296,0.20686087,0.71536696,27.955902,9.422561,3.797061,-1.310863,1.343226,-3.180268,-19.579974,-7.567167,-6.498251
546,593772896,80.74382,3.7656708,180.36223,0.55863667,0.42952588,0.8231661,32.29465,9.425317,4.393298,-1.301552,1.350385,-3.166549,-19.04173,-7.410078,-6.425029
547,593789563,46.660976,3.4743423,179.7442,0.9908457,0.6455951,0.9294763,38.01382,9.751627,4.526074,-1.285038,1.361145,-3.151058,-18.408166,-7.247551,-6.349594
548,593806230,2.1686134,3.1455536,179.15344,1.5011301,0.9648645,1.0528121,44.939423,10.24715,4.7375913,-1.260019,1.377226,-3.133511,-17.659176,-7.076765,-6.270634
549,593822897,-50.82428,2.7918243,178.52214,2.0757742,1.3621712,1.19006,53.274323,11.0033655,4.848071,-1.225423,1.399929,-3.113677,-16.771271,-6.893376,-6.189833
550,593839564,-87.93196,2.5441437,178.15619,2.4100456,1.5650842,1.1730019,57.59537,10.94772,4.706443,-1.185256,1.426014,-3.094127,-15.811348,-6.710914,-6.111392
551,593856231,-108.069786,2.40934,178.11461,2.4810858,1.5617931,0.98754364,57.411823,9.978177,4.345717,-1.143905,1.452044,-3.077668,-14.854484,-6.544611,-6.038963
552,593872898,-121.612,2.3345032,178.2066,2.4236555,1.4653797,0.7105426,55.46784,8.676712,3.7031016,-1.103511,1.476467,-3.065826,-13.93002,-6.399999,-5.977245
553,593889565,-122.074066,2.3554459,178.52888,2.1524076,1.2031094,0.29450357,50.252857,6.748137,2.7402806,-1.067638,1.496519,-3.060918,-13.092472,-6.28753,-5.931574
554,593906232,-126.03047,2.3851013,178.96379,1.8597441,0.9632416,-0.16056657,44.90131,4.7765083,1.6774353,-1.036642,1.512573,-3.063594,-12.344117,-6.207922,-5.903617
555,593922899,-134.35146,2.420395,179.5035,1.5535717,0.7548741,-0.65053344,39.622105,2.8122773,0.49926555,-1.010749,1.525154,-3.074436,-11.683749,-6.161051,-5.895296
556,593939566,-133.15068,2.5366669,180.29762,1.061306,0.42075643,-1.2681348,31.521542,0.30854297,-0.94347554,-0.993061,1.532167,-3.095572,-11.15839,-6.155909,-5.911021
557,593956233,-125.8499,2.7171326,181.32849,0.41978073,-0.0006032586,-1.994667,21.23138,-2.611827,-2.6148257,-0.986065,1.532157,-3.128816,-10.804534,-6.199439,-5.954601
558,593972900,-127.24249,2.8266373,181.62962,-0.017518997,-0.26485765,-2.4129488,14.021149,-4.501108,-3.010501,-0.986357,1.527743,-3.169032,-10.570848,-6.274457,-6.004776
559,593989567,-136.94434,2.8627396,181.1331,-0.24128914,-0.3686205,-2.4952157,9.990802,-5.2914233,-1.997755,-0.990378,1.521599,-3.210619,-10.404335,-6.362647,-6.038072
560,594006234,-150.15518,2.8794327,180.29012,-0.3975048,-0.40257412,-2.427384,7.0304008,-5.5867147,-0.2625047,-0.997003,1.514889,-3.251075,-10.287162,-6.455759,-6.042447
561,594022901,-170.47227,2.842163,178.8362,-0.39495754,-0.30375287,-2.0947769,6.4881797,-4.998353,2.6243172,-1.003586,1.509826,-3.285988,-10.179026,-6.539065,-5.998708
562,594039568,-185.58536,2.851036,177.37622,-0.48834896,-0.2561168,-1.7648721,4.52571,-4.5015078,5.7444816,-1.011725,1.505557,-3.315403,-10.103597,-6.61409,-5.902967
563,594056235,-194.91376,2.9116974,175.94514,-0.69242954,-0.26799187,-1.4507129,0.9291024,-4.141331,9.061729,-1.023265,1.50109,-3.339582,-10.088112,-6.683112,-5.751938
564,594072902,-207.56683,2.945053,174.00949,-0.8029127,-0.19370466,-0.9174497,-1.2479458,-3.0910525,13.422939,-1.036647,1.497862,-3.354873,-10.108911,-6.73463,-5.528222
565,594089569,-220.86061,2.972725,171.69188,-0.87449074,-0.07175705,-0.2181623,-2.8286648,-1.547209,18.656555,-1.051222,1.496666,-3.358509,-10.156055,-6.760417,-5.217279
566,594106236,-229.47264,3.042183,169.96042,-0.96997356,-0.07025185,0.21443021,-4.0613384,-0.95414567,21.29076,-1.067388,1.495495,-3.354935,-10.223744,-6.776319,-4.862433
567,594122903,-233.85492,3.1486893,168.83656,-1.070343,-0.18793836,0.37084496,-4.5935946,-1.3425953,21.106424,-1.085227,1.492363,-3.348754,-10.300304,-6.798696,-4.510659
568,594139570,-234.60548,3.2846222,167.93932,-1.1826782,-0.37124532,0.423351,-4.859206,-2.1539083,19.642822,-1.104938,1.486176,-3.341698,-10.381291,-6.834594,-4.183279
569,594156237,-230.42601,3.460823,167.51912,-1.317009,-0.6629088,0.26035082,-4.8094206,-3.762629,15.950872,-1.126888,1.475128,-3.337359,-10.461448,-6.897304,-3.917431
570,594172904,-226.6634,3.6296692,166.87096,-1.3841991,-0.927161,0.19788855,-3.5054274,-5.105594,12.280453,-1.149958,1.459675,-3.334061,-10.519872,-6.982397,-3.712757
571,594189571,-223.31622,3.7901459,165.95912,-1.3819075,-1.1593041,0.25277287,-0.9283571,-6.1315656,8.743901,-1.17299,1.440353,-3.329848,-10.535345,-7.08459,-3.567025
572,594206238,-216.57349,3.9748383,165.3492,-1.3606758,-1.4637657,0.17246282,2.5435143,-7.6918097,3.3826947,-1.195668,1.415957,-3.326974,-10.492953,-7.212787,-3.510647
573,594222905,-207.48346,4.1736603,164.89264,-1.2998085,-1.8124664,0.02414155,7.147812,-9.563487,-3.3527207,-1.217331,1.385749,-3.326572,-10.373823,-7.372178,-3.566526
574,594239572,-202.94913,4.2940903,164.81717,-1.1891088,-1.9977553,0.0025691986,9.695881,-10.092463,-7.8247814,-1.237149,1.352453,-3.326529,-10.212225,-7.540386,-3.696939
575,594256239,-203.20892,4.329941,165.21866,-1.029808,-2.011344,0.09598577,9.889706,-9.218002,-9.946821,-1.254312,1.318931,-3.324929,-10.047397,-7.694019,-3.862719
576,594272906,-205.69621,4.3172913,165.89403,-0.80973434,-1.9320588,0.25764185,9.441011,-7.5691338,-11.159475,-1.267808,1.28673,-3.320635,-9.890047,-7.820171,-4.04871
577,594289573,-212.26894,4.229912,166.93411,-0.5245199,-1.7036996,0.5337852,7.471782,-4.7013373,-10.519682,-1.27655,1.258335,-3.311739,-9.765517,-7.898527,-4.224038
578,594306240,-217.82089,4.129387,168.36064,-0.19049072,-1.474033,0.7460923,5.7691298,-1.7917292,-10.673538,-1.279725,1.233768,-3.299304,-9.669365,-7.928389,-4.40193
579,594322907,-222.17656,4.016922,170.1751,0.19652367,-1.247964,0.8889197,4.483077,1.1182578,-11.7560005,-1.27645,1.212969,-3.284489,-9.594647,-7.909751,-4.597863
580,594339574,-229.5251,3.8377457,172.46027,0.6506119,-0.90186965,1.0895828,1.9619093,5.008648,-11.641145,-1.265606,1.197938,-3.266329,-9.561949,-7.826274,-4.791882
581,594356241,-238.84958,3.602974,175.23581,1.1712179,-0.4647205,1.3100333,-1.4175081,9.646676,-10.886587,-1.246086,1.190193,-3.244495,-9.585574,-7.665496,-4.973325
582,594372908,-241.01205,3.4342346,177.11053,1.51577,-0.1961576,1.3599849,-4.246006,12.389597,-10.15357,-1.220823,1.186924,-3.221829,-9.656341,-7.459003,-5.142551
583,594389575,-235.65991,3.3350677,177.9757,1.663127,-0.10494937,1.2336333,-6.620389,13.105857,-9.237567,-1.193104,1.185175,-3.201268,-9.766681,-7.240572,-5.29651
584,594406242,-226.46017,3.2538528,178.5159,1.728796,-0.08632973,0.9933591,-8.973498,12.89515,-8.192009,-1.164291,1.183736,-3.184712,-9.916239,-7.025653,-5.433043
585,594422909,-210.97707,3.2219772,178.34996,1.6444874,-0.20873895,0.5871025,-10.99216,11.043017,-7.117033,-1.136883,1.180257,-3.174927,-10.099442,-6.841603,-5.55166
586,594439576,-195.66248,3.152069,178.3206,1.5575638,-0.28682736,0.15722907,-13.924951,9.350027,-5.0630713,-1.110924,1.175477,-3.172307,-10.331525,-6.685769,-5.636045
587,594456243,-180.80452,3.0386887,178.48439,1.4757023,-0.31154215,-0.29405332,-17.847736,7.8967032,-1.9950871,-1.086329,1.170285,-3.177208,-10.628987,-6.554157,-5.669296
588,594472910,-161.05946,2.9518585,178.08861,1.264432,-0.43447655,-0.8849678,-21.898735,5.156701,1.5596367,-1.065255,1.163044,-3.191957,-10.993966,-6.468212,-5.643302
589,594489577,-137.74077,2.8726044,177.30708,0.95251083,-0.6171851,-1.5888519,-26.368622,1.4914557,5.82878,-1.04938,1.152758,-3.218438,-11.433443,-6.443354,-5.546156
590,594506244,-118.698746,2.7743225,176.42188,0.7353306,-0.7116438,-2.023271,-27.222382,-0.3561952,7.858126,-1.037124,1.140897,-3.252159,-11.887149,-6.449291,-5.415187
591,594522911,-104.00363,2.66288,175.35248,0.6120062,-0.72283065,-2.1667411,-23.97202,-0.3225838,7.3270307,-1.026924,1.12885,-3.288271,-12.286683,-6.454667,-5.29307
592,594539578,-90.78734,2.5378647,174.07007,0.506567,-0.6956918,-2.1838002,-18.728107,0.5231148,5.808401,-1.018481,1.117255,-3.324668,-12.598818,-6.445948,-5.196263
593,594556245,-81.059006,2.3942413,172.61298,0.46686172,-0.59436893,-1.970542,-10.31017,2.893799,2.4623837,-1.0107,1.107349,-3.35751,-12.770654,-6.397718,-5.155223
594,594572912,-68.815414,2.2651062,170.61157,0.3412304,-0.5452957,-1.7830708,-0.840394,4.780507,-1.117777,-1.005013,1.098261,-3.387228,-12.784661,-6.318043,-5.173853
595,594589579,-53.78257,2.1511536,168.03786,0.11998558,-0.55388176,-1.6336894,9.565979,6.085817,-4.820262,-1.003013,1.08903,-3.414456,-12.625228,-6.216613,-5.254191
596,594606246,-40.667503,2.0321884,165.08917,-0.082261086,-0.52738893,-1.3033149,23.041624,8.423304,-10.186378,-1.004384,1.08024,-3.436178,-12.241201,-6.076225,-5.423964
597,594622913,-28.205555,1.915596,161.66788,-0.29961205,-0.49320185,-0.8435304,39.19886,11.372298,-16.902353,-1.009378,1.07202,-3.450237,-11.587887,-5.886687,-5.70567
598,594639580,-14.117153,1.7882385,149.28008,-0.50790215,-0.4072808,-0.5287273,49.353294,12.953749,-20.70819,-1.017843,1.065232,-3.459049,-10.765332,-5.670791,-6.050807
599,594656247,1.2447815,1.6473389,127.049995,-0.69236755,-0.25492495,-0.35563076,52.983337,13.172529,-21.414001,-1.029382,1.060983,-3.464976,-9.882276,-5.451249,-6.407707
600,594672914,17.646984,1.5047302,98.85871,-0.88890076,-0.075931,-0.2263422,53.98397,12.682382,-20.848682,-1.044197,1.059717,-3.468748,-8.982543,-5.239876,-6.755185
601,594689581,35.56229,1.3566895,62.21722,-1.0875626,0.14509293,-0.20832062,50.00279,10.97843,-17.881817,-1.062323,1.062135,-3.47222,-8.149163,-5.056902,-7.053215
602,594706248,52.420437,1.2059784,22.005445,-1.2749119,0.40667984,-0.08180034,46.67841,9.63099,-15.400105,-1.083572,1.068913,-3.473583,-7.37119,-4.896385,-7.309883
603,594722915,68.14482,1.0539398,-21.6446,-1.4532938,0.70696115,0.16500038,44.319027,8.697498,-13.560672,-1.107794,1.080696,-3.470833,-6.63254,-4.751427,-7.535894
604,594739582,84.3772,0.8962097,-73.47043,-1.6199312,1.0613307,0.36680567,38.05647,6.961069,-9.946734,-1.134793,1.098385,-3.46472,-5.998266,-4.635409,-7.701673
605,594756249,100.54306,0.733696,-132.62892,-1.7716498,1.4706032,0.5719158,29.040176,4.7468243,-5.1575418,-1.16432,1.122895,-3.455188,-5.514263,-4.556295,-7.787632
606,594772916,114.21991,0.6263809,-173.87589,-1.8254805,1.6819247,0.7532122,23.470829,3.0864863,-1.8636265,-1.194745,1.150927,-3.442634,-5.123083,-4.504854,-7.818692
607,594789583,125.28818,0.57980347,-195.45593,-1.770401,1.6739689,0.88959396,21.289738,1.932698,-0.010393739,-1.224252,1.178826,-3.427807,-4.768254,-4.472642,-7.818865
608,594806250,134.44124,0.5666275,-208.84752,-1.641613,1.5676613,1.0278013,20.283302,1.0137948,1.2771031,-1.251612,1.204954,-3.410677,-4.430199,-4.455745,-7.79758
609,594822917,140.97572,0.60406494,-207.10521,-1.4130163,1.2923381,1.1552194,21.983831,0.5794015,1.3427812,-1.275162,1.226493,-3.391423,-4.063802,-4.446088,-7.7752
610,594839584,146.66605,0.6572113,-206.24884,-1.1308117,0.99860036,1.2462064,21.472713,-0.2975781,2.3784995,-1.294009,1.243136,-3.370653,-3.705923,-4.451048,-7.735558
611,594856251,151.4828,0.72488403,-207.10785,-0.7942467,0.6946149,1.303079,18.49346,-1.6486471,4.4838233,-1.307246,1.254713,-3.348935,-3.397699,-4.478525,-7.660828
612,594872918,153.86974,0.8402405,-195.5594,-0.35484695,0.24241701,1.3260593,16.770317,-2.8028636,6.0192995,-1.31316,1.258753,-3.326834,-3.118194,-4.525239,-7.560506
613,594889585,154.1157,0.996994,-174.80074,0.181036,-0.32850754,1.3087128,15.23,-3.9579206,7.4581122,-1.310143,1.253278,-3.305022,-2.864361,-4.591204,-7.436204
614,594906252,145.12479,1.1043167,-154.81909,0.5823393,-0.6602799,1.2496573,15.510576,-4.8636894,8.189953,-1.300437,1.242273,-3.284194,-2.605851,-4.672265,-7.299705
615,594922919,125.89311,1.1585159,-134.53935,0.8352957,-0.7376023,1.1452496,18.202251,-5.420267,7.966203,-1.286515,1.22998,-3.265107,-2.30248,-4.762603,-7.166935
616,594939586,99.842636,1.1993561,-111.11081,1.047615,-0.711975,0.98926336,21.790668,-5.881644,7.400041,-1.269055,1.218114,-3.248619,-1.939302,-4.86063,-7.043601
617,594956253,64.7742,1.2030334,-86.57768,1.1573734,-0.4884416,0.778296,26.867062,-6.155862,6.2632165,-1.249765,1.209973,-3.235647,-1.491518,-4.963228,-6.939214
618,594972920,24.188282,1.2321625,-51.139465,1.3153763,-0.3124852,0.51157427,33.434853,-6.209221,4.482595,-1.227842,1.204765,-3.227121,-0.93427,-5.066715,-6.864504
619,594989587,-21.894562,1.2906494,-4.1035113,1.5314322,-0.19704469,0.18516243,41.433613,-6.0525136,2.0811725,-1.202318,1.201481,-3.224035,-0.24371,-5.16759,-6.829818
620,595006254,-77.32487,1.3269577,48.219845,1.6770058,0.06246981,-0.20601273,51.4335,-5.6136355,-1.1274669,-1.174368,1.202522,-3.227469,0.613515,-5.261151,-6.848609
621,595022921,-141.60571,1.3544693,108.23341,1.783947,0.41518977,-0.66509175,63.486877,-4.87763,-5.180426,-1.144636,1.209442,-3.238554,1.67163,-5.342445,-6.934949
622,595039588,-186.0516,1.3828583,145.9469,1.8377752,0.6421182,-0.9913876,70.08105,-4.1160865,-7.153244,-1.114006,1.220144,-3.255077,2.839647,-5.411046,-7.05417
623,595056255,-208.50653,1.4064331,157.904,1.8195286,0.74854195,-1.1676402,70.62988,-3.3286824,-6.8173394,-1.083681,1.23262,-3.274538,4.016812,-5.466524,-7.167792
624,595072922,-222.34837,1.4294662,160.10536,1.7560778,0.8051305,-1.2926786,68.773285,-2.3633168,-5.6037874,-1.054413,1.246039,-3.296083,5.163033,-5.505913,-7.261188
625,595089589,-219.64854,1.4524918,143.91782,1.6367769,0.75835264,-1.3106363,62.444954,-1.2797074,-2.7102296,-1.027133,1.258678,-3.317927,6.203782,-5.527241,-7.306358
626,595106256,-218.24852,1.4564667,125.35782,1.4355268,0.78987575,-1.3426232,56.179527,0.10949421,0.10518372,-1.003208,1.271843,-3.340304,7.140107,-5.525416,-7.304605
627,595122923,-219.11932,1.4406738,105.483154,1.1502342,0.907951,-1.3961937,50.260166,1.8322281,2.7278562,-0.984037,1.286976,-3.363574,7.977776,-5.494879,-7.259141
628,595139590,-206.3576,1.414154,68.56554,0.7811947,0.9775448,-1.3616948,40.613033,3.7542572,6.736135,-0.971017,1.303268,-3.386269,8.65466,-5.432308,-7.146872
629,595156257,-183.52417,1.372139,17.688578,0.31942368,1.0380014,-1.2635787,28.158268,5.9275475,11.770459,-0.965693,1.320568,-3.407329,9.123964,-5.333516,-6.950698
630,595172924,-173.1328,1.3453674,-7.012481,-0.015099525,1.0120239,-1.193335,19.133163,7.4482574,15.151169,-0.965945,1.337435,-3.427218,9.44285,-5.209378,-6.698179
631,595189591,-175.11171,1.3368073,-4.0146003,-0.20487213,0.87656593,-1.1438909,13.5738735,8.216592,16.8352,-0.96936,1.352044,-3.446283,9.669081,-5.072435,-6.417592
632,595206258,-180.94643,1.3277435,9.428059,-0.36329365,0.6951978,-1.0863776,9.095122,8.70063,17.865267,-0.975415,1.363631,-3.464389,9.820666,-4.927424,-6.119838
633,595222925,-196.20381,1.3263245,43.81737,-0.4307127,0.4414287,-1.0405996,7.2653675,8.640285,17.555319,-0.982594,1.370988,-3.481732,9.941755,-4.783419,-5.827249
634,595239592,-203.40616,1.3160858,71.49294,-0.5385895,0.12491271,-0.92301965,3.3646135,8.537294,17.87994,-0.99157,1.37307,-3.497116,9.997832,-4.641131,-5.52925
635,595256259,-201.5358,1.2948837,90.82342,-0.6974678,-0.2516789,-0.7279042,-2.8664007,8.421782,18.941841,-1.003194,1.368875,-3.509248,9.950059,-4.500768,-5.213553
636,595272926,-203.90001,1.2776566,124.57296,-0.7905359,-0.71844244,-0.51150274,-7.7614317,7.8097725,19.174265,-1.01637,1.356901,-3.517773,9.820702,-4.370605,-4.893982
637,595289593,-206.63754,1.2604599,166.87212,-0.84594727,-1.2754607,-0.2537949,-12.343892,6.7975225,18.997297,-1.030469,1.335643,-3.522003,9.61497,-4.257313,-4.57736
638,595306260,-207.76299,1.2584076,192.48883,-0.93027115,-1.6476974,-0.065840125,-14.729936,5.8845267,18.187866,-1.045974,1.308181,-3.5231,9.369471,-4.159238,-4.274229
639,595322927,-208.55872,1.2748947,201.79404,-1.0341072,-1.8152164,0.03682077,-14.292018,5.0426135,16.527475,-1.063209,1.277927,-3.522486,9.131271,-4.075194,-3.998771
640,595339594,-207.22873,1.3000946,202.78058,-1.1440077,-1.9103903,0.12209809,-12.61119,4.0857406,14.3985615,-1.082276,1.246087,-3.520451,8.921085,-4.007098,-3.758795
641,595356261,-203.58452,1.3389587,189.1292,-1.2732067,-1.8582656,0.15786088,-9.010489,3.1233442,11.672586,-1.103496,1.215116,-3.51782,8.77091,-3.955042,-3.564252
642,595372928,-202.04489,1.3860703,181.32231,-1.3530273,-1.8276987,0.19650614,-3.62986,1.7241853,8.062734,-1.126046,1.184654,-3.514545,8.710412,-3.926306,-3.429873
643,595389595,-202.51195,1.4411087,180.12502,-1.3797379,-1.8295661,0.24345177,3.4874043,-0.14723349,3.5634818,-1.149042,1.154161,-3.510487,8.768535,-3.92876,-3.370482
644,595406262,-202.69296,1.5115356,169.95056,-1.3968887,-1.7143468,0.2442047,13.073805,-2.1959615,-1.8248103,-1.172323,1.125589,-3.506417,8.986432,-3.965359,-3.400896
645,595422929,-203.52794,1.5966644,155.0904,-1.3881655,-1.5168098,0.20947754,25.171902,-4.5279145,-8.191688,-1.195459,1.100309,-3.502926,9.405964,-4.040824,-3.537424
646,595439596,-204.20952,1.6001892,147.62569,-1.3032894,-1.3801976,0.22290397,31.34032,-5.5719438,-12.689469,-1.21718,1.077306,-3.499211,9.928303,-4.13369,-3.748915
647,595456263,-204.54256,1.5138855,146.90692,-1.1398354,-1.2976089,0.28415328,30.93811,-5.145565,-15.076261,-1.236177,1.055679,-3.494475,10.443938,-4.219449,-4.000186
648,595472930,-205.63596,1.3829193,150.1348,-0.9081173,-1.2227724,0.3597104,28.05405,-4.069116,-16.78615,-1.251312,1.035299,-3.48848,10.911506,-4.287268,-4.279955
649,595489597,-207.30911,1.1802063,160.23973,-0.5929518,-1.1888019,0.46990877,20.375608,-1.8867514,-17.033464,-1.261195,1.015486,-3.480648,11.251099,-4.318714,-4.563846
650,595506264,-209.41713,0.96354675,166.07672,-0.23178387,-1.0722804,0.5517645,13.046043,0.5571263,-17.494654,-1.265058,0.997615,-3.471452,11.468533,-4.309429,-4.855424
651,595522931,-212.14438,0.73573303,167.35416,0.17740631,-0.86608267,0.60096747,6.39423,3.2136807,-18.285654,-1.262101,0.98318,-3.461436,11.575103,-4.255868,-5.160185
652,595539598,-215.47202,0.4436493,172.10802,0.66844463,-0.6578623,0.6653717,-4.1661015,6.9162326,-17.883266,-1.25096,0.972216,-3.450346,11.505668,-4.140597,-5.458239
653,595556265,-219.45427,0.0983963,178.00507,1.2361517,-0.41945338,0.73069835,-17.581936,11.50662,-16.631325,-1.230357,0.965225,-3.438168,11.212636,-3.94882,-5.735428
654,595572932,-217.71179,-0.16033936,176.95898,1.6132612,-0.26290777,0.7075727,-25.349255,14.085025,-15.810502,-1.203469,0.960843,-3.426375,10.790148,-3.71407,-5.998936
655,595589599,-209.622,-0.32665253,169.04927,1.7788973,-0.20797497,0.59188753,-27.26456,14.494455,-15.326438,-1.173821,0.957377,-3.41651,10.335739,-3.472496,-6.254377
656,595606266,-198.26035,-0.4600525,156.4692,1.8572035,-0.18114431,0.41505015,-26.684536,14.017838,-14.780361,-1.142868,0.954358,-3.409592,9.890997,-3.238865,-6.500716
657,595622933,-181.7999,-0.5235901,137.1124,1.7737827,-0.21627438,0.15220332,-21.402798,11.876328,-14.45276,-1.113305,0.950753,-3.407055,9.534284,-3.040926,-6.741595
658,595639600,-164.02737,-0.6132202,117.79486,1.6951199,-0.26927286,-0.13432765,-17.566143,9.9850855,-13.186742,-1.085053,0.946265,-3.409294,9.241515,-2.874508,-6.961374
659,595656267,-145.12532,-0.73417664,98.63619,1.6298132,-0.33518338,-0.44367635,-15.481875,8.44998,-10.906907,-1.057889,0.940679,-3.416689,8.983484,-2.733675,-7.143156
660,595672934,-121.5564,-0.8066864,74.3719,1.4287539,-0.4665874,-0.8296716,-10.194671,5.6386666,-8.400155,-1.034076,0.932903,-3.430517,8.813573,-2.639697,-7.283159
661,595689601,-94.03964,-0.85076904,46.34492,1.1248131,-0.65524966,-1.281007,-2.9938622,1.9453348,-5.3926034,-1.015329,0.921982,-3.451867,8.763675,-2.607275,-7.373036
662,595706268,-69.32996,-0.91290283,21.33752,0.8720455,-0.7532793,-1.5668619,4.1948085,-0.4235406,-3.9146323,-1.000795,0.909427,-3.477981,8.833588,-2.614334,-7.43828
663,595722935,-47.548096,-0.9870987,-0.6587014,0.6635933,-0.7552905,-1.6721013,11.814772,-1.4694121,-4.2364693,-0.989735,0.896839,-3.505849,9.030501,-2.638824,-7.508888
664,595739602,-25.89404,-1.0642853,-21.99944,0.4455967,-0.7274746,-1.6991143,19.934414,-1.9835618,-5.193239,-0.982308,0.884714,-3.534168,9.362741,-2.671883,-7.595442
665,595756269,-6.077854,-1.1540375,-40.966167,0.25336075,-0.6316758,-1.5844891,28.213745,-1.4106982,-7.37656,-0.978085,0.874186,-3.560576,9.83297,-2.695395,-7.718385
666,595772936,16.844913,-1.208046,-63.010468,-0.04493332,-0.56831384,-1.4777644,39.095856,-1.466994,-9.786839,-0.978834,0.864714,-3.585205,10.484568,-2.719845,-7.881499
667,595789603,43.18841,-1.2239838,-88.37505,-0.4581585,-0.5442982,-1.3862143,52.677902,-2.2346036,-12.34401,-0.98647,0.855642,-3.608309,11.362533,-2.757088,-8.087233
668,595806270,69.06244,-1.2330475,-112.88483,-0.89328766,-0.47747684,-1.1791933,67.52281,-2.3896453,-16.07676,-1.001358,0.847684,-3.627962,12.487913,-2.796915,-8.355179
669,595822937,95.55521,-1.2239914,-137.69986,-1.3811893,-0.38977054,-0.88646555,84.20829,-2.2989511,-20.7919,-1.024378,0.841188,-3.642736,13.891385,-2.835231,-8.701711
670,595839604,115.512085,-1.1341171,-155.61528,-1.6598263,-0.2806379,-0.7036058,96.57531,-2.539692,-23.704601,-1.052042,0.836511,-3.654463,15.500973,-2.877559,-9.096788
671,595856271,127.73961,-0.95921326,-165.39021,-1.6941204,-0.13978016,-0.63137925,103.92042,-3.012611,-24.703136,-1.080277,0.834181,-3.664986,17.23298,-2.927769,-9.508507
672,595872938,136.33504,-0.71969604,-171.17401,-1.6303415,0.017800033,-0.5953258,109.59742,-3.6956549,-24.998358,-1.107449,0.834478,-3.674908,19.059604,-2.989363,-9.925146
673,595889605,139.08087,-0.39717102,-170.7167,-1.3913946,0.19557577,-0.64449143,111.84787,-4.7088504,-23.86049,-1.130639,0.837738,-3.68565,20.923735,-3.067844,-10.322821
674,595906272,139.10146,-0.03413391,-167.03584,-1.1072712,0.414039,-0.6290164,113.91141,-5.3746305,-23.187231,-1.149094,0.844639,-3.696134,22.822258,-3.157421,-10.709275
675,595922939,136.549,0.36997223,-160.26654,-0.78683186,0.6735418,-0.54057956,116.02776,-5.680949,-23.092476,-1.162208,0.855865,-3.705144,24.756054,-3.252103,-11.09415
676,595939606,127.78732,0.8539429,-146.78398,-0.29540634,0.96828425,-0.494833,115.017265,-6.059709,-22.006344,-1.167131,0.872003,-3.713391,26.673008,-3.353098,-11.460922
677,595956273,113.30406,1.4110336,-127.03564,0.3428669,1.3037825,-0.45911992,111.51792,-6.3638,-20.33138,-1.161417,0.893733,-3.721043,28.53164,-3.459161,-11.799778
678,595972940,103.72435,1.7374115,-115.75471,0.6984997,1.4781595,-0.44417202,110.4822,-5.7994094,-18.34418,-1.149775,0.918369,-3.728446,30.37301,-3.555818,-12.105514
679,595989607,99.40614,1.808876,-113.70152,0.7509146,1.4721701,-0.46455324,111.9021,-4.321623,-15.867319,-1.13726,0.942905,-3.736189,32.238045,-3.627845,-12.369969
680,596006274,95.45714,1.7652588,-114.01644,0.690588,1.3857126,-0.4926982,113.78868,-2.1921349,-13.03135,-1.12575,0.966,-3.744401,34.134523,-3.664381,-12.587158
681,596022941,94.58319,1.5215454,-120.583755,0.4037075,1.1616731,-0.5355866,117.35232,0.8173517,-9.8446865,-1.119022,0.985361,-3.753327,36.090395,-3.650758,-12.751236
682,596039608,89.44949,1.2656174,-123.69276,0.17745876,0.9159359,-0.61638796,118.83364,4.1433086,-5.7318864,-1.116064,1.000627,-3.7636,38.070956,-3.581703,-12.846767
683,596056275,79.487305,1.0064926,-122.668465,0.029014587,0.6550145,-0.7343997,117.97724,7.7865357,-0.667004,-1.11558,1.011544,-3.77584,40.037243,-3.451927,-12.857884
684,596072942,70.59,0.57450104,-125.657265,-0.28271484,0.27005652,-0.8856008,117.63956,12.24237,5.086228,-1.120292,1.016045,-3.7906,41.997902,-3.247888,-12.773114
685,596089609,61.105183,0.00617218,-130.56532,-0.6973629,-0.21652192,-1.0760021,116.96923,17.414547,11.6766205,-1.131915,1.012436,-3.808533,43.947389,-2.957646,-12.578504
686,596106276,44.910824,-0.38955688,-133.09824,-0.89864254,-0.52092826,-1.1992269,116.57065,20.407885,15.883373,-1.146892,1.003754,-3.82852,45.890233,-2.617515,-12.313781
687,596122943,22.062664,-0.60726166,-133.87567,-0.8864603,-0.63142586,-1.2465928,116.81064,21.008572,17.386992,-1.161666,0.99323,-3.849297,47.837077,-2.267372,-12.023998
688,596139610,-5.7406807,-0.7718735,-133.53517,-0.77046204,-0.6691679,-1.2739775,116.78937,20.529764,17.830364,-1.174507,0.982077,-3.87053,49.783566,-1.925209,-11.726825
689,596156277,-40.087254,-0.8047409,-131.19386,-0.47031498,-0.55922925,-1.252594,116.75393,18.16748,16.30303,-1.182346,0.972757,-3.891407,51.729465,-1.622418,-11.455108
690,596172944,-76.068504,-0.93328094,-131.41704,-0.23195267,-0.49648124,-1.2440317,117.02843,15.748442,14.621716,-1.186212,0.964482,-3.912141,53.679939,-1.359944,-11.211413
691,596189611,-113.605484,-1.1708374,-134.3785,-0.06565285,-0.49172214,-1.2534997,117.551384,13.36095,12.900666,-1.187306,0.956287,-3.933033,55.639129,-1.137261,-10.996402
692,596206278,-156.55414,-1.3379898,-137.14322,0.21975613,-0.38326085,-1.225611,118.39526,9.378957,9.423659,-1.183643,0.949899,-3.95346,57.612383,-0.980945,-10.839341
693,596222945,-203.96135,-1.4841537,-140.74927,0.5727434,-0.21187364,-1.1736026,119.63482,4.16129,4.5473385,-1.174097,0.946368,-3.97302,59.606297,-0.91159,-10.763552
694,596239612,-236.47902,-1.5394669,-143.03447,0.74997234,-0.13915893,-1.1015241,118.91029,0.12358594,1.8320051,-1.161597,0.944049,-3.991379,61.588135,-0.90953,-10.733019
695,596256279,-252.65086,-1.4751511,-143.55237,0.7502003,-0.16011067,-1.0020313,116.038956,-2.7332873,1.3709818,-1.149094,0.94138,-4.00808,63.522118,-0.955085,-10.710169
696,596272946,-260.9602,-1.3574371,-144.11748,0.6533356,-0.22500394,-0.88151956,112.20768,-5.3410826,1.6871918,-1.138205,0.93763,-4.022772,65.392246,-1.044103,-10.682049
697,596289613,-255.97414,-1.1594009,-144.1027,0.39620972,-0.3731075,-0.7382045,106.775345,-7.1005497,3.6977286,-1.131602,0.931412,-4.035075,67.171835,-1.162445,-10.62042
698,596306280,-249.93346,-0.8752289,-144.0797,0.16992569,-0.46806353,-0.5553433,101.120834,-9.873405,4.862139,-1.12877,0.923611,-4.044331,68.857182,-1.327002,-10.539384
699,596322947,-243.31409,-0.5062256,-144.23853,-0.01949501,-0.50404304,-0.33165216,95.345215,-13.771043,5.031603,-1.129095,0.91521,-4.049859,70.446269,-1.556519,-10.455524
700,596339614,-225.11946,-0.028327942,-143.7683,-0.32240677,-0.5816345,-0.07244849,88.20558,-17.370726,6.2492013,-1.134468,0.905516,-4.051066,71.916362,-1.846031,-10.351371
701,596356281,-197.67558,0.5630646,-142.82555,-0.7001085,-0.6713933,0.22723508,79.98925,-21.084621,7.9693475,-1.146136,0.894326,-4.047279,73.249516,-2.197441,-10.218549
702,596372948,-182.93185,1.0118256,-142.01491,-0.92668056,-0.752488,0.43446517,73.590385,-23.637789,8.258534,-1.161581,0.881785,-4.040038,74.476022,-2.591404,-10.080907
703,596389615,-181.40894,1.3009415,-141.26895,-0.99873066,-0.83395183,0.53695834,69.12647,-24.73978,7.1732945,-1.178227,0.867886,-4.031089,75.62813,-3.003734,-9.961352
704,596406282,-184.04468,1.5584793,-140.40524,-0.9977131,-0.90498364,0.60200405,65.41674,-25.2775,5.254355,-1.194856,0.852803,-4.021056,76.718409,-3.425026,-9.873779
705,596422949,-196.47221,1.7162323,-139.54353,-0.86487484,-0.96242094,0.5924322,63.23237,-24.837624,2.0217109,-1.209271,0.836763,-4.011182,77.772282,-3.838986,-9.840084
706,596439616,-202.7626,1.9326401,-138.18182,-0.7724943,-1.0440699,0.5852259,60.578922,-23.799921,-0.88651675,-1.222146,0.819362,-4.001428,78.781931,-4.235651,-9.854859
707,596456283,-201.96884,2.2202988,-136.28241,-0.7275114,-1.1494015,0.5854354,57.36487,-22.203375,-3.4210749,-1.234271,0.800205,-3.991671,79.738012,-4.605707,-9.911877
708,596472950,-206.78374,2.4421463,-134.1782,-0.5932112,-1.257311,0.5218517,55.257828,-19.469484,-6.808405,-1.244158,0.77925,-3.982973,80.658976,-4.930198,-10.02535
709,596489617,-213.76091,2.6326141,-131.74655,-0.40513992,-1.375792,0.4099278,53.852806,-15.648542,-10.708857,-1.25091,0.75632,-3.976141,81.556523,-5.191007,-10.203831
710,596506284,-217.23651,2.8304825,-129.64247,-0.20648098,-1.4681518,0.36125386,50.47056,-13.213302,-13.341894,-1.254351,0.731851,-3.97012,82.397699,-5.411229,-10.426196
711,596522951,-218.18173,3.0214996,-127.95512,0.016112328,-1.5292237,0.3763712,45.068283,-12.286354,-14.672568,-1.254082,0.706364,-3.963847,83.148837,-5.616002,-10.670739
712,596539618,-216.91977,3.2098465,-126.27819,0.26019,-1.5822098,0.41168582,38.653545,-11.695333,-15.308851,-1.249745,0.679994,-3.956986,83.793063,-5.810924,-10.925887
