PacketCounter,SampleTimeFine,Euler_X,Euler_Y,Euler_Z,Acc_X,Acc_Y,Acc_Z,Gyr_X,Gyr_Y,Gyr_Z,Velo_X,Velo_Y,Velo_Z,ANG_X,ANG_Y,ANG_Z
0,733553158,30.677544,-48.682755,21.527859,7.1143603,0.27765512,-4.336665,4.433379,4.4084806,-5.838298,0.0,0.0,0.0,0.0,0.0,0.0
1,733569825,30.801872,-48.58549,21.523842,7.068446,0.46374226,-4.553165,4.724798,4.1868153,-5.024988,0.117807,0.007729,-0.075886,0.078747,0.06978,-0.08375
2,733586492,30.931206,-48.485275,21.519161,7.0170903,0.6654434,-4.7895603,5.068204,3.95465,-4.1642723,0.234759,0.01882,-0.155712,0.163217,0.135691,-0.153155
3,733603159,31.063377,-48.383827,21.513813,6.9609776,0.87977076,-5.0424767,5.4606657,3.7157567,-3.2669423,0.350775,0.033483,-0.239753,0.254228,0.19762,-0.207604
4,733619826,31.241753,-48.246376,21.507736,6.8861237,1.1672411,-5.3805075,5.9658976,3.3941674,-2.1045463,0.465544,0.052937,-0.329428,0.35366,0.254189,-0.24268
5,733636493,31.456718,-48.08074,21.500889,6.7951717,1.5154786,-5.789866,6.574711,3.0065238,-0.7262845,0.578797,0.078195,-0.425926,0.463239,0.304298,-0.254785
6,733653160,31.642769,-47.96736,21.436642,6.731591,1.7361326,-6.070012,7.05264,2.4086208,0.42974067,0.69099,0.107131,-0.527093,0.580783,0.344442,-0.247623
7,733669827,31.799782,-47.909294,21.309124,6.69747,1.8196101,-6.2115397,7.3880606,1.5739532,1.3540127,0.802615,0.137458,-0.630619,0.703917,0.370675,-0.225056
8,733686494,31.953072,-47.8733,21.144753,6.6736703,1.847775,-6.3014646,7.688484,0.5789356,2.2252655,0.913843,0.168254,-0.735643,0.832058,0.380324,-0.187968
9,733703161,32.08634,-47.880646,20.92699,6.6717367,1.7701354,-6.286447,7.892103,-0.6234007,2.9312153,1.025039,0.197756,-0.840417,0.963593,0.369934,-0.139114
10,733719828,32.249992,-47.875015,20.688202,6.66241,1.7129755,-6.3023424,8.154587,-1.9732547,3.7915359,1.136079,0.226306,-0.945456,1.099503,0.337046,-0.075922
11,733736495,32.446968,-47.853554,20.42942,6.6439857,1.6830378,-6.3567066,8.486359,-3.471026,4.82483,1.246812,0.254357,-1.051401,1.240942,0.279196,0.004492
12,733753162,32.63871,-47.86273,20.119305,6.6410074,1.5734296,-6.3356876,8.757105,-5.1924424,5.776981,1.357495,0.280581,-1.156996,1.386894,0.192655,0.100775
13,733769829,32.836327,-47.89086,19.763535,6.6473455,1.4101248,-6.2675614,9.000219,-7.130897,6.717017,1.468284,0.304083,-1.261455,1.536898,0.073807,0.212725
14,733786496,32.980965,-47.881107,19.442368,6.638235,1.3263373,-6.248628,8.438305,-8.564444,7.6416187,1.578921,0.326189,-1.365599,1.677536,-0.068934,0.340085
15,733803163,33.062218,-47.83387,19.158543,6.614444,1.3208933,-6.273311,6.974284,-9.436283,8.519329,1.689162,0.348204,-1.470154,1.793774,-0.226205,0.482074
16,733819830,33.115425,-47.7684,18.87685,6.583688,1.347394,-6.314267,4.9932327,-10.08703,9.398207,1.79889,0.370661,-1.575392,1.876995,-0.394322,0.638711
17,733836497,33.122276,-47.6704,18.61802,6.5399637,1.4389868,-6.393836,2.2627096,-10.316366,10.267497,1.907889,0.394644,-1.681956,1.914707,-0.566261,0.809836
18,733853164,33.106865,-47.585194,18.325855,6.5040913,1.489696,-6.425766,-0.8065462,-10.567522,11.063577,2.016291,0.419472,-1.789052,1.901265,-0.742386,0.994229
19,733869831,33.070717,-47.51472,17.996658,6.4769917,1.4944386,-6.4059873,-4.2011857,-10.864885,11.785808,2.124241,0.444379,-1.895818,1.831245,-0.923467,1.190659
20,733886498,32.984657,-47.42429,17.67588,6.443317,1.5338078,-6.3954062,-8.342275,-10.810114,12.452542,2.23163,0.469942,-2.002408,1.692207,-1.103636,1.398201
21,733903165,32.852455,-47.3235,17.351269,6.4075813,1.5849733,-6.374783,-13.160923,-10.491325,13.046954,2.338423,0.496358,-2.108654,1.472858,-1.278491,1.61565
22,733919832,32.874672,-47.180267,16.940517,6.390368,1.5705914,-6.3975267,-13.683573,-11.586588,13.686541,2.444929,0.522535,-2.215279,1.244798,-1.471601,1.843759
23,733936499,33.06594,-46.987118,16.440758,6.392104,1.4920716,-6.4750733,-9.476595,-14.208176,14.378923,2.551464,0.547403,-2.323197,1.086855,-1.708404,2.083408
24,733953166,33.33306,-46.76548,15.882169,6.406333,1.3699026,-6.568316,-2.8427181,-17.620863,15.05245,2.658236,0.570235,-2.432669,1.039476,-2.002085,2.334282
25,733969833,33.731224,-46.504734,15.242547,6.438619,1.1842308,-6.6938596,7.6277714,-22.288149,15.736303,2.765546,0.589972,-2.544233,1.166606,-2.373554,2.596554
26,733986500,34.13584,-46.21399,14.580501,6.4732666,1.000155,-6.8357863,18.947348,-27.134363,16.362646,2.873434,0.606641,-2.658163,1.482395,-2.825793,2.869265
27,734003167,34.54,-45.89379,13.897733,6.510041,0.81887245,-6.9914775,30.98599,-32.111893,16.92136,2.981935,0.620289,-2.774688,1.998828,-3.360991,3.151288
28,734019834,35.054665,-45.529385,13.145251,6.561797,0.59046125,-7.18395,46.505066,-38.16972,17.468803,3.091298,0.63013,-2.89442,2.773912,-3.997153,3.442435
29,734036501,35.65484,-45.12164,12.334416,6.625573,0.32782793,-7.410374,64.94078,-45.097706,17.987305,3.201724,0.635594,-3.017926,3.856258,-4.748781,3.742223
30,734053168,36.363487,-44.683662,11.562207,6.6758604,0.15408516,-7.5235505,76.54022,-49.816395,18.486319,3.312988,0.638162,-3.143319,5.131928,-5.579054,4.050328
31,734069835,37.19953,-44.213177,10.83141,6.7119427,0.07530594,-7.5130515,80.74716,-52.15318,18.9721,3.424854,0.639417,-3.268537,6.477714,-6.448274,4.36653
32,734086502,38.13813,-43.70307,10.103095,6.7441263,0.041876793,-7.4471974,81.840805,-53.432186,19.426104,3.537256,0.640115,-3.392657,7.841727,-7.33881,4.690298
33,734103169,39.192863,-43.155037,9.402589,6.765767,0.087310314,-7.285621,77.18041,-52.817078,19.851835,3.650019,0.64157,-3.514084,9.128067,-8.219095,5.021162
34,734119836,40.38256,-42.55589,8.65961,6.7954884,0.12639475,-7.1195464,73.195595,-52.351776,20.253407,3.763277,0.643677,-3.632743,10.347994,-9.091625,5.358719
35,734136503,41.71073,-41.90313,7.8705626,6.8342786,0.15582657,-6.954042,70.21776,-52.133476,20.628315,3.877182,0.646274,-3.748644,11.51829,-9.960516,5.702524
36,734153170,43.184166,-41.203426,7.0922356,6.867169,0.2478075,-6.7080865,62.727898,-50.406967,20.977198,3.991635,0.650404,-3.860445,12.563755,-10.800632,6.052144
37,734169837,44.81144,-40.45242,6.3098574,6.8981056,0.3855071,-6.399984,52.03047,-47.58234,21.300009,4.106603,0.656829,-3.967111,13.43093,-11.593671,6.407144
38,734186504,45.97561,-39.766273,5.496337,6.83475,0.44370508,-6.20614,44.356407,-46.088814,21.780064,4.220516,0.664224,-4.070547,14.170203,-12.361818,6.770145
39,734203171,46.620064,-39.15621,4.6562347,6.6656933,0.42002916,-6.132639,39.556923,-45.922047,22.436264,4.331611,0.671224,-4.172758,14.829485,-13.127185,7.144083
40,734219838,47.0447,-38.56344,3.7926817,6.436674,0.3633356,-6.1074696,35.49401,-46.185905,23.182503,4.438889,0.67728,-4.274549,15.421052,-13.89695,7.530458
41,734236505,47.07531,-38.020714,2.9003143,6.120152,0.24137211,-6.177052,33.671997,-47.486504,24.072153,4.540892,0.681303,-4.3775,15.982252,-14.688392,7.931661
42,734253172,47.074287,-37.46077,2.009964,5.764965,0.1470356,-6.2172017,28.960752,-47.92861,24.999,4.636975,0.683754,-4.48112,16.464931,-15.487202,8.348311
43,734269839,47.061134,-36.879356,1.122839,5.3727484,0.0850997,-6.2216744,21.083145,-47.41106,25.959244,4.726521,0.685172,-4.584815,16.816317,-16.277386,8.780965
44,734286506,46.69947,-36.339134,0.21970463,4.893565,-0.018210888,-6.2924714,13.824131,-47.38409,27.054832,4.80808,0.684868,-4.68969,17.046719,-17.067121,9.231879
45,734303173,46.05944,-35.826744,-0.6923208,4.3356514,-0.14317131,-6.403804,6.0442457,-47.43511,28.266727,4.880341,0.682482,-4.79642,17.147456,-17.857706,9.702991
46,734319840,45.67051,-35.269135,-1.552247,3.9252148,-0.24552155,-6.4465966,-0.014350891,-47.39842,28.300987,4.945761,0.67839,-4.903863,17.147217,-18.64768,10.174674
47,734336507,45.533684,-34.66856,-2.3550816,3.676292,-0.3299477,-6.4232616,-3.720924,-47.424114,27.042,5.007033,0.672891,-5.010917,17.085202,-19.438082,10.625374
48,734353174,45.437935,-34.051956,-3.123692,3.485839,-0.4041152,-6.3685317,-6.942996,-47.303955,25.086472,5.06513,0.666156,-5.117059,16.969485,-20.226481,11.043482
49,734369841,45.514015,-33.402267,-3.8401341,3.4151402,-0.45815206,-6.2555504,-8.936027,-47.0366,22.065748,5.122049,0.65852,-5.221318,16.820551,-21.010424,11.411244
50,734386508,45.358635,-32.77947,-4.543465,3.317988,-0.5369623,-6.1747503,-10.061321,-47.08492,18.75302,5.177349,0.649571,-5.324231,16.652862,-21.795173,11.723794
51,734403175,44.945595,-32.187668,-5.2336636,3.1860032,-0.6419053,-6.129985,-10.426701,-47.444256,15.179808,5.230449,0.638873,-5.426397,16.479084,-22.585911,11.976791
52,734419842,44.58303,-31.583584,-5.874292,3.1455479,-0.7426908,-6.0536923,-9.158753,-47.89555,10.626602,5.282875,0.626495,-5.527292,16.326438,-23.38417,12.153901
53,734436509,44.180473,-30.98116,-6.4717264,3.1666245,-0.849128,-5.9652686,-6.296254,-48.543484,5.2374234,5.335652,0.612343,-5.626713,16.2215,-24.193228,12.241191
54,734453176,43.801918,-30.18025,-7.108981,3.106915,-0.9115746,-5.915653,-5.291981,-50.87283,0.6997247,5.387434,0.59715,-5.725307,16.1333,-25.041108,12.252853
55,734469843,43.487587,-29.156246,-7.7880073,2.969751,-0.9220736,-5.902363,-6.2832108,-55.0344,-2.9312038,5.43693,0.581782,-5.82368,16.02858,-25.958348,12.204
56,734486510,43.142998,-28.013283,-8.472154,2.8036246,-0.91101384,-5.914936,-7.5978365,-60.421947,-6.375003,5.483657,0.566598,-5.922262,15.901949,-26.96538,12.09775
57,734503177,42.795113,-26.69249,-9.182357,2.5740938,-0.8635013,-5.9660716,-10.113139,-67.4807,-9.193861,5.526559,0.552206,-6.021697,15.733397,-28.090058,11.944519
58,734519844,42.48121,-25.298885,-9.858272,2.3978443,-0.8003466,-6.0090103,-11.559528,-75.31353,-12.5775385,5.566523,0.538867,-6.121847,15.540738,-29.345283,11.734893
59,734536511,42.19584,-23.837814,-10.495428,2.2810102,-0.7233629,-6.04313,-11.740628,-83.91878,-16.598286,5.60454,0.526811,-6.222566,15.345061,-30.743929,11.458255
60,734553178,41.946724,-22.203087,-11.141123,2.1372147,-0.60861945,-6.1028337,-12.508356,-94.16648,-20.29155,5.64016,0.516667,-6.32428,15.136588,-32.31337,11.120063
61,734569845,41.743156,-20.4136,-11.781697,1.99224,-0.4598446,-6.1787634,-13.344533,-105.913864,-23.913118,5.673364,0.509003,-6.427259,14.914179,-34.078601,10.721511
62,734586512,41.035484,-18.640827,-12.367467,1.8540368,-0.37420106,-6.1351433,-13.899597,-113.40075,-27.797066,5.704265,0.502766,-6.529511,14.682519,-35.968613,10.258227
63,734603179,39.77436,-16.883636,-12.8986,1.7141628,-0.35718203,-5.962289,-14.3529,-116.19697,-31.85621,5.732834,0.496813,-6.628882,14.443304,-37.905229,9.72729
64,734619846,38.227486,-15.069496,-13.388551,1.5873117,-0.3646016,-5.7177105,-14.500351,-116.953926,-36.10411,5.759289,0.490736,-6.724177,14.201631,-39.854461,9.125555
65,734636513,36.24038,-13.2393,-13.824224,1.4736013,-0.4224937,-5.3632574,-14.301259,-114.07551,-40.598,5.783849,0.483694,-6.813565,13.963277,-41.755719,8.448922
66,734653180,34.131996,-11.261131,-14.245195,1.3472166,-0.46777964,-4.9866943,-14.386612,-111.16734,-44.89602,5.806303,0.475898,-6.896677,13.7235,-43.608508,7.700655
67,734669847,31.919975,-9.124321,-14.651855,1.2093067,-0.4966631,-4.5909977,-14.749104,-108.41479,-48.985107,5.826458,0.46762,-6.973194,13.477682,-45.415421,6.884237
68,734686514,29.307472,-6.926754,-15.012695,1.0725498,-0.56313086,-4.097912,-15.052281,-102.604744,-53.122673,5.844334,0.458234,-7.041493,13.226811,-47.1255,5.998859
69,734703181,26.356422,-4.6372795,-15.335201,0.9316664,-0.6540649,-3.523964,-15.432613,-94.451004,-57.206345,5.859862,0.447333,-7.100226,12.969601,-48.699683,5.04542
70,734719848,26.413048,-2.5545883,-15.6816845,0.7911253,-0.764421,-3.0850787,-15.714323,-88.63337,-60.323753,5.873047,0.434593,-7.151644,12.707696,-50.176906,4.040024
71,734736515,29.77459,-0.71863556,-16.053999,0.65199184,-0.90117955,-2.7910762,-15.862357,-85.147125,-62.39425,5.883914,0.419573,-7.198162,12.443323,-51.596025,3.00012
72,734753182,34.90925,1.0339661,-16.427208,0.5081434,-1.0586114,-2.549443,-16.065868,-82.20226,-63.76129,5.892383,0.401929,-7.240653,12.175559,-52.966063,1.937432
73,734769849,42.771095,2.6148071,-16.817638,0.360569,-1.2380884,-2.4176345,-16.281267,-80.95846,-64.15338,5.898392,0.381294,-7.280947,11.904205,-54.315371,0.868209
74,734786516,51.3574,4.1740494,-17.179758,0.2104168,-1.4572737,-2.247845,-16.52388,-77.79979,-64.14671,5.901899,0.357006,-7.318411,11.628807,-55.612034,-0.200903
75,734803183,60.589806,5.7207336,-17.511276,0.05669689,-1.7174804,-2.03211,-16.82191,-72.51271,-63.738464,5.902844,0.328381,-7.352279,11.348442,-56.820579,-1.263211
76,734819850,72.332664,7.0994034,-17.848942,-0.10065842,-2.0125167,-1.8938675,-17.138508,-67.85733,-62.382927,5.901166,0.294839,-7.383843,11.0628,-57.951535,-2.302926
77,734836517,86.21487,8.337288,-18.183195,-0.26185417,-2.3475168,-1.8024292,-17.488258,-63.034184,-60.171593,5.896802,0.255714,-7.413883,10.771329,-59.002105,-3.305786
78,734853184,87.90916,9.707138,-17.40762,-0.4719658,-2.4771838,-1.7655559,-15.840738,-58.963802,-59.478676,5.888936,0.214428,-7.443309,10.507317,-59.984835,-4.297097
79,734869851,76.248955,11.20932,-15.413088,-0.7358141,-2.3775196,-1.8008299,-11.986227,-56.05,-60.447403,5.876672,0.174803,-7.473323,10.307547,-60.919002,-5.304554
80,734886518,57.754723,12.72731,-12.710581,-1.0327568,-2.168404,-1.885479,-6.8904786,-53.298676,-61.995224,5.859459,0.138663,-7.504748,10.192706,-61.807313,-6.337808
81,734903185,28.393105,14.327126,-8.979404,-1.3760824,-1.7798634,-2.027953,0.036052704,-51.05946,-64.76315,5.836524,0.108999,-7.538547,10.193307,-62.658304,-7.417194
82,734919852,-3.0546875,15.803818,-4.862492,-1.7407694,-1.3528805,-2.257727,7.6225843,-49.485737,-67.19683,5.807511,0.086451,-7.576176,10.32035,-63.483066,-8.537141
83,734936519,-36.20826,17.141273,-0.38154984,-2.1262474,-0.89460874,-2.577069,15.823364,-48.53219,-69.20451,5.772074,0.071541,-7.619127,10.584073,-64.291936,-9.69055
84,734953186,-79.073166,18.494278,5.0782127,-2.5573626,-0.2717185,-2.9819283,25.761381,-48.461666,-72.11831,5.729451,0.067012,-7.668826,11.013429,-65.09963,-10.892522
85,734969853,-129.97682,19.815071,11.401954,-3.0299377,0.48907375,-3.481845,37.224564,-49.334507,-75.61614,5.678952,0.075163,-7.726857,11.633838,-65.921872,-12.152791
86,734986520,-163.18951,20.77594,16.085522,-3.2747135,0.86923313,-3.7064471,38.76136,-46.046143,-74.52889,5.624373,0.08965,-7.788631,12.279861,-66.689308,-13.394939
87,735003187,-177.33887,21.358627,18.97726,-3.2685404,0.8372493,-3.6220202,29.385244,-38.177296,-68.51053,5.569897,0.103604,-7.848998,12.769615,-67.325596,-14.536781
88,735019854,-183.59692,21.68055,21.198936,-3.1358852,0.6224108,-3.4124088,14.3560295,-28.211073,-59.779816,5.517632,0.113978,-7.905871,13.008882,-67.795781,-15.533111
89,735036521,-175.03076,21.649223,22.07124,-2.8005753,0.08354473,-2.9737701,-9.572138,-14.733694,-46.90178,5.470956,0.11537,-7.955434,12.849346,-68.041343,-16.314807
90,735053188,-168.80339,21.486115,23.22591,-2.4251242,-0.4419706,-2.5223563,-35.489098,-0.781055,-33.200478,5.430537,0.108004,-7.997473,12.257861,-68.054361,-16.868148
91,735069855,-165.80061,21.193413,24.751411,-2.0166922,-0.9370053,-2.071263,-63.103546,13.462875,-18.806618,5.396925,0.092387,-8.031994,11.206135,-67.82998,-17.181592
92,735086522,-151.40804,20.575157,25.239716,-1.425622,-1.6938965,-1.4205301,-98.79191,30.758734,-0.7773812,5.373165,0.064155,-8.05567,9.559603,-67.317334,-17.194548
93,735103189,-129.12592,19.670334,25.02317,-0.68271255,-2.6447458,-0.61297596,-141.25374,50.49849,20.248425,5.361786,0.020076,-8.065886,7.205374,-66.475693,-16.857074
94,735119856,-111.90624,18.709259,24.09531,-0.16282558,-3.2475061,-0.094678044,-166.15436,63.560604,38.163666,5.359072,-0.034049,-8.067464,4.436135,-65.41635,-16.221013
95,735136523,-99.01644,17.68296,22.253792,0.1195755,-3.48894,0.11956072,-172.02394,69.42595,52.795525,5.361065,-0.092198,-8.065471,1.569069,-64.259251,-15.341088
96,735153190,-86.50718,16.501137,19.699444,0.32425594,-3.58283,0.21504545,-169.59479,72.017944,66.65892,5.366469,-0.151912,-8.061887,-1.257511,-63.058952,-14.230106
97,735169857,-77.351234,15.215828,16.350994,0.35276413,-3.3883357,0.07520759,-152.24185,68.85566,78.170265,5.372348,-0.208384,-8.060634,-3.794875,-61.911358,-12.927268
98,735186524,-60.021362,13.629936,11.815101,0.46542072,-3.2993436,0.013443232,-135.85602,65.95069,91.71563,5.380105,-0.263373,-8.06041,-6.059142,-60.81218,-11.398674
99,735203191,-33.88411,11.727066,6.0519943,0.6770592,-3.335478,0.046868443,-121.23979,63.5844,107.541374,5.391389,-0.318964,-8.059629,-8.079805,-59.75244,-9.606318
100,735219858,-7.0253067,9.644371,-0.8567219,0.77347183,-3.1796017,-0.080650926,-94.64453,56.57223,122.1128,5.40428,-0.371957,-8.060973,-9.657214,-58.809569,-7.571105
101,735236525,23.183372,7.333641,-9.039493,0.80962276,-2.914363,-0.30309808,-59.269142,46.114532,136.36502,5.417774,-0.42053,-8.066025,-10.645033,-58.040993,-5.298355
102,735253192,43.482475,5.169174,-14.863798,0.8418007,-2.8276412,-0.45439982,-37.62139,39.64169,145.15141,5.431804,-0.467657,-8.073598,-11.272056,-57.380298,-2.879165
103,735269859,51.76539,3.19973,-18.007915,0.84769154,-2.9080772,-0.5509286,-30.019676,37.16058,147.49452,5.445932,-0.516125,-8.08278,-11.772384,-56.760955,-0.420923
104,735286526,56.209373,1.2116814,-20.312105,0.8363476,-3.0744853,-0.62780285,-27.810635,35.89147,146.41588,5.459871,-0.567366,-8.093243,-12.235895,-56.162764,2.019342
105,735303193,52.85314,-0.68631744,-20.768433,0.8143091,-3.3966513,-0.64831614,-36.75103,37.69335,140.26724,5.473443,-0.623977,-8.104048,-12.848412,-55.534541,4.357129
106,735319860,47.4358,-2.6824265,-21.507889,0.69200516,-3.6240668,-0.77632666,-40.02468,36.813156,131.0613,5.484976,-0.684378,-8.116987,-13.51549,-54.920988,6.541484
107,735336527,40.487556,-4.791771,-22.676783,0.46545982,-3.747434,-1.018378,-36.769302,32.938896,118.868484,5.492734,-0.746835,-8.13396,-14.128312,-54.372006,8.522625
108,735353194,25.564034,-6.8233604,-22.328163,0.18109322,-3.9498825,-1.2640219,-40.25283,30.490072,101.110344,5.495752,-0.812666,-8.155027,-14.799193,-53.863838,10.207797
109,735369861,3.7332306,-8.813984,-20.89695,-0.18342876,-4.1778426,-1.5499337,-46.89308,28.21409,78.05084,5.492695,-0.882297,-8.180859,-15.580744,-53.393603,11.508644
110,735386528,-8.407944,-10.33041,-20.57772,-0.39284897,-4.276046,-1.7409246,-48.199883,24.88628,59.334824,5.486148,-0.953564,-8.209874,-16.384075,-52.978832,12.497558
111,735403195,-10.326828,-11.296112,-21.30457,-0.4228382,-4.24894,-1.8132901,-44.941414,20.89255,45.38497,5.479101,-1.02438,-8.240096,-17.133099,-52.630623,13.253974
112,735419862,-9.368835,-11.931534,-22.3016,-0.40305138,-4.1319966,-1.857749,-38.703514,15.939373,31.645384,5.472383,-1.093247,-8.271058,-17.778158,-52.364967,13.781397
113,735436529,-1.2778168,-12.095795,-24.087465,-0.26793575,-3.8853495,-1.8338542,-27.53925,9.815203,20.607983,5.467917,-1.158003,-8.301622,-18.237145,-52.20138,14.124863
114,735453196,2.492447,-11.9808235,-24.860966,-0.14525604,-3.6458254,-1.7927444,-19.808315,4.342268,5.799909,5.465496,-1.218767,-8.331501,-18.567284,-52.129009,14.221528
115,735469863,1.1527634,-11.584408,-24.511646,-0.046053886,-3.4149337,-1.7409923,-15.741318,-0.47717237,-13.283431,5.464728,-1.275683,-8.360518,-18.829639,-52.136962,14.000137
116,735486530,3.9775772,-10.672836,-24.351479,0.15045929,-3.0890808,-1.6168897,-9.577369,-5.7051215,-31.336163,5.467236,-1.327168,-8.387466,-18.989262,-52.232047,13.477868
117,735503197,8.451721,-9.268192,-23.9707,0.4175682,-2.6950436,-1.4303286,-3.112318,-10.947769,-49.802467,5.474195,-1.372085,-8.411305,-19.041134,-52.41451,12.647827
118,735519864,10.567192,-8.06839,-23.522308,0.5748291,-2.372805,-1.32183,0.23064613,-15.213879,-65.64566,5.483775,-1.411632,-8.433336,-19.03729,-52.668075,11.553733
119,735536531,11.044296,-7.09214,-23.151585,0.6218338,-2.1230326,-1.2944784,0.6816158,-18.474861,-77.9105,5.494139,-1.447016,-8.454911,-19.02593,-52.975989,10.255225
120,735553198,10.043465,-6.005192,-22.483418,0.6273546,-1.8965638,-1.2864382,-1.441174,-20.89371,-89.01222,5.504595,-1.478625,-8.476352,-19.04995,-53.324217,8.771688
121,735569865,6.751152,-4.9807625,-21.586145,0.54635334,-1.7292483,-1.3330076,-7.01736,-22.1745,-97.86856,5.513701,-1.507446,-8.498569,-19.166906,-53.693792,7.140545
122,735586532,5.7830887,-3.5265503,-20.67514,0.5147753,-1.5097065,-1.3358374,-12.593029,-23.155188,-104.924805,5.522281,-1.532608,-8.520833,-19.37679,-54.079712,5.391798
123,735603199,7.228546,-1.5977097,-19.712921,0.5402155,-1.2331502,-1.2877197,-18.214424,-23.797688,-110.243614,5.531285,-1.553161,-8.542295,-19.680364,-54.47634,3.554404
124,735619866,8.159691,0.42160797,-18.651241,0.5173578,-0.98573446,-1.2667623,-26.411139,-23.390493,-112.54354,5.539908,-1.56959,-8.563408,-20.12055,-54.866182,1.678678
125,735636533,9.584427,2.6476746,-17.527365,0.47579098,-0.7439761,-1.250907,-36.54075,-22.060287,-111.80366,5.547838,-1.58199,-8.584256,-20.729562,-55.233853,-0.184716
126,735653200,10.665321,4.707779,-16.312151,0.44110298,-0.5006509,-1.2282774,-42.455246,-22.028776,-111.69824,5.55519,-1.590334,-8.604727,-21.437149,-55.600999,-2.046353
127,735669867,11.073143,6.524086,-15.008586,0.4035902,-0.26558876,-1.206666,-43.867676,-23.39539,-112.23663,5.561917,-1.59476,-8.624838,-22.168277,-55.990922,-3.916964
128,735686534,11.954132,8.357819,-13.6589985,0.37164783,-0.026595592,-1.176096,-43.28298,-25.159119,-111.50943,5.568111,-1.595203,-8.64444,-22.88966,-56.410241,-5.775454
129,735703201,13.049759,10.092186,-12.262981,0.34915447,0.21508694,-1.1356347,-39.03984,-27.90317,-110.35599,5.57393,-1.591618,-8.663367,-23.540324,-56.875294,-7.61472
130,735719868,14.107826,11.858009,-10.810189,0.2947073,0.43216896,-1.1108477,-35.478813,-30.082315,-106.1429,5.578842,-1.584415,-8.681881,-24.131638,-57.376666,-9.383768
131,735736535,15.261559,13.67189,-9.311345,0.20817089,0.6241021,-1.1013918,-32.789207,-31.59369,-98.54219,5.582312,-1.574013,-8.700238,-24.678125,-57.903228,-11.026138
132,735753202,16.433517,15.361671,-7.777323,0.11267376,0.80210257,-1.0943122,-27.346155,-33.70251,-89.47537,5.58419,-1.560645,-8.718477,-25.133894,-58.464937,-12.517394
133,735769869,17.60904,16.950447,-6.212433,-0.0009250641,0.9592924,-1.0952139,-20.026638,-36.073357,-78.252495,5.584175,-1.544657,-8.736731,-25.467671,-59.06616,-13.821602
134,735786536,17.757729,18.3152,-5.8490305,-0.17345619,0.9824276,-1.0253267,-13.709354,-37.50041,-67.20963,5.581284,-1.528283,-8.75382,-25.69616,-59.691167,-14.941763
135,735803203,16.749527,19.408882,-6.8199673,-0.40784454,0.85905313,-0.87608576,-8.181867,-38.018707,-56.718086,5.574487,-1.513965,-8.768421,-25.832524,-60.324812,-15.887064
136,735819870,15.063332,20.294258,-8.557687,-0.6922121,0.6357317,-0.6888174,-2.6249766,-37.967854,-45.10784,5.56295,-1.503369,-8.779901,-25.876274,-60.95761,-16.638861
137,735836537,12.384346,20.917488,-11.425703,-1.0388899,0.2780447,-0.44103432,2.318303,-37.04885,-33.042847,5.545635,-1.498735,-8.787252,-25.837636,-61.575091,-17.189575
138,735853204,9.346756,21.295532,-14.732761,-1.4189587,-0.14802694,-0.17465234,9.331404,-36.27528,-19.479181,5.521986,-1.501202,-8.790163,-25.682113,-62.179679,-17.514228
139,735869871,5.9647446,21.414894,-18.461807,-1.8332691,-0.64282274,0.10763168,18.563555,-35.677902,-4.2363243,5.491432,-1.511916,-8.788369,-25.37272,-62.774311,-17.584833
140,735886538,1.6258926,21.206253,-23.295536,-2.308279,-1.2722142,0.44684458,28.182108,-34.49627,11.605906,5.452961,-1.53312,-8.780922,-24.903018,-63.349249,-17.391401
141,735903205,-3.56118,20.657074,-29.11715,-2.8396473,-2.0262353,0.83493865,38.80729,-32.940464,28.301844,5.405634,-1.566891,-8.767006,-24.25623,-63.898257,-16.919704
142,735919872,-7.664833,20.210068,-34.00389,-3.2128391,-2.6028266,1.1832801,47.057556,-32.537357,40.950073,5.352087,-1.610271,-8.747285,-23.471937,-64.440546,-16.237203
143,735936539,-10.595551,19.883545,-37.882107,-3.4107628,-2.9837203,1.4895494,52.430954,-33.351868,48.896317,5.295241,-1.66,-8.722459,-22.598088,-64.99641,-15.422264
144,735953206,-13.215691,19.444016,-41.61,-3.5326166,-3.3080492,1.7912545,56.985733,-34.808792,54.603584,5.236364,-1.715134,-8.692605,-21.648326,-65.576557,-14.512204
145,735969873,-15.015701,19.00161,-44.688744,-3.5184364,-3.4944587,2.0656805,59.726692,-37.324272,56.587944,5.177723,-1.773375,-8.658177,-20.652881,-66.198628,-13.569072
146,735986540,-17.306625,18.257866,-48.44926,-3.5009708,-3.7399545,2.3758297,62.18553,-39.814323,57.42131,5.119373,-1.835708,-8.61858,-19.616455,-66.8622,-12.61205
147,736003207,-20.170784,17.180183,-52.981583,-3.4867487,-4.056635,2.7256546,64.50705,-42.2462,57.183434,5.061261,-1.903319,-8.573152,-18.541338,-67.566303,-11.658993
148,736019874,-22.518768,16.004227,-57.20164,-3.3560858,-4.275784,3.064643,65.035835,-45.532387,53.20385,5.005326,-1.974582,-8.522075,-17.457407,-68.325176,-10.772262
149,736036541,-24.630035,14.656944,-61.39988,-3.1348972,-4.438501,3.4064918,64.06829,-49.46296,45.90693,4.953078,-2.048557,-8.4653,-16.389602,-69.149559,-10.007147
150,736053208,-27.11393,13.5108185,-65.23511,-2.93641,-4.482233,3.6493907,58.063553,-51.57911,41.3575,4.904138,-2.123261,-8.404477,-15.421876,-70.009211,-9.317855
151,736069875,-29.89051,12.627182,-68.53766,-2.7537622,-4.3771744,3.7766728,46.368126,-51.762684,39.675842,4.858242,-2.196214,-8.341532,-14.649074,-70.871922,-8.656591
152,736086542,-32.855957,11.775627,-71.66278,-2.547986,-4.1779914,3.8451881,30.769606,-51.04559,38.15104,4.815776,-2.265847,-8.277446,-14.136247,-71.722682,-8.02074
153,736103209,-36.13794,11.068649,-74.467865,-2.3441362,-3.857641,3.8233309,10.098873,-48.766724,38.294792,4.776707,-2.330141,-8.213724,-13.967932,-72.535461,-7.382493
154,736119876,-39.100418,10.3396,-76.87345,-2.0419006,-3.4059205,3.7564745,-14.105098,-46.60862,35.726692,4.742675,-2.386906,-8.151116,-14.203017,-73.312271,-6.787048
155,736136543,-41.717934,9.573608,-78.881966,-1.6339893,-2.8203318,3.6464555,-41.878906,-44.65167,30.102503,4.715442,-2.433912,-8.090342,-14.900999,-74.056465,-6.28534
156,736153210,-44.403755,8.95591,-80.38609,-1.1890965,-2.0769174,3.440901,-75.14596,-41.47852,24.835037,4.695624,-2.468527,-8.032994,-16.153432,-74.747774,-5.871423
157,736169877,-47.013203,8.455498,-81.347275,-0.68312645,-1.1676781,3.146751,-113.74684,-37.431053,18.919052,4.684239,-2.487988,-7.980548,-18.049213,-75.371625,-5.556105
158,736186544,-49.63544,7.8966217,-82.45394,-0.25879288,-0.550915,2.9858685,-139.2685,-33.901394,14.6374,4.679926,-2.49717,-7.930784,-20.370355,-75.936648,-5.312148
159,736203211,-52.311985,7.2948074,-83.724945,0.06401253,-0.2623992,2.9704294,-150.26639,-30.833597,12.593999,4.680993,-2.501543,-7.881277,-22.874795,-76.450541,-5.102248
160,736219878,-54.889477,6.720085,-84.77997,0.37117767,-0.07496977,2.9976392,-155.44194,-27.78285,10.990571,4.687179,-2.502792,-7.831316,-25.465494,-76.913589,-4.919072
161,736236545,-57.394188,6.137741,-85.78212,0.62124634,-0.11394024,3.1264653,-149.69038,-25.077993,10.581087,4.697533,-2.504691,-7.779208,-27.960334,-77.331556,-4.742721
162,736253212,-59.868862,5.704712,-86.27323,0.88226175,-0.10108757,3.211617,-144.33414,-21.520927,10.840495,4.712237,-2.506376,-7.725681,-30.365903,-77.690238,-4.562046
163,736269879,-62.291756,5.4377213,-86.193245,1.1607819,-0.01711607,3.2434711,-140.00352,-17.04843,11.667704,4.731583,-2.506661,-7.671623,-32.699295,-77.974378,-4.367584
164,736286546,-64.65904,5.236603,-85.8924,1.3860683,-0.10973358,3.3450124,-126.53812,-12.522533,14.028126,4.754684,-2.50849,-7.615873,-34.808264,-78.183087,-4.133782
165,736303213,-66.97114,5.143036,-85.25138,1.5717773,-0.32108855,3.485335,-106.19534,-7.6746964,17.850754,4.78088,-2.513841,-7.557784,-36.578186,-78.310999,-3.836269
166,736319880,-68.7808,4.924469,-84.72888,1.6881318,-0.4278791,3.5906665,-92.9825,-3.681128,20.394094,4.809016,-2.520972,-7.49794,-38.127894,-78.372351,-3.496367
167,736336547,-70.04016,4.5533676,-84.39963,1.7202973,-0.44277978,3.669871,-86.805435,-0.7488308,21.601831,4.837688,-2.528352,-7.436775,-39.574651,-78.384832,-3.136336
168,736353214,-70.9541,4.1750565,-83.951126,1.6890516,-0.43537807,3.7376628,-82.38221,1.8689237,22.791052,4.865839,-2.535608,-7.374481,-40.947688,-78.353683,-2.756485
169,736369881,-71.3909,3.7254028,-83.51712,1.5803437,-0.35471344,3.7784796,-83.15166,3.813084,23.292313,4.892178,-2.54152,-7.311506,-42.333549,-78.290132,-2.36828
170,736386548,-71.59093,3.324791,-82.89155,1.3911266,-0.3962946,3.8670697,-78.16073,5.5511904,24.997126,4.915363,-2.548125,-7.247055,-43.636228,-78.197612,-1.951661
171,736403215,-71.55911,2.988556,-82.045135,1.1182251,-0.5712986,4.006791,-66.75611,7.126702,28.085539,4.934,-2.557647,-7.180275,-44.74883,-78.078834,-1.483569
172,736419882,-71.05271,2.602623,-81.19681,0.74718094,-0.7423842,4.1486835,-57.218826,7.977883,31.084597,4.946453,-2.57002,-7.11113,-45.702477,-77.945869,-0.965492
173,736436549,-70.11096,2.1948242,-80.30069,0.27319622,-0.9543328,4.3098917,-47.111908,8.186438,34.445595,4.951006,-2.585926,-7.039298,-46.487675,-77.809428,-0.391399
174,736453216,-69.35233,1.8582115,-79.32188,0.01599884,-1.2872488,4.4604063,-36.341915,8.372717,34.974007,4.951273,-2.60738,-6.964958,-47.093374,-77.669883,0.191501
175,736469883,-68.79495,1.5869293,-78.29073,0.0015573502,-1.7368755,4.593326,-25.80407,8.491472,32.193153,4.951299,-2.636328,-6.888403,-47.523442,-77.528358,0.728054
176,736486550,-68.16132,1.3560944,-77.19658,0.07232952,-2.2996328,4.735977,-13.804195,8.275157,27.937569,4.952504,-2.674655,-6.80947,-47.753512,-77.390439,1.19368
177,736503217,-67.608665,1.1871948,-76.0437,0.31645012,-2.9972725,4.8796005,-0.5401535,7.8483377,21.24815,4.957778,-2.72461,-6.728143,-47.762515,-77.259633,1.547816
178,736519884,-66.69917,1.0005531,-74.906746,0.54026985,-3.752935,5.030477,11.921301,6.678019,13.644266,4.966782,-2.787159,-6.644302,-47.563827,-77.148333,1.77522
179,736536551,-65.40039,0.7929802,-73.794235,0.7310896,-4.5699134,5.1916122,23.689016,4.703192,5.228391,4.978967,-2.863324,-6.557775,-47.16901,-77.069946,1.86236
180,736553218,-64.0606,0.62163925,-72.68038,1.0626373,-5.5076346,5.3526297,35.573997,2.2689853,-5.634614,4.996678,-2.955118,-6.468565,-46.57611,-77.03213,1.76845
181,736569885,-62.581463,0.46919632,-71.58853,1.4952435,-6.5535173,5.5155354,47.1325,-0.7677736,-18.67219,5.021599,-3.064343,-6.376639,-45.790568,-77.044926,1.457247
182,736586552,-62.128727,0.64040375,-71.954544,1.6798253,-7.0063925,5.4544888,57.260246,-2.4221468,-31.217196,5.049596,-3.181116,-6.285731,-44.836231,-77.085295,0.93696
183,736603219,-62.862602,1.1726456,-73.93265,1.6060138,-6.8037457,5.1446114,65.8232,-2.4773927,-43.293976,5.076363,-3.294512,-6.199987,-43.739178,-77.126585,0.215394
184,736619886,-64.1689,1.9111748,-76.876366,1.4137578,-6.267921,4.6928554,72.965706,-1.9874554,-56.04883,5.099926,-3.398977,-6.121773,-42.523083,-77.159709,-0.718753
185,736636553,-66.39853,2.946125,-81.21128,1.0117259,-5.199021,4.032731,78.29579,-0.3865447,-68.852325,5.116788,-3.485627,-6.054561,-41.218153,-77.166151,-1.866292
186,736653220,-68.968025,4.1176834,-86.12161,0.6481266,-4.020181,3.2918174,82.6532,1.2315068,-83.747215,5.12759,-3.55263,-5.999697,-39.8406,-77.145626,-3.262079
187,736669887,-71.85243,5.4190674,-91.59169,0.33522892,-2.748566,2.4742057,85.9351,2.7908878,-100.90769,5.133177,-3.598439,-5.95846,-38.408348,-77.099111,-4.943874
188,736686554,-75.668205,7.0130386,-98.42615,-0.12940025,-0.9920678,1.4548265,87.2973,5.340456,-118.826866,5.13102,-3.614973,-5.934213,-36.953393,-77.010103,-6.924322
189,736703221,-80.3169,8.87175,-106.489426,-0.6941204,1.17029,0.25589716,86.81202,8.663884,-137.99345,5.119451,-3.595468,-5.929948,-35.506526,-76.865705,-9.224213
190,736719888,-83.03391,10.274506,-111.61816,-1.1345825,2.5294204,-0.44535923,83.329765,11.705204,-144.52695,5.100541,-3.553311,-5.937371,-34.117697,-76.670618,-11.632995
191,736736555,-83.65045,11.176628,-113.531624,-1.4545107,3.0250907,-0.6014874,76.53163,14.523312,-136.8623,5.076299,-3.502893,-5.947396,-32.84217,-76.428563,-13.914033
192,736753222,-83.428345,11.904823,-114.13133,-1.7260141,3.184177,-0.5204867,66.89952,17.498215,-121.865585,5.047532,-3.449823,-5.956071,-31.727178,-76.136926,-15.945126
193,736769889,-81.620544,12.263618,-112.27786,-1.89328,2.6834898,-0.015851974,53.98179,20.396225,-95.47663,5.015977,-3.405098,-5.956335,-30.827482,-75.796989,-17.536403
194,736786556,-80.014465,12.718681,-110.62916,-2.1401453,2.3367743,0.48369813,38.03533,24.126173,-65.32805,4.980308,-3.366152,-5.948273,-30.19356,-75.394886,-18.625204
195,736803223,-78.7145,13.29612,-109.32983,-2.4741154,2.1886058,0.9561218,18.949642,28.757713,-31.745413,4.939073,-3.329675,-5.932338,-29.877733,-74.915591,-19.154294
196,736819890,-76.179115,13.592979,-106.05302,-2.7564507,1.5528779,1.780068,-3.9022484,33.66397,12.796331,4.893132,-3.303794,-5.90267,-29.94277,-74.354525,-18.941022
197,736836557,-72.776596,13.704399,-101.33546,-3.0261936,0.5979724,2.8701634,-30.596563,39.06454,66.930084,4.842695,-3.293828,-5.854834,-30.452713,-73.703449,-17.825521
198,736853224,-70.01372,13.694153,-97.574814,-3.150669,-0.03244686,3.5204718,-51.586807,42.673275,101.96518,4.790184,-3.294369,-5.796159,-31.312493,-72.992228,-16.126101
199,736869891,-67.82767,13.511124,-94.677444,-3.099885,-0.36665773,3.7149258,-66.11491,44.20731,116.2663,4.738519,-3.30048,-5.734244,-32.414408,-72.25544,-14.188329
200,736886558,-65.73715,13.182304,-91.83495,-2.9622889,-0.60153246,3.7351866,-78.83849,44.91057,122.68054,4.689148,-3.310506,-5.671991,-33.728383,-71.506931,-12.143653
201,736903225,-64.09675,12.703613,-89.60849,-2.6944284,-0.5850177,3.3989742,-87.12808,44.118065,113.48023,4.644241,-3.320256,-5.615341,-35.180518,-70.77163,-10.252316
202,736919892,-61.616714,11.925461,-85.96306,-2.3353872,-0.874743,3.220026,-96.828545,43.015533,107.49689,4.605318,-3.334835,-5.561674,-36.794327,-70.054704,-8.460701
203,736936559,-58.228527,10.8353195,-80.778,-1.8878584,-1.4979551,3.2255945,-108.314476,41.681957,105.79291,4.573854,-3.359801,-5.507914,-38.599568,-69.360005,-6.697486
204,736953226,-54.859955,9.492706,-75.513275,-1.2908449,-2.0535808,3.0042765,-116.368355,38.92674,92.25401,4.55234,-3.394027,-5.457843,-40.539041,-68.711226,-5.159919
205,736969893,-51.22166,7.854439,-69.704895,-0.54857635,-2.665429,2.6651077,-122.18666,34.974674,70.758644,4.543197,-3.438451,-5.413425,-42.575485,-68.128315,-3.980608
206,736986560,-48.600716,6.581047,-65.07089,-0.05739498,-3.0704668,2.5734386,-125.39087,31.663155,58.670128,4.54224,-3.489625,-5.370534,-44.665333,-67.600596,-3.002773
207,737003227,-47.221863,5.7320175,-61.927776,0.15648937,-3.2008896,2.7148209,-125.17691,28.978907,55.512733,4.544848,-3.542973,-5.325287,-46.751615,-67.117614,-2.077561
208,737019894,-46.271103,4.9553833,-59.125935,0.28156662,-3.2695777,2.9901347,-122.42335,26.166998,55.52883,4.549541,-3.597466,-5.275451,-48.792004,-66.681497,-1.15208
209,737036561,-46.140846,4.432289,-57.188507,0.21083164,-3.1916249,3.4885201,-116.710785,23.668327,62.90737,4.553055,-3.65066,-5.217309,-50.737184,-66.287025,-0.103624
210,737053228,-46.315292,3.7817154,-55.467148,0.19394684,-3.0200083,3.8916907,-106.7974,20.071081,63.23925,4.556287,-3.700993,-5.152447,-52.517141,-65.952507,0.950364
211,737069895,-46.74701,2.9716492,-53.885303,0.24729061,-2.7684002,4.189233,-92.52586,15.268852,55.792168,4.560409,-3.747133,-5.082626,-54.059239,-65.698026,1.880233
212,737086562,-48.05217,2.3484383,-53.24023,0.15373516,-2.3324528,4.614929,-73.97153,10.315714,51.179634,4.562971,-3.786007,-5.005711,-55.292098,-65.526097,2.733227
213,737103229,-50.14038,1.8308487,-53.412376,-0.034558296,-1.72019,5.1016507,-50.68451,4.883411,46.224014,4.562395,-3.814677,-4.920683,-56.13684,-65.444707,3.503627
214,737119896,-51.128273,1.1850624,-53.105957,-0.10871315,-1.3413727,5.3554263,-32.67771,0.20851898,41.75271,4.560583,-3.837033,-4.831426,-56.681469,-65.441232,4.199505
215,737136563,-50.941242,0.43642807,-52.339714,-0.07767677,-1.2140903,5.3728633,-20.739094,-3.4778733,38.98449,4.559288,-3.857268,-4.741878,-57.027121,-65.499197,4.849246
216,737153230,-50.43415,-0.35572052,-51.680626,-0.007041931,-1.1438708,5.2457056,-9.656855,-6.999888,35.262978,4.559171,-3.876333,-4.65445,-57.188069,-65.615862,5.436962
217,737169897,-49.11957,-1.2402039,-50.82847,0.15237713,-1.2364182,4.8958445,-2.1342216,-9.978504,31.095953,4.561711,-3.89694,-4.572853,-57.223639,-65.78217,5.955228
218,737186564,-48.270092,-1.9918861,-50.766,0.2220478,-1.2243235,4.554288,7.846039,-12.888739,28.631418,4.565412,-3.917345,-4.496948,-57.092872,-65.996982,6.432418
219,737203231,-47.97527,-2.5976257,-51.58317,0.1928196,-1.0865855,4.2258654,20.78844,-15.784048,27.690405,4.568626,-3.935455,-4.426517,-56.746398,-66.260049,6.893925
220,737219898,-47.190613,-3.2052193,-52.56146,0.19333172,-1.0447822,3.7257984,31.382978,-18.082794,27.70265,4.571848,-3.952868,-4.36442,-56.223348,-66.561429,7.355636
221,737236565,-46.19452,-3.7614365,-53.940285,0.1837492,-1.0395355,3.09908,40.935722,-19.871527,29.13376,4.57491,-3.970194,-4.312769,-55.541086,-66.892621,7.841199
222,737253232,-45.407784,-4.2022667,-54.63139,0.14143848,-0.99273014,2.6757078,46.661156,-19.067707,27.998718,4.577267,-3.98674,-4.268174,-54.7634,-67.210416,8.307844
223,737269899,-44.74341,-4.5316544,-54.461735,0.07704258,-0.92369986,2.4636579,47.549973,-15.345509,23.984564,4.578551,-4.002135,-4.227113,-53.9709,-67.466174,8.707587
224,737286566,-44.192184,-4.7371025,-54.12888,-0.027925491,-0.8284397,2.334948,45.741943,-9.705307,19.371248,4.578086,-4.015942,-4.188197,-53.208534,-67.627929,9.030441
225,737303233,-43.834526,-4.7991486,-53.311447,-0.17748356,-0.69290304,2.3756657,40.159775,-1.4835758,13.117643,4.575128,-4.02749,-4.148603,-52.539204,-67.652655,9.249068
226,737319900,-43.166122,-4.784603,-52.492477,-0.32774162,-0.61623764,2.341219,31.03552,8.306252,7.3666754,4.569666,-4.037761,-4.109583,-52.021945,-67.514217,9.371846
227,737336567,-42.174362,-4.685917,-51.72628,-0.4811697,-0.60040283,2.2199676,18.33293,19.672434,2.3708014,4.561647,-4.047768,-4.072584,-51.716396,-67.186343,9.411359
228,737353234,-41.16899,-4.4486504,-50.486244,-0.66347694,-0.586092,2.207908,0.8270922,33.76559,-3.7969923,4.550589,-4.057536,-4.035786,-51.702611,-66.623583,9.348076
229,737369901,-40.036842,-4.080765,-48.86996,-0.8665781,-0.5955069,2.253869,-21.613163,50.454876,-10.637369,4.536146,-4.067461,-3.998222,-52.06283,-65.782668,9.170787
230,737386568,-39.263885,-3.8965454,-47.726406,-0.9610977,-0.45421267,2.3412461,-36.38123,59.41892,-13.501603,4.520128,-4.075031,-3.959201,-52.669184,-64.792353,8.94576
231,737403235,-38.921967,-3.9172401,-47.05328,-0.9364376,-0.1403594,2.4936328,-42.599846,59.844093,-12.155773,4.504521,-4.07737,-3.91764,-53.379181,-63.794951,8.743164
232,737419902,-38.696022,-3.995964,-46.501247,-0.84792805,0.24717283,2.6857934,-46.489655,56.56854,-8.426773,4.490389,-4.07325,-3.872877,-54.154009,-62.852142,8.602718
233,737436569,-38.725807,-4.218342,-46.275867,-0.6585283,0.758616,2.9215705,-44.65753,46.722633,-1.0412021,4.479414,-4.060606,-3.824184,-54.898301,-62.073431,8.585365
234,737453236,-38.805405,-4.379734,-45.743504,-0.45115566,1.3080201,3.2637658,-44.940117,36.656635,6.9043503,4.471895,-4.038806,-3.769788,-55.647303,-61.462487,8.700438
235,737469903,-38.90818,-4.467655,-44.857994,-0.22826195,1.888433,3.7150357,-47.914825,26.708351,15.315292,4.468091,-4.007332,-3.707871,-56.445883,-61.017348,8.955693
236,737486570,-39.258957,-4.6586876,-44.100388,0.08534813,2.587501,4.251274,-46.75965,11.165136,26.878046,4.469513,-3.964207,-3.637016,-57.225211,-60.831262,9.40366
237,737503237,-39.814262,-4.9103775,-43.325447,0.4744444,3.3884625,4.8893228,-43.145645,-8.717611,41.004425,4.47742,-3.907733,-3.555527,-57.944305,-60.976556,10.087067
238,737519904,-40.02678,-5.3182297,-42.771812,0.80846786,3.8754644,5.2201653,-38.143394,-20.97573,50.190086,4.490894,-3.843142,-3.468524,-58.580028,-61.326152,10.923568
239,737536571,-39.87726,-5.9168587,-42.514126,1.0862927,4.0204268,5.2046595,-30.927525,-25.24994,54.07695,4.508999,-3.776135,-3.38178,-59.095487,-61.746984,11.824851
240,737553238,-39.59861,-6.635681,-42.334175,1.3616714,4.009617,5.050296,-22.052967,-26.439938,55.861473,4.531694,-3.709308,-3.297608,-59.463036,-62.18765,12.755876
241,737569905,-39.048187,-7.5120354,-42.312378,1.6021433,3.7286758,4.6420555,-11.483526,-21.428627,53.534645,4.558396,-3.647163,-3.22024,-59.654428,-62.544794,13.64812
242,737586572,-38.59919,-8.539787,-42.422096,1.9062972,3.4412298,4.2133427,3.1914778,-18.730947,52.21763,4.590168,-3.589809,-3.150018,-59.601237,-62.856976,14.518414
243,737603239,-38.273193,-9.7213745,-42.648613,2.2808075,3.1601872,3.7790332,22.123001,-18.80457,52.172623,4.628181,-3.537139,-3.087034,-59.23252,-63.170385,15.387958
244,737619906,-37.762207,-11.098789,-43.079403,2.6499147,2.6528559,3.1207166,44.30188,-14.736479,49.09735,4.672346,-3.492925,-3.035022,-58.494155,-63.415993,16.206247
245,737636573,-37.145042,-12.677738,-43.71131,3.0358129,1.971395,2.2846286,70.38874,-8.323189,44.043808,4.722943,-3.460068,-2.996945,-57.321009,-63.554713,16.94031
246,737653240,-36.47635,-13.887035,-44.183346,3.2641463,1.5407896,1.7952065,86.06484,-5.9586015,40.607803,4.777345,-3.434388,-2.967025,-55.886595,-63.654023,17.617107
247,737669907,-35.7212,-14.683044,-44.480427,3.3086662,1.3698025,1.67217,89.95673,-7.405789,38.563713,4.832489,-3.411558,-2.939155,-54.387316,-63.777453,18.259836
248,737686574,-34.904724,-15.345596,-44.777214,3.266778,1.2890058,1.6952269,89.39679,-10.83942,36.875183,4.886935,-3.390075,-2.910901,-52.89737,-63.95811,18.874422
249,737703241,-34.028564,-15.718517,-44.981586,3.0856109,1.4076667,2.002304,80.36701,-17.814117,36.364723,4.938362,-3.366614,-2.877529,-51.55792,-64.255012,19.480501
250,737719908,-32.979027,-16.15136,-45.327377,2.8468914,1.4145722,2.2299125,71.0381,-22.818167,33.774544,4.98581,-3.343038,-2.840364,-50.373952,-64.635315,20.04341
251,737736575,-31.750755,-16.66758,-45.83444,2.555017,1.2928476,2.3583655,61.954765,-25.647554,28.937103,5.028394,-3.321491,-2.801058,-49.341373,-65.062774,20.525695
252,737753242,-30.395798,-16.956882,-46.31018,2.1202765,1.2903795,2.687569,45.489777,-30.3504,24.125193,5.063732,-3.299985,-2.756265,-48.58321,-65.568614,20.927782
253,737769909,-28.884636,-17.091644,-46.807518,1.5564551,1.3407159,3.141465,23.277706,-35.751198,18.60045,5.089673,-3.27764,-2.703907,-48.195248,-66.164467,21.23779
254,737786576,-28.185684,-17.34827,-47.269302,1.1573815,1.3305979,3.3682036,5.645315,-37.305946,14.212294,5.108963,-3.255463,-2.64777,-48.101159,-66.786233,21.474662
255,737803243,-28.396149,-17.710476,-47.666687,0.93617773,1.2792811,3.371479,-7.5283737,-35.00355,11.360317,5.124566,-3.234142,-2.591579,-48.226632,-67.369626,21.664001
256,737819910,-29.036049,-18.092403,-48.06336,0.7594528,1.19559,3.2674584,-20.175581,-30.157907,8.626073,5.137224,-3.214215,-2.537121,-48.562892,-67.872258,21.807769
257,737836577,-30.381905,-18.556862,-48.43582,0.7040844,1.0565643,2.9679303,-29.795773,-21.568203,6.5766916,5.148959,-3.196606,-2.487655,-49.059488,-68.231728,21.917381
258,737853244,-31.884583,-18.860329,-48.771095,0.57224846,0.9921746,2.75564,-44.486885,-12.900291,4.6802,5.158496,-3.18007,-2.441728,-49.800936,-68.446733,21.995384
259,737869911,-33.514984,-18.988705,-49.07101,0.35058498,1.0060673,2.642163,-64.765785,-4.2149777,2.8254642,5.164339,-3.163302,-2.397692,-50.880366,-68.516983,22.042475
260,737886578,-35.795853,-19.112309,-49.318363,0.2029295,1.0161505,2.4117713,-84.571236,7.387853,1.783257,5.167721,-3.146366,-2.357496,-52.289887,-68.393852,22.072196
261,737903245,-38.62297,-19.175156,-49.507694,0.086527824,1.0514855,2.1241803,-105.73251,21.198137,1.4462771,5.169163,-3.128841,-2.322093,-54.052096,-68.04055,22.096301
262,737919912,-40.624367,-19.13519,-49.62036,0.010119438,1.0506506,2.0127406,-117.823944,29.74925,-0.4172926,5.169332,-3.11133,-2.288547,-56.015828,-67.544729,22.089346
263,737936579,-41.74478,-19.003334,-49.646584,-0.004398346,1.00102,2.0754995,-119.13788,32.67903,-3.8871021,5.169259,-3.094646,-2.253955,-58.001459,-67.000078,22.024561
264,737953246,-42.574593,-18.756668,-49.586777,0.010647774,0.9535904,2.2433465,-115.87844,33.063644,-7.954884,5.169436,-3.078753,-2.216566,-59.932766,-66.449017,21.89198
265,737969913,-42.753105,-18.384693,-49.429928,0.06490326,0.8905034,2.576311,-104.867584,28.884363,-13.1937685,5.170518,-3.063911,-2.173627,-61.680559,-65.967611,21.672084
266,737986580,-43.22448,-17.949562,-49.17767,0.19559097,0.82752275,2.8830917,-90.64353,25.296404,-18.113363,5.173778,-3.050119,-2.125575,-63.191285,-65.546004,21.370195
267,738003247,-44.04339,-17.445747,-48.823547,0.4039793,0.7698183,3.1587427,-73.524,22.52598,-22.607744,5.180511,-3.037289,-2.072929,-64.416685,-65.170571,20.993399
268,738019914,-44.429863,-16.831032,-48.352478,0.68321896,0.69446516,3.5510516,-48.31643,16.22614,-27.90029,5.191898,-3.025715,-2.013745,-65.221959,-64.900135,20.528394
269,738036581,-44.583244,-16.114883,-47.759174,1.0442238,0.60565615,4.0214663,-15.795373,7.4328504,-33.664467,5.209302,-3.015621,-1.946721,-65.485215,-64.776254,19.96732
270,738053248,-44.766647,-15.414341,-47.430893,1.318687,0.6257472,4.3208075,5.693424,3.1377268,-38.113556,5.23128,-3.005192,-1.874708,-65.390325,-64.723959,19.332094
271,738069915,-44.90444,-14.734756,-47.399963,1.4936438,0.76352596,4.4427013,15.262974,3.4413352,-41.21598,5.256174,-2.992467,-1.800663,-65.135942,-64.666603,18.645161
272,738086582,-45.00161,-14.0252495,-47.47603,1.6594758,0.96433306,4.479484,21.274637,5.6888814,-43.586555,5.283832,-2.976395,-1.726005,-64.781365,-64.571788,17.918718
273,738103249,-45.098564,-13.316929,-47.7664,1.7713466,1.2620964,4.365298,18.897251,11.67491,-44.753914,5.313354,-2.95536,-1.65325,-64.466411,-64.377206,17.172819
274,738119916,-44.83593,-12.52541,-48.036167,1.9287019,1.5821562,4.285374,20.317366,16.14828,-46.048058,5.345499,-2.928991,-1.581827,-64.127788,-64.108068,16.405351
275,738136583,-44.1977,-11.64571,-48.270412,2.140986,1.9212375,4.246846,26.34052,18.8513,-47.5082,5.381182,-2.89697,-1.511046,-63.688779,-63.79388,15.613548
276,738153250,-43.384453,-10.74659,-48.680588,2.320859,2.346887,4.0998235,26.770712,23.930443,-48.05574,5.419863,-2.857855,-1.442716,-63.2426,-63.395039,14.812619
277,738169917,-42.308685,-9.8100395,-49.21894,2.4905715,2.844789,3.8819175,24.216845,30.273909,-47.953697,5.461373,-2.810442,-1.378017,-62.838986,-62.890474,14.013391
278,738186584,-41.53254,-9.064861,-49.409843,2.5623755,3.146906,3.787628,22.597132,33.7407,-45.955185,5.504079,-2.757994,-1.31489,-62.462367,-62.328129,13.247471
279,738203251,-41.119553,-8.543411,-49.23578,2.5158477,3.2362962,3.8166745,20.977503,34.422684,-41.780876,5.54601,-2.704056,-1.251279,-62.112742,-61.754418,12.551123
280,738219918,-40.732353,-8.126919,-48.89151,2.4068704,3.230792,3.9013186,19.220058,33.521793,-36.169365,5.586125,-2.650209,-1.186257,-61.792408,-61.195721,11.9483
281,738236585,-40.526253,-7.88501,-48.25136,2.2059364,3.056954,4.0907607,17.997864,30.000471,-28.699413,5.622891,-2.59926,-1.118078,-61.492444,-60.695713,11.469976
282,738253252,-40.214294,-7.704872,-47.647083,1.9419632,2.8886003,4.23108,12.399307,27.333744,-19.765968,5.655257,-2.551117,-1.04756,-61.285789,-60.240151,11.140543
283,738269919,-39.76374,-7.582733,-47.095016,1.6158481,2.734037,4.315465,2.2210197,25.629198,-9.36393,5.682188,-2.50555,-0.975636,-61.248772,-59.812998,10.984478
284,738286586,-39.450264,-7.640091,-46.320908,1.1844602,2.441668,4.46239,-9.667823,22.265572,3.1200523,5.701929,-2.464856,-0.901263,-61.409902,-59.441905,11.036479
285,738303253,-39.21016,-7.8588524,-45.393192,0.65063286,2.0460467,4.639217,-24.435781,17.962244,17.660517,5.712773,-2.430755,-0.823943,-61.817165,-59.142534,11.330821
286,738319920,-38.901207,-7.878441,-44.75545,0.20937157,1.656713,4.6245418,-32.854774,15.112822,25.22407,5.716263,-2.403143,-0.746867,-62.364745,-58.890654,11.751222
287,738336587,-38.548355,-7.685356,-44.41613,-0.12970448,1.2624726,4.409907,-33.845287,13.643036,25.038786,5.714101,-2.382102,-0.673369,-62.928833,-58.66327,12.168535
288,738353254,-38.177994,-7.443825,-44.21049,-0.46039963,0.8317876,4.0769463,-32.688023,12.906382,21.384932,5.706428,-2.368239,-0.60542,-63.473633,-58.448164,12.524951
289,738369921,-37.76419,-7.0610123,-44.254066,-0.7320051,0.38736773,3.5655813,-26.77395,13.49902,11.725667,5.694228,-2.361783,-0.545994,-63.919866,-58.22318,12.720379
290,738386588,-37.456764,-6.7851257,-44.216988,-1.0730152,-0.17759228,3.034008,-20.829042,13.324905,1.4885921,5.676344,-2.364743,-0.495427,-64.267017,-58.001098,12.745189
291,738403255,-37.264946,-6.634262,-44.085327,-1.4936285,-0.87050414,2.4867723,-15.284554,12.323388,-9.048352,5.65145,-2.379251,-0.453981,-64.52176,-57.795708,12.594383
292,738419922,-37.097466,-6.4070587,-44.123463,-1.8873472,-1.622072,1.7913182,-5.4966135,12.049216,-24.857668,5.619994,-2.406286,-0.424126,-64.61337,-57.594888,12.180089
293,738436589,-36.99108,-6.1585045,-44.263363,-2.2827644,-2.4583285,0.9782419,7.5600843,12.06682,-44.885643,5.581948,-2.447258,-0.407822,-64.487369,-57.393774,11.431995
294,738453256,-37.19168,-5.8249474,-44.29131,-2.533187,-2.9149616,0.51635027,10.1984825,12.334064,-56.490112,5.539728,-2.495841,-0.399216,-64.317394,-57.188206,10.490493
295,738469923,-37.720306,-5.375496,-44.220074,-2.6103945,-2.9399128,0.4343441,1.7377081,13.0318775,-59.152,5.496221,-2.54484,-0.391977,-64.288432,-56.971008,9.504626
296,738486590,-38.492836,-4.877735,-44.10653,-2.6025057,-2.7715406,0.53022516,-11.96474,13.890301,-58.22512,5.452846,-2.591032,-0.38314,-64.487844,-56.739503,8.534207
297,738503257,-39.583344,-4.3056564,-43.90068,-2.4626293,-2.2755375,0.9325886,-34.581543,14.952866,-50.36692,5.411802,-2.628958,-0.367597,-65.064203,-56.490289,7.694758
298,738519924,-40.835068,-3.6460648,-43.798332,-2.2486134,-1.704709,1.3330712,-57.00296,16.672361,-44.293327,5.374325,-2.65737,-0.345379,-66.014252,-56.212416,6.956536
299,738536591,-42.25152,-2.9003258,-43.807674,-1.9631004,-1.0729985,1.7178874,-78.77289,19.052755,-40.474236,5.341607,-2.675253,-0.316748,-67.327133,-55.89487,6.281965
300,738553258,-43.982475,-2.0486794,-43.79058,-1.5326977,-0.13285255,2.3547845,-107.6414,21.927956,-31.679537,5.316062,-2.677467,-0.277502,-69.121156,-55.529404,5.753973
301,738569925,-46.004784,-1.0849838,-43.790165,-0.9654417,1.0684633,3.1828065,-141.75758,25.412252,-19.726143,5.299971,-2.659659,-0.224455,-71.483782,-55.105866,5.425204
302,738586592,-47.598175,-0.20492172,-43.82294,-0.48460865,1.7359405,3.715543,-157.4246,27.737932,-14.5827,5.291894,-2.630727,-0.162529,-74.107525,-54.643567,5.182159
303,738603259,-48.717503,0.58034134,-43.876797,-0.0972805,1.8296447,3.9426942,-153.30244,28.741783,-16.303404,5.290273,-2.600233,-0.096817,-76.662566,-54.164537,4.910436
304,738619926,-49.694645,1.3718185,-43.975315,0.3015461,1.6994286,4.057126,-139.35963,29.357756,-21.373104,5.295299,-2.571909,-0.029198,-78.985227,-53.675241,4.554218
305,738636593,-50.334766,2.118885,-44.120647,0.6555891,1.1331673,3.9334614,-109.12029,29.097893,-32.34302,5.306225,-2.553023,0.03636,-80.803899,-53.190276,4.015168
306,738653260,-51.106422,2.9443283,-44.26923,1.1190991,0.66201115,3.9285374,-78.33643,28.959305,-41.535255,5.324877,-2.541989,0.101836,-82.109506,-52.707621,3.322914
307,738669927,-52.037807,3.8597412,-44.423862,1.7050085,0.31602812,4.0612473,-47.67286,29.021008,-48.630203,5.353294,-2.536722,0.169523,-82.904054,-52.223938,2.512411
308,738686594,-52.725914,4.762108,-44.608406,2.2904687,-0.35323548,4.04701,-3.5329227,28.36125,-59.64189,5.391468,-2.542609,0.236973,-82.962936,-51.751251,1.518379
309,738703261,-53.26793,5.6796265,-44.81478,2.9109244,-1.2354372,3.9617162,50.979485,27.187698,-72.968956,5.439983,-2.5632,0.303002,-82.113278,-51.298123,0.30223
310,738719928,-53.599674,6.633713,-45.026993,3.2500005,-1.6333823,3.9148211,83.546104,26.72893,-79.868935,5.49415,-2.590423,0.368249,-80.720843,-50.852641,-1.028919
311,738736595,-53.658115,7.6142654,-45.245625,3.261456,-1.5368893,3.8818505,92.856575,26.974709,-80.20228,5.548508,-2.616038,0.432947,-79.173233,-50.403063,-2.365624
312,738753262,-53.532738,8.631073,-45.47281,3.1187425,-1.2033648,3.8617492,92.26242,27.472914,-77.01415,5.600487,-2.636094,0.497309,-77.635526,-49.945181,-3.649193
313,738769929,-53.183266,9.686661,-45.704235,2.7261548,-0.45269513,3.8746686,73.17489,28.525627,-68.010414,5.645923,-2.643639,0.561887,-76.415945,-49.469754,-4.7827
314,738786596,-52.535614,10.744957,-45.957333,2.236565,0.19320536,3.7826624,58.091446,29.178783,-59.837112,5.683199,-2.640419,0.624931,-75.447754,-48.983441,-5.779985
315,738803263,-51.581417,11.805931,-46.232075,1.6576886,0.7115464,3.5816026,48.117332,29.379057,-52.71837,5.710827,-2.62856,0.684624,-74.645798,-48.49379,-6.658624
316,738819930,-50.310143,12.8888855,-46.515793,0.8246689,1.5173874,3.3542209,24.57461,29.851416,-41.33368,5.724571,-2.60327,0.740528,-74.236221,-47.996266,-7.347519
317,738836597,-48.693295,13.985802,-46.81186,-0.23654938,2.5022178,3.0688787,-7.9081626,30.386126,-27.02347,5.720629,-2.561566,0.791676,-74.368024,-47.489831,-7.79791
318,738853264,-47.318237,14.74807,-46.811344,-0.9119415,2.9887552,2.8383098,-23.834835,29.85486,-16.19843,5.70543,-2.511753,0.838981,-74.765271,-46.99225,-8.067884
319,738869931,-46.225822,15.14061,-46.4808,-1.1694336,2.9608736,2.6791096,-23.133945,28.222925,-8.799561,5.685939,-2.462405,0.883633,-75.150837,-46.521868,-8.214543
320,738886598,-45.10598,15.319946,-45.966705,-1.2881422,2.6654348,2.513359,-14.861147,25.870403,-2.653649,5.66447,-2.417981,0.925522,-75.398523,-46.090695,-8.25877
321,738903265,-44.113686,15.183937,-45.17847,-1.1049347,1.9235196,2.3726947,7.4627953,22.490232,0.6352787,5.646054,-2.385922,0.965067,-75.274143,-45.715858,-8.248182
322,738919932,-42.88891,14.9366,-44.288937,-1.0256433,1.2366118,2.2107067,24.0479,18.908451,6.2647,5.62896,-2.365312,1.001912,-74.873345,-45.400717,-8.14377
323,738936599,-41.397835,14.58297,-43.303802,-1.0758781,0.62284565,2.0195503,34.01352,15.140062,14.467581,5.611029,-2.354931,1.035571,-74.306453,-45.148383,-7.902644
324,738953266,-39.9495,13.926735,-42.05337,-0.9131565,-0.324512,1.8491496,52.738655,10.495752,21.301949,5.59581,-2.36034,1.06639,-73.427475,-44.973454,-7.547612
325,738969933,-38.46248,13.00309,-40.567757,-0.6232605,-1.504432,1.6885958,76.04632,5.130897,27.880247,5.585422,-2.385414,1.094533,-72.160036,-44.887939,-7.082941
326,738986600,-36.52835,12.329262,-39.30766,-0.47476482,-2.2108326,1.5759373,91.71694,2.6044326,32.81305,5.577509,-2.422261,1.120799,-70.63142,-44.844532,-6.536057
327,739003267,-34.14382,11.923683,-38.290287,-0.44926834,-2.4267657,1.5225234,100.38733,3.1784778,35.495865,5.570021,-2.462707,1.146174,-68.958298,-44.791557,-5.944459
328,739019934,-31.444069,11.558189,-37.311928,-0.47574615,-2.420782,1.5036762,105.00133,5.272755,37.336533,5.562092,-2.503053,1.171235,-67.208276,-44.703678,-5.322183
329,739036601,-28.322693,11.366631,-36.492146,-0.61573505,-2.007989,1.533508,102.60258,9.880365,37.796318,5.55183,-2.536519,1.196793,-65.498233,-44.539005,-4.692244
330,739053268,-25.087059,10.987663,-35.511486,-0.62406254,-1.7093527,1.601727,104.306,14.74901,36.63817,5.541429,-2.565008,1.223488,-63.7598,-44.293188,-4.081608
331,739069935,-21.745934,10.397217,-34.348854,-0.48979855,-1.5476596,1.7089171,110.42527,19.78167,33.897873,5.533266,-2.590802,1.25197,-61.919379,-43.963494,-3.516643
332,739086602,-18.05275,9.888214,-33.264515,-0.38430023,-1.103143,1.8746345,112.926926,26.990452,29.156675,5.526861,-2.609188,1.283214,-60.037264,-43.513653,-3.030698
333,739103269,-14.06852,9.381805,-32.189037,-0.25296783,-0.48333955,2.0989847,114.14729,35.940514,22.300556,5.522645,-2.617244,1.318197,-58.134809,-42.914644,-2.659022
334,739119936,-10.89167,8.786339,-31.222546,-0.21917343,-0.15131664,2.219532,111.94968,40.698975,19.310858,5.518992,-2.619766,1.355189,-56.268981,-42.236328,-2.337174
335,739136603,-8.601303,8.128563,-30.407837,-0.31207943,-0.099274635,2.225134,105.20576,40.967552,20.62231,5.513791,-2.621421,1.392275,-54.515552,-41.553535,-1.993469
336,739153270,-6.7205276,7.398033,-29.651577,-0.4338007,-0.17870426,2.1946888,96.50876,39.287884,23.257103,5.506561,-2.624399,1.428853,-52.907073,-40.898737,-1.605851
337,739169937,-5.556549,6.579529,-28.993477,-0.62301254,-0.50481844,2.0843656,84.989685,34.06589,28.830587,5.496177,-2.632813,1.463592,-51.490578,-40.330972,-1.125341
338,739186604,-4.4084396,5.799675,-28.442688,-0.85042286,-0.69614816,1.9960912,69.69819,29.30183,33.7045,5.482003,-2.644415,1.49686,-50.328942,-39.842608,-0.563599
339,739203271,-3.2490158,5.061142,-27.99857,-1.1089354,-0.7370887,1.936996,50.71694,25.198088,37.609634,5.463521,-2.6567,1.529143,-49.48366,-39.42264,0.063228
340,739219938,-2.703949,4.290947,-27.697021,-1.4480515,-0.91498566,1.8184619,27.652658,18.368597,43.751427,5.439387,-2.67195,1.559451,-49.022782,-39.116497,0.792418
341,739236605,-2.639473,3.5179596,-27.545769,-1.8623743,-1.1487243,1.6620324,0.20524788,9.629948,51.3592,5.408347,-2.691095,1.587152,-49.019361,-38.955998,1.648405
342,739253272,-2.5636215,2.806038,-27.726383,-2.0876179,-1.3186905,1.5558273,-17.346481,2.56302,54.812744,5.373553,-2.713073,1.613082,-49.308469,-38.913281,2.561951
343,739269939,-2.5238876,2.1578598,-28.272018,-2.107067,-1.4462609,1.4966536,-23.810547,-2.9391541,53.981506,5.338435,-2.737177,1.638026,-49.705311,-38.962267,3.461643
344,739286606,-2.6804886,1.5667,-29.111526,-2.043725,-1.5322869,1.4567765,-26.242815,-8.056854,51.013466,5.304373,-2.762715,1.662306,-50.142691,-39.096548,4.311867
345,739303273,-2.9327545,1.0526543,-30.307823,-1.8262787,-1.5517373,1.4572495,-20.69497,-11.929731,44.442024,5.273935,-2.788577,1.686593,-50.487607,-39.295377,5.052567
346,739319940,-3.7531662,0.5630913,-31.776123,-1.6204014,-1.6491394,1.4239811,-15.602131,-17.559479,38.335915,5.246928,-2.816063,1.710326,-50.747643,-39.588035,5.691499
347,739336607,-5.1801224,0.10227203,-33.52514,-1.4362383,-1.8263166,1.3534193,-11.506682,-25.100641,32.874496,5.222991,-2.846502,1.732883,-50.939421,-40.006379,6.239407
348,739353274,-6.9093246,-0.28271866,-35.662422,-1.1291895,-1.9912891,1.2997079,-0.73233366,-32.35502,24.761087,5.204171,-2.87969,1.754545,-50.951627,-40.545629,6.652092
349,739369941,-9.05938,-0.59845734,-38.18311,-0.73338795,-2.175052,1.2465627,15.015291,-39.987587,14.833427,5.191948,-2.915941,1.775321,-50.701372,-41.212089,6.899316
350,739386608,-10.770569,-0.8394699,-40.092266,-0.47041512,-2.2370949,1.0964925,22.226446,-44.32184,7.6712675,5.184108,-2.953226,1.793596,-50.330931,-41.950786,7.02717
351,739403275,-11.938385,-0.9955139,-41.315308,-0.34241676,-2.1548948,0.84521186,20.667833,-44.748585,3.3065486,5.178401,-2.989141,1.807683,-49.986467,-42.696596,7.082279
352,739419942,-13.064308,-1.0692444,-42.32844,-0.26633644,-2.016891,0.52665967,15.685703,-43.464672,0.12448168,5.173962,-3.022756,1.816461,-49.725039,-43.421007,7.084354
353,739436609,-13.904449,-1.0538635,-42.858604,-0.29862309,-1.7813201,0.11376715,3.8261757,-39.347237,-0.69869256,5.168985,-3.052445,1.818357,-49.661269,-44.076794,7.072709
354,739453276,-14.900139,-0.9323387,-43.525345,-0.27241325,-1.5046322,-0.3242358,-5.0036077,-33.961945,-2.7014391,5.164445,-3.077522,1.812953,-49.744662,-44.642826,7.027685
355,739469943,-16.093697,-0.6993294,-44.366955,-0.1795063,-1.192611,-0.7863302,-10.263599,-27.41825,-6.028988,5.161453,-3.097399,1.799847,-49.915722,-45.099797,6.927202
356,739486610,-17.051643,-0.35349655,-44.835453,-0.15100002,-0.77946424,-1.3317738,-19.815285,-17.898783,-7.9071307,5.158936,-3.11039,1.777651,-50.245977,-45.39811,6.795416
357,739503277,-17.866173,0.11344147,-45.057636,-0.1514616,-0.27564526,-1.9478934,-31.537443,-5.666781,-9.072409,5.156412,-3.114984,1.745186,-50.771601,-45.492556,6.644209
358,739519944,-18.501808,0.4546547,-45.392914,-0.122341156,0.07108593,-2.2671652,-37.242756,2.5681129,-10.56389,5.154373,-3.113799,1.7074,-51.392314,-45.449754,6.468144
359,739536611,-18.887726,0.65008926,-45.7985,-0.073830605,0.24746943,-2.2611203,-37.06084,6.470295,-12.136462,5.153142,-3.109675,1.669715,-52.009995,-45.341916,6.26587
360,739553278,-19.092659,0.825737,-46.18122,-0.009775162,0.36554718,-2.0952225,-33.40284,9.11043,-13.781856,5.152979,-3.103583,1.634795,-52.566709,-45.190076,6.036172
361,739569945,-19.077599,0.91422653,-46.61381,0.08168411,0.3592534,-1.6665056,-24.194817,8.717438,-15.685004,5.15434,-3.097595,1.60702,-52.969956,-45.044785,5.774755
362,739586612,-18.745346,1.0648499,-46.737385,0.1322546,0.39031267,-1.2043309,-16.177902,9.726704,-16.490448,5.156544,-3.09109,1.586948,-53.239588,-44.882673,5.499914
363,739603279,-18.079689,1.2890053,-46.528343,0.14012337,0.46853685,-0.71872425,-9.545995,12.43127,-16.150543,5.158879,-3.083281,1.574969,-53.398688,-44.675485,5.230738
364,739619946,-17.077934,1.4540176,-46.216312,0.14828491,0.45626497,-0.0029996634,0.8535509,13.10717,-15.462726,5.16135,-3.075677,1.574919,-53.384462,-44.457032,4.973026
365,739636613,-15.701508,1.591526,-45.71406,0.14150524,0.38728523,0.89874625,13.643442,12.701923,-14.109888,5.163708,-3.069222,1.589898,-53.157071,-44.245333,4.737861
366,739653280,-14.796478,1.7622147,-45.28542,0.13283062,0.35168266,1.5028641,20.66136,12.927967,-13.306572,5.165922,-3.063361,1.614946,-52.812715,-44.029867,4.516085
367,739669947,-14.426437,1.9536514,-44.97117,0.12690163,0.33980656,1.7919838,21.71924,13.469994,-13.218615,5.168037,-3.057698,1.644812,-52.450728,-43.805367,4.295775
368,739686614,-14.148499,2.1570702,-44.57639,0.10594559,0.33057976,1.9690336,19.749073,14.139818,-13.019845,5.169803,-3.052188,1.677629,-52.121577,-43.569703,4.078778
369,739703281,-14.189087,2.3829613,-44.174316,0.07374573,0.34317303,1.9071884,12.590582,15.262566,-13.046185,5.171032,-3.046468,1.709415,-51.911734,-43.315327,3.861342
370,739719948,-14.0336075,2.5613518,-43.656696,0.033037186,0.28860998,1.9456373,6.3712406,14.879984,-12.766092,5.171583,-3.041658,1.741842,-51.805547,-43.067327,3.648574
371,739736615,-13.636833,2.687992,-43.0013,-0.018517494,0.16230536,2.1031315,1.3041363,12.908604,-12.092135,5.171274,-3.038953,1.776894,-51.783811,-42.852184,3.447038
372,739753282,-13.447121,2.8040085,-42.322517,-0.07951546,0.022939682,2.1017814,-7.561203,10.549068,-11.570746,5.169949,-3.038571,1.811924,-51.909831,-42.676366,3.254192
373,739769949,-13.350784,2.8920212,-41.592422,-0.15020466,-0.1501584,2.0130658,-18.99198,7.342558,-11.0745325,5.167446,-3.041074,1.845475,-52.226364,-42.55399,3.069616
374,739786616,-13.284103,3.0080147,-41.21726,-0.19391632,-0.2577443,1.954751,-24.799385,4.6462817,-10.36578,5.164214,-3.04537,1.878054,-52.639687,-42.476552,2.896853
375,739803283,-13.299461,3.1592102,-41.25401,-0.2067318,-0.28513145,1.9025748,-24.817394,2.6714838,-9.496749,5.160768,-3.050122,1.909764,-53.05331,-42.432027,2.738574
376,739819950,-13.351509,3.3046265,-41.492867,-0.20631027,-0.29489183,1.8474762,-22.123154,0.41366386,-8.493686,5.157329,-3.055037,1.940555,-53.422029,-42.425133,2.597013
377,739836617,-13.44236,3.4590683,-42.057495,-0.18195057,-0.25818014,1.8110349,-14.583105,-1.7501822,-7.3165007,5.154296,-3.05934,1.970739,-53.665081,-42.454303,2.475071
378,739853284,-13.720039,3.5973206,-42.73759,-0.15564537,-0.21914673,1.6512263,-8.309735,-4.349072,-6.22187,5.151702,-3.062992,1.998259,-53.803577,-42.526788,2.371373
379,739869951,-14.190681,3.7140503,-43.525757,-0.12833214,-0.18277454,1.3620793,-3.5716014,-7.4947295,-5.2231226,5.149563,-3.066038,2.02096,-53.863104,-42.6517,2.284321
380,739886618,-14.790878,3.8335419,-44.642483,-0.0792799,-0.10157871,1.0287734,4.519806,-10.611622,-4.1680303,5.148242,-3.067731,2.038106,-53.787774,-42.82856,2.214854
381,739903285,-15.559273,3.948845,-46.052887,-0.0125694275,0.015418053,0.61779225,14.696653,-13.835398,-3.11874,5.148033,-3.067474,2.048403,-53.54283,-43.05915,2.162875
382,739919952,-16.034897,4.0253525,-47.005173,0.020096779,0.06760025,0.3370679,20.677763,-15.543392,-2.1819437,5.148368,-3.066347,2.054021,-53.198201,-43.318207,2.126509
383,739936619,-16.17482,4.0621185,-47.463627,0.01684475,0.052569866,0.21252573,22.453535,-15.489513,-1.3619447,5.148649,-3.065471,2.057563,-52.823975,-43.576366,2.10381
384,739953286,-16.230766,4.0698395,-47.769455,-7.8201294e-05,0.0128006935,0.119608164,22.150476,-14.52693,-0.66084874,5.148648,-3.065258,2.059556,-52.4548,-43.818481,2.092796
385,739969953,-16.0765,4.0390244,-47.724743,-0.044151306,-0.077364445,0.11711252,18.160324,-12.153807,-0.11413765,5.147912,-3.066547,2.061508,-52.152128,-44.021044,2.090894
386,739986620,-15.970879,3.9932861,-47.83435,-0.07932186,-0.14718819,0.103129745,15.424175,-9.184742,0.3668859,5.14659,-3.069,2.063227,-51.895058,-44.174123,2.097009
387,740003287,-15.937248,3.9325714,-48.1315,-0.10340595,-0.1922102,0.0669297,14.129913,-5.6455636,0.7703266,5.144867,-3.072204,2.064342,-51.659559,-44.268216,2.109848
388,740019954,-15.738052,3.8364182,-48.195827,-0.14585304,-0.2692294,0.11053729,10.431211,-0.6571679,1.0131721,5.142436,-3.076691,2.066184,-51.485705,-44.279169,2.126734
389,740036621,-15.428986,3.7088623,-48.13562,-0.1989479,-0.36287212,0.21242988,5.352475,5.650599,1.1033618,5.13912,-3.082739,2.069724,-51.396497,-44.184992,2.145123
390,740053288,-15.187439,3.6214218,-48.148407,-0.22947216,-0.42160463,0.28601182,2.2882776,9.611167,1.2166915,5.135295,-3.089766,2.074491,-51.358359,-44.024806,2.165401
391,740069955,-14.997841,3.5779877,-48.199776,-0.23777199,-0.44709635,0.338243,1.101119,11.018681,1.3519318,5.131332,-3.097218,2.080128,-51.340007,-43.841161,2.187933
392,740086622,-14.811798,3.546936,-48.268116,-0.23430443,-0.45304227,0.39737833,0.8674221,11.557465,1.4220898,5.127427,-3.104769,2.086751,-51.32555,-43.648537,2.211634
393,740103289,-14.667824,3.54747,-48.392002,-0.2106657,-0.42662978,0.44499528,2.4137983,10.248171,1.4672277,5.123916,-3.111879,2.094168,-51.28532,-43.477734,2.236088
394,740119956,-14.402733,3.5317001,-48.348747,-0.19357395,-0.41181803,0.5578787,2.7359962,9.493371,1.3466322,5.12069,-3.118743,2.103466,-51.23972,-43.319511,2.258532
395,740136623,-14.0074005,3.4969177,-48.12978,-0.18393898,-0.40974545,0.7416776,1.7306252,9.445191,1.0441911,5.117624,-3.125572,2.115827,-51.210876,-43.162091,2.275935
396,740153290,-13.592247,3.4837723,-47.873726,-0.1612196,-0.38749146,0.9447656,1.5889626,8.062096,0.65890455,5.114937,-3.13203,2.131573,-51.184393,-43.027723,2.286917
397,740169957,-13.119438,3.482338,-47.529224,-0.13093185,-0.35406828,1.1857594,1.6722193,5.8501463,0.15411305,5.112755,-3.137931,2.151336,-51.156523,-42.930221,2.289486
398,740186624,-12.80555,3.4697266,-47.353935,-0.113453865,-0.34019208,1.3343375,1.3828115,4.428692,-0.20393908,5.110864,-3.143601,2.173575,-51.133476,-42.856409,2.286087
399,740203291,-12.681854,3.4492188,-47.383587,-0.10830498,-0.344975,1.3734698,0.905324,3.6869044,-0.38170385,5.109059,-3.149351,2.196466,-51.118387,-42.794961,2.279725
400,740219958,-12.617729,3.425415,-47.457092,-0.109539986,-0.35992575,1.3791015,0.07909298,3.1866672,-0.5345322,5.107233,-3.15535,2.219451,-51.117069,-42.74185,2.270816
401,740236625,-12.676651,3.3937607,-47.648197,-0.12224388,-0.39270163,1.3136072,-1.2042923,3.2975636,-0.58622265,5.105196,-3.161895,2.241344,-51.137141,-42.686891,2.261046
402,740253292,-12.758629,3.3785706,-47.83955,-0.1290493,-0.41645598,1.2416863,-2.022499,2.544645,-0.6740607,5.103045,-3.168836,2.262039,-51.170849,-42.64448,2.249812
403,740269959,-12.854347,3.3812256,-48.01755,-0.12938118,-0.43036747,1.1690764,-2.3790321,0.8587861,-0.81078625,5.100889,-3.176009,2.281524,-51.2105,-42.630167,2.236299
404,740286626,-13.070389,3.386406,-48.30525,-0.13623619,-0.45435762,1.03012,-2.8166618,-0.7314677,-0.8608954,5.098618,-3.183582,2.298693,-51.257444,-42.642358,2.221951
405,740303293,-13.38723,3.3999405,-48.67798,-0.14597702,-0.48282337,0.8377638,-3.1393118,-2.5567398,-0.85274184,5.096185,-3.191629,2.312656,-51.309766,-42.68497,2.207739
406,740319960,-13.604843,3.4027023,-48.952816,-0.15559578,-0.49817896,0.7126207,-3.6594553,-3.6075702,-0.85199916,5.093592,-3.199932,2.324533,-51.370757,-42.745096,2.193539
407,740336627,-13.721008,3.3918228,-49.130783,-0.16633034,-0.5009725,0.6563211,-4.449961,-3.683045,-0.8441435,5.09082,-3.208282,2.335472,-51.444923,-42.80648,2.17947
408,740353294,-13.820229,3.3809433,-49.284027,-0.17716599,-0.49568152,0.6191052,-5.2180862,-3.5004582,-0.814162,5.087867,-3.216543,2.34579,-51.531891,-42.864821,2.165901
409,740369961,-13.852875,3.3647385,-49.368076,-0.18768883,-0.47788525,0.631237,-6.0539594,-2.7508698,-0.7719673,5.084739,-3.224508,2.356311,-51.63279,-42.910669,2.153035
410,740386628,-13.964516,3.3512115,-49.520653,-0.20316315,-0.4630983,0.6049855,-6.9227924,-1.7676959,-0.64271784,5.081353,-3.232226,2.366394,-51.74817,-42.940131,2.142323
411,740403295,-14.165428,3.3418274,-49.75087,-0.22366524,-0.45167685,0.5346866,-7.7935753,-0.6011858,-0.41948044,5.077625,-3.239754,2.375305,-51.878063,-42.950151,2.135332
412,740419962,-14.342491,3.3281631,-49.953953,-0.24635792,-0.43206215,0.48916906,-8.757845,1.1935625,-0.14371634,5.073519,-3.246955,2.383458,-52.024027,-42.930258,2.132937
413,740436629,-14.528496,3.3121643,-50.160942,-0.2724533,-0.4074185,0.44905007,-9.801718,3.5542943,0.20481539,5.068978,-3.253745,2.390942,-52.187389,-42.87102,2.136351
414,740453296,-14.748604,3.302948,-50.379936,-0.251956,-0.3920002,0.42710716,-10.505106,4.467979,0.35501957,5.064779,-3.260278,2.39806,-52.362474,-42.796554,2.142268
415,740469963,-14.992821,3.3002548,-50.60048,-0.17961693,-0.3858509,0.43266284,-10.84112,3.8144941,0.27921438,5.061785,-3.266709,2.405271,-52.543159,-42.732979,2.146922
416,740486630,-15.27285,3.3011932,-50.841152,-0.079800606,-0.38436174,0.44625133,-10.997339,2.5168307,0.1226635,5.060455,-3.273115,2.412709,-52.726448,-42.691032,2.148966
417,740503297,-15.592766,3.3079605,-51.10161,0.061958313,-0.39123178,0.47388136,-10.859163,0.033491135,-0.19064355,5.061488,-3.279636,2.420607,-52.907434,-42.690474,2.145789
418,740519964,-15.9112625,3.3135757,-51.352386,0.21765709,-0.39502096,0.5252533,-10.680263,-2.3517952,-0.5093936,5.065116,-3.28622,2.429361,-53.085438,-42.729671,2.137299
419,740536631,-16.229263,3.3177872,-51.59499,0.3860607,-0.39537048,0.59975654,-10.472809,-4.562135,-0.8218554,5.07155,-3.29281,2.439357,-53.259985,-42.805707,2.123601
420,740553298,-16.57048,3.325882,-51.84344,0.5943146,-0.40120268,0.69871706,-10.008891,-7.707784,-1.2701931,5.081455,-3.299497,2.451002,-53.4268,-42.93417,2.102431
421,740569965,-16.92646,3.3364182,-52.091747,0.8373127,-0.41019106,0.8249227,-9.3379345,-11.523687,-1.8233662,5.09541,-3.306334,2.464751,-53.582432,-43.126231,2.072042
422,740586632,-17.30954,3.3721466,-52.46632,0.9538989,-0.34750795,0.93447345,-8.568938,-13.754604,-2.510085,5.111308,-3.312126,2.480326,-53.725248,-43.355474,2.030207
423,740603299,-17.722862,3.436058,-52.98075,0.932137,-0.20661259,1.0247847,-7.67789,-14.325384,-3.3549724,5.126844,-3.31557,2.497406,-53.853213,-43.59423,1.974291
424,740619966,-18.154533,3.5165482,-53.571392,0.8451109,-0.021010399,1.1196262,-6.6404686,-14.129444,-4.3269873,5.140929,-3.31592,2.516066,-53.963887,-43.829721,1.902175
425,740636633,-18.608185,3.620407,-54.27465,0.6480589,0.23069239,1.2077744,-5.473349,-12.570562,-5.443609,5.15173,-3.312075,2.536196,-54.055109,-44.03923,1.811448
426,740653300,-19.083595,3.736061,-55.0224,0.44177818,0.5031524,1.315899,-4.0463767,-11.246014,-6.7279363,5.159093,-3.303689,2.558128,-54.122549,-44.226664,1.699316
427,740669967,-19.57965,3.8630753,-55.811165,0.23108196,0.7947993,1.4468982,-2.3477325,-10.22752,-8.1847315,5.162944,-3.290442,2.582243,-54.161678,-44.397123,1.562904
428,740686634,-20.099525,4.013588,-56.707893,-0.074147224,1.1477389,1.5783646,-0.44935942,-8.200136,-9.823374,5.161708,-3.271313,2.608549,-54.169167,-44.533792,1.399181
429,740703301,-20.642982,4.1856766,-57.70004,-0.45420074,1.5536628,1.7166156,1.6838484,-5.4904046,-11.654833,5.154138,-3.245419,2.637159,-54.141103,-44.625299,1.204934
430,740719968,-21.107689,4.286804,-58.474407,-0.66895103,1.7865233,1.8174632,3.1464863,-4.124535,-12.005638,5.142989,-3.215644,2.66745,-54.088662,-44.694041,1.00484
431,740736635,-21.483856,4.309723,-59.010235,-0.7075205,1.8300614,1.8738046,3.845726,-4.131473,-10.712641,5.131197,-3.185143,2.69868,-54.024567,-44.762899,0.826296
432,740753302,-21.819267,4.297104,-59.448353,-0.6714268,1.7860813,1.9108914,4.2368946,-4.7652507,-8.572744,5.120007,-3.155375,2.730528,-53.953952,-44.84232,0.683417
433,740769969,-22.084526,4.2231445,-59.702915,-0.4965973,1.5919461,1.9151578,4.061348,-6.549441,-5.105629,5.11173,-3.128843,2.762447,-53.886263,-44.951477,0.598323
434,740786636,-22.338722,4.14489,-59.974064,-0.3471346,1.390347,1.9070284,3.8303738,-7.9549212,-1.2812517,5.105944,-3.105671,2.794231,-53.822423,-45.084059,0.576969
435,740803303,-22.584137,4.065117,-60.27201,-0.23138428,1.1880803,1.8876307,3.5726423,-8.91482,2.8582754,5.102088,-3.08587,2.825692,-53.762879,-45.232639,0.624607
436,740819970,-22.764503,3.9324036,-60.421238,-0.011814117,0.85829306,1.8341691,2.8008785,-10.641472,8.232543,5.101891,-3.071565,2.856261,-53.716198,-45.409997,0.761816
437,740836637,-22.890533,3.7578583,-60.46174,0.27785206,0.42898226,1.7500502,1.6129141,-12.816328,14.661978,5.106522,-3.064415,2.885429,-53.689316,-45.623602,1.006182
438,740853304,-23.073357,3.6096115,-60.741623,0.45985413,0.16074038,1.7023686,1.4133501,-13.96459,17.986748,5.114186,-3.061736,2.913802,-53.66576,-45.856345,1.305961
439,740869971,-23.314827,3.4866714,-61.27073,0.5348854,0.061056614,1.693626,2.2670822,-14.090038,17.932486,5.123101,-3.060718,2.942029,-53.627975,-46.091179,1.604836
440,740886638,-23.56778,3.3632202,-61.90923,0.5653305,0.02351141,1.6933562,3.5660896,-13.676535,16.36001,5.132523,-3.060326,2.970252,-53.56854,-46.319121,1.877503
441,740903305,-23.860123,3.2556686,-62.7479,0.50655174,0.11586571,1.7188421,5.6836233,-12.347359,12.128305,5.140966,-3.058395,2.998899,-53.473813,-46.52491,2.079641
442,740919972,-24.110374,3.1097794,-63.536858,0.49860096,0.15155315,1.7241066,7.669018,-11.278259,7.9050264,5.149276,-3.055869,3.027634,-53.345996,-46.712881,2.211391
443,740936639,-24.312897,2.9220314,-64.26335,0.54798126,0.12048435,1.7058359,9.469587,-10.511404,3.823779,5.158409,-3.053861,3.056065,-53.18817,-46.888071,2.275121
444,740953306,-24.531319,2.7326965,-65.12991,0.54722595,0.17358065,1.7014159,11.88199,-9.136389,-2.453227,5.167529,-3.050968,3.084422,-52.990137,-47.040344,2.234234
445,740969973,-24.74739,2.5294342,-66.084114,0.5262499,0.27136278,1.700692,14.70846,-7.396299,-10.394006,5.1763,-3.046445,3.112767,-52.744996,-47.163616,2.061001
446,740986640,-24.875282,2.4759865,-66.80405,0.53347206,0.32674885,1.6973681,16.470488,-5.9138646,-15.8181,5.185191,-3.040999,3.141056,-52.470488,-47.26218,1.797366
447,741003307,-24.913345,2.5933075,-67.28295,0.5610676,0.3501644,1.6953478,17.124317,-4.638182,-18.641953,5.194542,-3.035163,3.169312,-52.185083,-47.339483,1.486667
448,741019974,-24.888763,2.7958107,-67.63761,0.6066351,0.35660553,1.6906269,17.237537,-3.4353948,-20.516249,5.204653,-3.02922,3.197489,-51.897791,-47.39674,1.14473
449,741036641,-24.778465,3.132019,-67.783394,0.6804333,0.3272977,1.6827848,16.419449,-2.4486976,-20.365162,5.215994,-3.023765,3.225535,-51.624134,-47.437552,0.805311
450,741053308,-24.646866,3.5176315,-67.95931,0.72651863,0.35234308,1.6846943,15.734135,-1.0692253,-21.257893,5.228103,-3.017893,3.253613,-51.361898,-47.455372,0.451013
451,741069975,-24.494965,3.9485626,-68.17417,0.7439499,0.43499708,1.6964958,15.225616,0.72394466,-23.356342,5.240502,-3.010643,3.281888,-51.108138,-47.443306,0.061741
452,741086642,-24.26989,4.5114822,-68.23493,0.76877403,0.5157957,1.7118605,14.022612,2.511272,-24.21552,5.253315,-3.002046,3.310419,-50.874428,-47.401451,-0.341851
453,741103309,-23.983788,5.1915665,-68.18994,0.7889271,0.61490583,1.7338117,12.341301,4.425849,-24.488247,5.266464,-2.991798,3.339316,-50.66874,-47.327687,-0.749988
454,741119976,-23.659477,5.7770996,-68.10339,0.7160759,0.6856079,1.7354605,11.188904,6.1538625,-25.666012,5.278399,-2.980371,3.36824,-50.482258,-47.225123,-1.177755
455,741136643,-23.29145,6.2619934,-67.9557,0.5443258,0.7180495,1.7139931,10.54981,7.622101,-27.595705,5.287471,-2.968404,3.396807,-50.306428,-47.098088,-1.637683
456,741153310,-22.875656,6.739662,-67.74653,0.30609703,0.7493224,1.6845617,10.085623,9.07399,-30.01148,5.292573,-2.955915,3.424883,-50.138334,-46.946855,-2.137874
457,741169977,-22.415504,7.156151,-67.4849,-0.02398777,0.76543665,1.6397122,10.045313,10.410852,-33.24739,5.292173,-2.943158,3.452212,-49.970912,-46.773341,-2.691997
458,741186644,-21.881355,7.6606445,-67.07888,-0.38611507,0.7790494,1.5936267,9.605196,11.707106,-35.803093,5.285738,-2.930174,3.478772,-49.810825,-46.578223,-3.288715
459,741203311,-21.270752,8.263672,-66.52316,-0.7797699,0.7934427,1.5476379,8.726763,12.979099,-37.633003,5.272742,-2.91695,3.504566,-49.665379,-46.361905,-3.915932
460,741219978,-20.599792,8.8459015,-65.86732,-1.2583961,0.79012203,1.4882191,8.028448,14.100048,-39.75332,5.251769,-2.903781,3.52937,-49.531572,-46.126904,-4.578487
461,741236645,-19.860565,9.440483,-65.08803,-1.8115749,0.77196264,1.4183768,7.3321543,15.082577,-41.836807,5.221576,-2.890915,3.55301,-49.409369,-45.875528,-5.275767
462,741253312,-18.951256,9.92366,-64.46364,-2.152132,0.7591753,1.3256688,8.902025,15.951876,-40.99376,5.185707,-2.878262,3.575104,-49.261002,-45.609663,-5.958996
463,741269979,-17.861313,10.268585,-64.02318,-2.2595444,0.75043917,1.2067931,13.041386,16.682892,-37.023285,5.148048,-2.865755,3.595217,-49.043646,-45.331615,-6.576051
464,741286646,-16.631058,10.556068,-63.615917,-2.2635698,0.7376065,1.0693425,18.568562,17.263512,-31.0371,5.110322,-2.853462,3.613039,-48.73417,-45.04389,-7.093336
465,741303313,-15.22966,10.74588,-63.31998,-2.0847607,0.7248926,0.90886045,26.16234,17.68585,-22.208773,5.075576,-2.84138,3.628187,-48.298131,-44.749126,-7.463482
466,741319980,-13.716949,10.879593,-62.98297,-1.9053946,0.6961546,0.72887015,34.686287,17.896666,-12.44705,5.043819,-2.829777,3.640335,-47.720026,-44.450848,-7.670933
467,741336647,-12.092346,10.959969,-62.592793,-1.7344055,0.6497879,0.5291723,44.092773,17.881428,-1.7799087,5.014912,-2.818947,3.649155,-46.985146,-44.152824,-7.700598
468,741353314,-10.296417,10.928101,-62.293972,-1.4103956,0.59675074,0.30348814,55.577675,17.649658,11.508503,4.991405,-2.809001,3.654213,-46.058851,-43.858663,-7.50879
469,741369981,-8.338097,10.789291,-62.055283,-0.9693661,0.5329175,0.051841855,68.94909,17.178732,27.081003,4.975249,-2.800119,3.655077,-44.9097,-43.572351,-7.05744
470,741386648,-6.8269196,10.376419,-61.83909,-0.68315506,0.4380412,-0.11542475,75.68496,17.26428,39.703644,4.963863,-2.792818,3.653153,-43.648284,-43.284613,-6.395713
471,741403315,-5.814041,9.65892,-61.66373,-0.55537415,0.31068516,-0.18871224,75.13216,17.9773,49.1258,4.954607,-2.78764,3.650008,-42.396081,-42.984991,-5.57695
472,741419982,-5.0162582,8.713226,-61.52924,-0.47902203,0.15685081,-0.22048569,71.214165,18.91875,57.64508,4.946623,-2.785026,3.646333,-41.209178,-42.669678,-4.616199
473,741436649,-4.605133,7.4831085,-61.43408,-0.5231161,-0.029538631,-0.17969227,61.561066,20.310371,63.870148,4.937904,-2.785518,3.643338,-40.18316,-42.331172,-3.551697
474,741453316,-4.2098923,6.0427628,-61.440006,-0.4848194,-0.23515224,-0.13232708,51.447655,21.680708,71.36392,4.929824,-2.789437,3.641133,-39.325699,-41.969827,-2.362298
475,741469983,-3.813034,4.3878326,-61.55336,-0.35274506,-0.46046567,-0.08175993,41.136642,22.99894,80.3331,4.923945,-2.797111,3.63977,-38.640088,-41.586511,-1.023413
476,741486650,-3.7532654,2.4244957,-61.74696,-0.28603935,-0.71806026,0.032687306,25.889383,24.69548,87.80186,4.919178,-2.809079,3.640315,-38.208598,-41.17492,0.439951
477,741503317,-3.9592514,0.15885162,-62.038853,-0.24081993,-1.0060399,0.1982398,6.7397575,26.674896,94.518005,4.915164,-2.825846,3.643619,-38.096269,-40.730338,2.015251
478,741519984,-3.9399796,-1.7042198,-62.33015,-0.13283253,-1.1979315,0.28623497,-4.7087336,27.052748,98.305695,4.91295,-2.845812,3.64839,-38.174748,-40.279459,3.653679
479,741536651,-3.6984863,-3.1152115,-62.613636,0.027467728,-1.28319,0.29302335,-7.9902897,25.700054,98.54152,4.913408,-2.867199,3.653274,-38.307919,-39.851125,5.296038
480,741553318,-3.4272919,-4.4106445,-62.953518,0.23051453,-1.3206215,0.27206624,-7.965859,23.443474,96.71595,4.91725,-2.889209,3.657808,-38.440683,-39.4604,6.907971
481,741569985,-3.0068054,-5.3987656,-63.325367,0.49503613,-1.2746713,0.1900773,-1.5650506,19.761114,92.050415,4.925501,-2.910454,3.660976,-38.466767,-39.131048,8.442145
482,741586652,-2.820198,-6.523758,-63.786777,0.7319374,-1.2225835,0.13881898,3.1733723,15.8530445,84.985504,4.9377,-2.93083,3.66329,-38.413877,-38.866831,9.85857
483,741603319,-2.8928528,-7.8141556,-64.34745,0.9395642,-1.1680555,0.12359297,5.829899,11.771276,75.512245,4.953359,-2.950298,3.66535,-38.316712,-38.670643,11.117107
484,741619986,-2.9369736,-8.881737,-64.96024,1.177608,-1.0407324,0.07038212,13.06708,6.4518313,62.629875,4.972986,-2.967644,3.666523,-38.098927,-38.563112,12.160938
485,741636653,-3.0394974,-9.818687,-65.64089,1.4271207,-0.855531,-0.001178503,23.215908,0.12774992,46.3181,4.996771,-2.981903,3.666503,-37.711995,-38.560983,12.932906
486,741653320,-3.101944,-10.628983,-66.21741,1.6580129,-0.7013843,-0.06514168,28.264307,-4.399079,34.02156,5.024405,-2.993593,3.665417,-37.240923,-38.634301,13.499932
487,741669987,-3.084137,-11.257923,-66.66829,1.8730631,-0.57637453,-0.12817323,28.286798,-7.0036445,26.213617,5.055623,-3.003199,3.663281,-36.769476,-38.751028,13.936826
488,741686654,-3.095543,-11.759605,-67.08702,2.0727992,-0.4467523,-0.18941653,25.982405,-8.86952,19.249372,5.09017,-3.010645,3.660124,-36.336436,-38.898853,14.257649
489,741703321,-3.100914,-12.113754,-67.42338,2.2495422,-0.33360386,-0.24439728,19.345404,-9.249926,15.112665,5.127662,-3.016205,3.656051,-36.014013,-39.053018,14.509527
490,741719988,-3.0894318,-12.211575,-67.76909,2.4363027,-0.16491318,-0.32735395,14.790592,-10.066313,9.090211,5.168267,-3.018954,3.650595,-35.767503,-39.22079,14.661031
491,741736655,-3.068756,-12.042976,-68.13018,2.6323752,0.064269066,-0.4393252,12.595465,-11.417063,0.82683206,5.21214,-3.017883,3.643273,-35.557579,-39.411074,14.674812
492,741753322,-3.011528,-11.633064,-68.41569,2.814166,0.30134058,-0.56033254,7.8678017,-11.695475,-5.6359215,5.259043,-3.012861,3.633934,-35.426449,-39.605999,14.58088
493,741769989,-2.91465,-10.947193,-68.64311,2.987759,0.56295776,-0.69831777,1.9709024,-11.297344,-11.3165455,5.308839,-3.003478,3.622295,-35.393601,-39.794288,14.392271
494,741786656,-2.824234,-10.419098,-68.94453,3.0781898,0.77018404,-0.8128233,-0.24999142,-11.790001,-17.099937,5.360142,-2.990642,3.608748,-35.397768,-39.990788,14.107272
495,741803323,-2.7359314,-10.080254,-69.31823,3.0745554,0.9098549,-0.898654,1.1207247,-13.113979,-22.53979,5.411385,-2.975478,3.59377,-35.379089,-40.209354,13.731609
496,741819990,-2.6222305,-9.69006,-69.71084,3.0153847,1.031394,-0.981163,4.7376995,-14.780767,-27.882654,5.461641,-2.958288,3.577417,-35.300127,-40.4557,13.266898
497,741836657,-2.4906158,-9.361881,-70.153786,2.8776612,1.1109858,-1.0490048,11.837265,-17.16438,-33.19464,5.509602,-2.939772,3.559934,-35.102839,-40.741773,12.713654
498,741853324,-2.3061523,-8.83511,-70.54414,2.6964617,1.1820936,-1.1211329,18.350756,-18.921503,-36.926582,5.554543,-2.92007,3.541248,-34.796993,-41.057131,12.098211
499,741869991,-2.0616074,-8.081482,-70.87419,2.4725828,1.247848,-1.1999061,24.182932,-19.987307,-39.005424,5.595753,-2.899273,3.52125,-34.393944,-41.390253,11.448121
500,741886658,-1.7771835,-7.324127,-71.22004,2.1667614,1.2699366,-1.2661178,32.440414,-21.336374,-40.18183,5.631866,-2.878107,3.500148,-33.85327,-41.745859,10.778424
501,741903325,-1.4413605,-6.50198,-71.55764,1.7841973,1.2544975,-1.3239357,42.303307,-22.67214,-40.059517,5.661603,-2.857199,3.478082,-33.148215,-42.123728,10.110765
502,741919992,-1.1565247,-5.763565,-71.966,1.4041018,1.2652788,-1.3972943,47.533882,-23.572325,-39.28972,5.685005,-2.836111,3.454794,-32.355984,-42.5166,9.455936
503,741936659,-0.9320221,-5.150673,-72.460594,1.0266094,1.3017316,-1.4857507,47.890205,-24.094934,-37.920807,5.702115,-2.814415,3.430031,-31.557814,-42.918182,8.823923
504,741953326,-0.708313,-4.55027,-72.98631,0.61526203,1.3362675,-1.5806131,45.7714,-24.223932,-35.288376,5.712369,-2.792144,3.403687,-30.794957,-43.321914,8.235783
505,741969993,-0.5128021,-4.0134583,-73.56737,0.18886375,1.3839126,-1.687645,39.497574,-23.858555,-31.516209,5.715517,-2.769079,3.37556,-30.136664,-43.719557,7.710513
506,741986660,-0.2854538,-3.5048409,-74.175186,-0.31204796,1.3964372,-1.7883,33.53537,-23.480316,-26.31941,5.710316,-2.745805,3.345755,-29.577741,-44.110896,7.271856
507,742003327,-0.01940918,-3.020115,-74.80587,-0.8930979,1.3696756,-1.8814955,28.04883,-23.079473,-19.55496,5.695431,-2.722977,3.314397,-29.11026,-44.495554,6.94594
508,742019994,0.23262024,-2.6259918,-75.49554,-1.5101519,1.3393273,-1.981169,19.326561,-22.324686,-11.412932,5.670262,-2.700655,3.281378,-28.788151,-44.867632,6.755724
509,742036661,0.48469543,-2.3193054,-76.238785,-2.1777039,1.2938418,-2.083196,8.256765,-21.30683,-1.7570347,5.633967,-2.679091,3.246658,-28.650538,-45.222746,6.72644
510,742053328,0.4476776,-2.119812,-76.9092,-2.6097517,1.2353063,-2.1067047,-0.3472042,-19.735653,5.6636624,5.590471,-2.658503,3.211546,-28.656325,-45.551674,6.820834
511,742069995,0.08531189,-2.046276,-77.50069,-2.7729902,1.1671786,-2.044882,-6.517704,-17.53964,10.494214,5.544254,-2.63905,3.177465,-28.764953,-45.844001,6.995738
512,742086662,-0.4573059,-2.094387,-78.07045,-2.8124762,1.0795493,-1.9325795,-11.98225,-14.909737,14.642368,5.497379,-2.621058,3.145255,-28.964657,-46.092497,7.239777
513,742103329,-1.266449,-2.2798195,-78.58515,-2.6445217,0.9734249,-1.7466049,-15.544975,-11.747501,17.055828,5.453304,-2.604834,3.116145,-29.22374,-46.288289,7.524041
514,742119996,-2.1884384,-2.6161537,-79.12782,-2.4241438,0.8549118,-1.5366147,-21.044804,-8.112091,19.955074,5.412902,-2.590585,3.090535,-29.574487,-46.423491,7.856626
515,742136663,-3.217636,-3.1134033,-79.70375,-2.158762,0.7225876,-1.3039625,-28.6813,-4.003757,23.487745,5.376923,-2.578542,3.068802,-30.052509,-46.49022,8.248088
516,742153330,-4.5105667,-3.7859383,-80.243034,-1.694644,0.57400274,-1.0026181,-35.54529,0.70392656,25.617752,5.348679,-2.568975,3.052092,-30.644931,-46.478488,8.675051
517,742169997,-6.0409546,-4.645481,-80.76325,-1.0598669,0.4098544,-0.64148855,-42.473854,6.0117493,26.794678,5.331015,-2.562144,3.041401,-31.352829,-46.378292,9.121629
518,742186664,-7.1454544,-5.3883514,-81.09342,-0.6255894,0.35009384,-0.3684957,-47.45163,10.473701,29.352324,5.320589,-2.556309,3.035259,-32.143689,-46.20373,9.610834
519,742203331,-7.7845,-5.9944954,-81.20657,-0.40321064,0.40671206,-0.19108498,-49.94104,13.9768715,33.22251,5.313869,-2.54953,3.032074,-32.97604,-45.970782,10.164543
520,742219998,-8.259056,-6.6230736,-81.19389,-0.23106575,0.5238304,-0.044064283,-51.467316,17.215729,37.568726,5.310018,-2.540799,3.03134,-33.833829,-45.683853,10.790688
521,742236665,-8.390099,-7.194313,-81.002205,-0.2045021,0.7362423,0.03309369,-51.353577,19.79145,42.94184,5.30661,-2.528528,3.031892,-34.689722,-45.353995,11.506385
522,742253332,-8.609177,-7.900421,-80.71075,-0.06236267,0.9736767,0.13994515,-50.01696,22.58692,47.430008,5.305571,-2.5123,3.034224,-35.523338,-44.977546,12.296885
523,742269999,-8.941307,-8.75946,-80.32174,0.21271801,1.2336092,0.28218448,-47.517784,25.65532,50.912636,5.309116,-2.49174,3.038927,-36.315301,-44.549957,13.145429
524,742286666,-9.015511,-9.609226,-79.74525,0.41052628,1.5829496,0.37603587,-43.003082,28.20568,54.78121,5.315958,-2.465358,3.045194,-37.032019,-44.079862,14.058449
525,742303333,-8.920784,-10.493614,-78.99306,0.5882597,2.009018,0.44225705,-36.505432,30.416431,58.59881,5.325762,-2.431874,3.052565,-37.640443,-43.572921,15.035096
526,742320000,-8.943733,-11.468597,-78.4365,0.8194094,2.2449508,0.5384649,-31.83239,32.291042,61.24005,5.339419,-2.394458,3.061539,-38.170983,-43.034737,16.055764
527,742336667,-9.061623,-12.52026,-78.095375,1.0859466,2.2747145,0.6591721,-29.157759,33.71203,62.725014,5.357518,-2.356546,3.072525,-38.656946,-42.47287,17.101181
528,742353334,-9.194527,-13.653099,-77.79737,1.3924613,2.2175078,0.79041666,-26.630552,34.780087,63.25435,5.380726,-2.319588,3.085699,-39.100789,-41.893202,18.15542
529,742370001,-9.405846,-14.877377,-77.64083,1.7524076,2.0009537,0.94476163,-25.229786,35.44776,62.52414,5.409933,-2.286239,3.101445,-39.521285,-41.302406,19.197489
530,742386668,-9.428696,-16.1231,-77.38109,2.0708437,1.7992043,1.0663786,-22.458227,35.48819,61.49611,5.444447,-2.256252,3.119218,-39.895589,-40.710936,20.222424
531,742403335,-9.248337,-17.389553,-77.00161,2.3461308,1.6216326,1.152514,-18.10556,34.87382,60.15316,5.483549,-2.229225,3.138427,-40.197348,-40.129706,21.224977
532,742420002,-9.0462265,-18.719166,-76.70836,2.6352582,1.3180609,1.2406002,-14.227802,33.648766,57.73118,5.52747,-2.207257,3.159104,-40.434478,-39.568893,22.187163
533,742436669,-8.76062,-20.096725,-76.44895,2.91712,0.92393684,1.3178248,-10.260602,31.735977,54.397774,5.576089,-2.191858,3.181068,-40.605488,-39.03996,23.093793
534,742453336,-8.533386,-21.187603,-76.15329,3.1295614,0.66226196,1.3874974,-6.7982554,29.744976,50.04663,5.628248,-2.18082,3.204193,-40.718792,-38.54421,23.927904
535,742470003,-8.394173,-21.96056,-75.84133,3.2700715,0.53447676,1.4530331,-4.1475897,27.705673,44.547096,5.682749,-2.171912,3.22841,-40.787918,-38.082449,24.670356
536,742486670,-8.228989,-22.560452,-75.511925,3.351335,0.45743322,1.5030181,-1.6367621,25.246386,38.02948,5.738605,-2.164288,3.25346,-40.815197,-37.661676,25.304181
537,742503337,-8.079987,-22.889751,-75.15426,3.354806,0.48763132,1.5385652,0.48750687,22.51348,30.410551,5.794518,-2.156161,3.279103,-40.807072,-37.286451,25.811024
538,742520004,-7.9057083,-23.150543,-74.86232,3.3296137,0.45510006,1.5661294,2.0764017,19.122074,21.487484,5.850012,-2.148576,3.305205,-40.772465,-36.96775,26.169149
539,742536671,-7.6953125,-23.347229,-74.64022,3.273685,0.3512926,1.5839627,3.1483889,15.013062,11.222504,5.904573,-2.142721,3.331604,-40.719992,-36.717532,26.356191
540,742553338,-7.50576,-23.288631,-74.435265,3.1442218,0.3086624,1.5893523,3.5287247,10.486628,-0.3906157,5.956977,-2.137577,3.358093,-40.66118,-36.542755,26.349681
541,742570005,-7.3270264,-23.009834,-74.27025,2.948575,0.29085207,1.582885,3.156827,5.438642,-13.434828,6.00612,-2.132729,3.384474,-40.608566,-36.452111,26.125767
542,742586672,-7.03878,-22.586494,-74.099724,2.658503,0.2947731,1.5430576,3.1286478,1.6192396,-26.186405,6.050428,-2.127816,3.410192,-40.556422,-36.425124,25.689327
543,742603339,-6.638397,-21.992947,-73.917435,2.2631817,0.33616304,1.4671491,3.4742374,-0.76926947,-38.518715,6.088148,-2.122213,3.434644,-40.498518,-36.437945,25.047348
544,742620006,-6.1766434,-21.207798,-73.76397,1.7777953,0.39200974,1.3651725,3.5911865,-2.632523,-51.339943,6.117778,-2.11568,3.457397,-40.438665,-36.48182,24.191682
545,742636673,-5.6230087,-20.237068,-73.62822,1.190145,0.46637964,1.2305969,3.7395105,-3.4618173,-64.19125,6.137614,-2.107907,3.477907,-40.37634,-36.539517,23.121828
546,742653340,-5.0594482,-18.97372,-73.52692,0.49989986,0.5957527,1.0736979,3.1978607,-4.2159905,-78.126495,6.145946,-2.097978,3.495802,-40.323042,-36.609784,21.81972
547,742670007,-4.4911194,-17.402985,-73.466545,-0.29616547,0.7804651,0.89449453,1.8725471,-4.948542,-93.24159,6.14101,-2.08497,3.51071,-40.291833,-36.69226,20.265693
548,742686674,-3.8515778,-15.57394,-73.43115,-1.2117004,1.0078154,0.6816351,0.31822014,-4.720677,-108.62469,6.120815,-2.068173,3.522071,-40.286529,-36.770938,18.455282
549,742703341,-3.1585617,-13.453449,-73.427,-2.2506018,1.2871156,0.43654627,-1.6520138,-3.7120519,-124.51138,6.083305,-2.046721,3.529347,-40.314063,-36.832806,16.380092
550,742720008,-2.4796982,-11.40873,-72.950134,-2.9221306,1.4398289,0.21254754,-4.4653225,-3.1593022,-136.15517,6.034603,-2.022724,3.532889,-40.388485,-36.885461,14.110839
551,742736675,-1.813652,-9.471783,-71.94809,-3.1819744,1.4493403,0.012755036,-8.120866,-3.0310903,-142.95024,5.98157,-1.998568,3.533102,-40.523833,-36.935979,11.728335
552,742753342,-1.140625,-7.437298,-70.66249,-3.2664728,1.4079933,-0.18771696,-12.571699,-2.832438,-147.27368,5.927129,-1.975101,3.529973,-40.733361,-36.983186,9.273774
553,742770009,-0.4776001,-5.4039726,-68.947075,-3.0370893,1.2661257,-0.3746177,-17.941029,-2.8499541,-147.70293,5.876511,-1.953999,3.523729,-41.032378,-37.030685,6.812059
554,742786676,0.23121643,-3.157463,-67.09043,-2.7845526,1.1250954,-0.5827148,-23.893368,-2.0873337,-146.73122,5.830102,-1.935247,3.514017,-41.430601,-37.065474,4.366539
555,742803343,0.98747253,-0.67581177,-65.10425,-2.524086,0.99216986,-0.81430244,-30.451235,-0.46508598,-144.44336,5.788034,-1.918711,3.500445,-41.938122,-37.073225,1.95915
556,742820010,1.7487564,1.8511124,-62.71104,-1.9867563,0.77321243,-1.0397949,-37.905163,1.2996881,-138.27269,5.754921,-1.905824,3.483115,-42.569875,-37.051564,-0.345395
557,742836677,2.5265274,4.471924,-59.963192,-1.2288141,0.48884487,-1.2665596,-46.20938,3.4450283,-128.6379,5.734441,-1.897677,3.462006,-43.340031,-36.994147,-2.48936
558,742853344,3.4372864,6.6366653,-57.6576,-0.7205591,0.31035852,-1.4071505,-52.13704,5.5227184,-119.89294,5.722432,-1.892504,3.438553,-44.208982,-36.902102,-4.487576
559,742870011,4.4877396,8.264145,-55.828804,-0.46767998,0.2410512,-1.4485688,-55.412483,7.424726,-112.008125,5.714637,-1.888486,3.41441,-45.132523,-36.778357,-6.354378
560,742886678,5.630829,9.644287,-54.127304,-0.2795725,0.2125206,-1.4363618,-57.536766,9.546113,-103.08119,5.709977,-1.884944,3.390471,-46.091469,-36.619255,-8.072398
561,742903345,6.898758,10.608475,-52.762947,-0.27447987,0.26864338,-1.3435941,-57.59919,11.751049,-94.140976,5.705402,-1.880467,3.368078,-47.051455,-36.423404,-9.641414
562,742920012,8.213036,11.426132,-51.191483,-0.102879524,0.28496885,-1.21242,-57.56523,14.1496105,-81.8318,5.703687,-1.875718,3.347871,-48.010876,-36.187577,-11.005277
563,742936679,9.571014,12.106461,-49.380047,0.25701523,0.25465965,-1.0440063,-57.526505,16.7816,-65.85965,5.707971,-1.871474,3.330471,-48.969651,-35.907884,-12.102938
564,742953346,11.040794,12.356834,-47.779667,0.5327215,0.27692175,-0.791904,-55.685257,19.475985,-48.693344,5.71685,-1.866859,3.317273,-49.897739,-35.583284,-12.914494
565,742970013,12.60733,12.220261,-46.27488,0.801301,0.32514858,-0.46259224,-52.41858,22.262508,-29.524578,5.730205,-1.86144,3.309563,-50.771382,-35.212242,-13.40657
566,742986680,13.725563,12.3149185,-44.797188,1.0490174,0.3007655,-0.24631667,-50.517,23.900568,-15.373953,5.747689,-1.856427,3.305458,-51.613332,-34.813899,-13.662803
567,743003347,14.34977,12.647232,-43.398792,1.2429175,0.2059865,-0.15336907,-49.98233,24.233238,-7.182669,5.768404,-1.852994,3.302902,-52.446371,-34.410012,-13.782514
568,743020014,14.726677,12.9379425,-42.037277,1.4430943,0.06920099,-0.09591162,-49.704933,23.857737,-1.0394001,5.792456,-1.851841,3.301303,-53.274787,-34.012383,-13.799837
569,743036681,14.701881,13.337479,-40.71349,1.6366282,-0.13430452,-0.12447953,-50.372375,22.399118,0.987905,5.819733,-1.854079,3.299228,-54.114327,-33.639064,-13.783372
570,743053348,14.608017,13.391029,-39.586502,1.7637873,-0.32210708,-0.11380756,-49.844345,20.532415,2.4195418,5.849129,-1.859447,3.297331,-54.945066,-33.296857,-13.743046
571,743070015,14.458374,13.059471,-38.663654,1.8264103,-0.49174738,-0.05563855,-47.98124,18.27371,3.4931917,5.879569,-1.867643,3.296404,-55.744753,-32.992295,-13.684826
572,743086682,13.947632,12.688919,-37.875404,1.839961,-0.70552325,-0.055728436,-46.41192,14.934538,0.57900476,5.910235,-1.879402,3.295475,-56.518285,-32.743386,-13.675176
573,743103349,13.138168,12.171921,-37.263466,1.7897167,-0.94644237,-0.08741152,-44.65518,10.625468,-5.667943,5.940064,-1.895176,3.294018,-57.262538,-32.566295,-13.769642
574,743120016,12.451172,11.824234,-37.002785,1.7083273,-1.078532,-0.11207533,-41.989555,6.9827795,-7.648769,5.968536,-1.913152,3.29215,-57.962364,-32.449915,-13.897121
575,743136683,11.880463,11.712433,-37.115974,1.5951834,-1.0954812,-0.13984656,-38.517193,4.0454206,-5.2157893,5.995122,-1.93141,3.289819,-58.604317,-32.382491,-13.984051
576,743153350,11.26001,11.60775,-37.56045,1.4207516,-1.049756,-0.1716758,-34.2293,1.0809937,-1.6390814,6.018801,-1.948906,3.286958,-59.174805,-32.364474,-14.011369
577,743170017,10.6903305,11.608292,-38.395763,1.190134,-0.90420413,-0.20136988,-28.958559,-1.499227,4.9923987,6.038637,-1.963976,3.283602,-59.657448,-32.389461,-13.928162
578,743186684,9.835892,11.607185,-39.516537,0.8853946,-0.753999,-0.27897,-23.50568,-4.8684697,9.215006,6.053394,-1.976543,3.278952,-60.049209,-32.470602,-13.774579
579,743203351,8.672562,11.588257,-40.93497,0.49927902,-0.60218644,-0.40682817,-17.859884,-9.116751,10.645055,6.061715,-1.986579,3.272172,-60.346874,-32.622548,-13.597161
580,743220018,7.447319,11.693611,-42.766457,0.04172516,-0.3681097,-0.5565195,-11.474,-13.322344,13.583586,6.06241,-1.992714,3.262897,-60.538107,-32.844587,-13.370768
581,743236685,6.0822372,11.903175,-45.00299,-0.49518108,-0.07021475,-0.74022245,-4.5026464,-17.752161,16.808556,6.054157,-1.993884,3.25056,-60.613151,-33.140456,-13.090625
582,743253352,4.7906647,11.937035,-46.865124,-0.88336277,0.14230919,-0.88981915,1.6928949,-20.78885,19.125166,6.039434,-1.991512,3.23573,-60.584936,-33.486937,-12.771872
583,743270019,3.618309,11.79406,-48.301006,-1.1013994,0.266088,-0.99737215,7.0384283,-22.163546,20.903273,6.021077,-1.987077,3.219107,-60.467629,-33.856329,-12.423484
584,743286686,2.4068146,11.599129,-49.684322,-1.2648821,0.360579,-1.1050537,12.072763,-22.823927,21.840202,5.999996,-1.981067,3.200689,-60.266416,-34.236728,-12.059481
585,743303353,1.2222977,11.284912,-50.80476,-1.309824,0.38724852,-1.1941152,16.419771,-22.272419,21.7241,5.978166,-1.974613,3.180787,-59.992753,-34.607935,-11.697413
586,743320020,-0.0027999878,11.053566,-52.16275,-1.3709126,0.45578623,-1.2985568,21.029152,-21.219255,22.277012,5.955317,-1.967017,3.159144,-59.642267,-34.961589,-11.326129
587,743336687,-1.2800674,10.922508,-53.792374,-1.4569798,0.5720434,-1.4226582,25.931993,-19.707438,23.487402,5.931034,-1.957483,3.135433,-59.210067,-35.290046,-10.934672
588,743353354,-2.5163116,10.737869,-55.262756,-1.444356,0.64853144,-1.5335908,30.31735,-16.920523,24.335464,5.906961,-1.946674,3.109873,-58.704778,-35.572055,-10.529081
589,743370021,-3.7244644,10.547401,-56.67979,-1.3602133,0.7086024,-1.6390982,34.36879,-12.975502,25.183346,5.884291,-1.934864,3.082555,-58.131965,-35.788313,-10.109359
590,743386688,-4.583267,10.08683,-57.942013,-1.3577728,0.7754898,-1.6774876,36.669563,-8.99124,28.506025,5.861661,-1.921939,3.054597,-57.520806,-35.938167,-9.634259
591,743403355,-5.041458,9.313797,-58.979965,-1.4339886,0.84061146,-1.6378074,36.9523,-4.922399,34.47798,5.837761,-1.907929,3.0273,-56.904934,-36.020207,-9.059626
592,743420022,-5.252983,8.387924,-59.907696,-1.5325232,0.90854263,-1.5539114,35.980446,-0.27280855,42.209946,5.812219,-1.892787,3.001401,-56.30526,-36.024754,-8.356127
593,743436689,-5.114876,7.2294693,-60.67373,-1.6901026,0.9824562,-1.4060762,33.29081,4.714976,52.42138,5.784051,-1.876413,2.977966,-55.750413,-35.946171,-7.482437
594,743453356,-4.783806,5.9568253,-61.221184,-1.7838917,1.0259418,-1.2217641,29.448591,10.9537525,63.419548,5.754319,-1.859314,2.957603,-55.259603,-35.763608,-6.425445
595,743470023,-4.25811,4.579567,-61.543667,-1.8062372,1.0379491,-1.0015533,24.449827,18.540522,75.19893,5.724215,-1.842015,2.94091,-54.852106,-35.454599,-5.17213
596,743486690,-3.3590546,2.9659615,-61.612114,-1.8479509,1.0381556,-0.71282434,17.559462,26.850222,89.278725,5.693416,-1.824712,2.92903,-54.559448,-35.007095,-3.684151
597,743503357,-2.1065521,1.1374588,-61.40153,-1.8812208,1.0179095,-0.359352,8.836929,36.11893,105.37002,5.662062,-1.807747,2.923041,-54.412166,-34.405113,-1.927984
598,743520024,-1.3605347,-0.68185806,-61.44241,-1.8180676,0.94711924,-0.089238524,3.2796907,42.39305,116.47111,5.631761,-1.791962,2.921554,-54.357504,-33.698562,0.013201
599,743536691,-1.1706009,-2.4932404,-61.766632,-1.658721,0.82322884,0.08924997,1.2295027,45.229248,122.122765,5.604116,-1.778242,2.923041,-54.337012,-32.944741,2.04858
600,743553358,-1.1320877,-4.3936462,-62.09251,-1.4239092,0.65301037,0.24550486,0.31437588,46.674988,125.48049,5.580384,-1.767358,2.927133,-54.331772,-32.166825,4.139922
601,743570025,-1.473938,-6.3298607,-62.55703,-1.0899143,0.42685556,0.34020334,1.89077,45.58912,124.62827,5.562219,-1.760244,2.932803,-54.300259,-31.407006,6.21706
602,743586692,-1.6345291,-8.4711075,-62.827583,-0.72829914,0.1656909,0.47014475,2.8041306,44.137806,124.092285,5.550081,-1.757482,2.940639,-54.253523,-30.671376,8.285265
603,743603359,-1.5753403,-10.83173,-62.87046,-0.33873558,-0.13202667,0.6419657,2.8532114,42.44758,124.110405,5.544435,-1.759682,2.951338,-54.205969,-29.963916,10.353772
604,743620026,-1.7723389,-13.285824,-62.963688,0.13631535,-0.4865563,0.7737865,4.78983,38.40953,120.73976,5.546707,-1.767791,2.964234,-54.126138,-29.323757,12.366101
605,743636693,-2.1054459,-15.873669,-63.029568,0.6839628,-0.8954296,0.8863305,7.959263,32.434376,114.89268,5.558106,-1.782715,2.979006,-53.993484,-28.783184,14.280979
606,743653360,-2.288414,-18.010765,-63.10975,1.094337,-1.1924286,1.0083747,8.6631565,28.133297,108.03822,5.576345,-1.802589,2.995812,-53.849098,-28.314296,16.081616
607,743670027,-2.3551102,-19.625233,-63.240704,1.3546515,-1.3647947,1.1320189,6.9107018,25.52601,99.75199,5.598923,-1.825336,3.014679,-53.73392,-27.888862,17.744149
608,743686694,-2.3620148,-21.021202,-63.347137,1.5564446,-1.4905376,1.2571845,4.0327864,23.12048,89.87837,5.624864,-1.850178,3.035632,-53.666707,-27.503521,19.242122
609,743703361,-2.2483902,-22.026749,-63.450222,1.6423383,-1.5236342,1.3883896,-0.89673615,21.807045,78.61366,5.652236,-1.875572,3.058772,-53.681653,-27.14007,20.55235
610,743720028,-2.3028336,-22.950073,-63.588154,1.751502,-1.5678394,1.4877257,-5.0067916,18.878506,63.99021,5.681428,-1.901703,3.083567,-53.7651,-26.825428,21.618854
611,743736695,-2.5378265,-23.80693,-63.757477,1.8906455,-1.6288965,1.5534822,-8.156016,14.146034,45.854225,5.712939,-1.928851,3.109458,-53.901034,-26.589661,22.383091
612,743753362,-2.7634811,-24.28651,-63.960724,1.9397607,-1.6144066,1.6070416,-12.553712,9.684303,25.248072,5.745268,-1.955758,3.136242,-54.110263,-26.428256,22.803892
613,743770029,-3.0456238,-24.444412,-64.207886,1.9267521,-1.5451455,1.6391948,-17.58325,4.8801203,1.6479635,5.777381,-1.98151,3.163562,-54.403317,-26.346921,22.831358
614,743786696,-3.1113129,-24.306107,-64.24242,1.772799,-1.4604783,1.6139603,-20.272686,0.80773306,-19.483831,5.806928,-2.005851,3.190461,-54.741195,-26.333459,22.506627
615,743803363,-2.9172516,-23.819424,-64.04418,1.452322,-1.350631,1.5283062,-20.578156,-2.1982608,-37.59825,5.831133,-2.028362,3.215933,-55.084164,-26.370097,21.879989
616,743820030,-2.641716,-22.995132,-63.74416,1.0183811,-1.2089908,1.3912334,-19.469488,-5.083093,-55.72793,5.848106,-2.048512,3.23912,-55.408655,-26.454815,20.95119
617,743836697,-2.20475,-21.814308,-63.272793,0.4410057,-1.0413101,1.1914141,-16.158796,-7.4798493,-72.36251,5.855456,-2.065867,3.258977,-55.677968,-26.579479,19.745148
618,743853364,-1.7195358,-20.163551,-62.780617,-0.2692957,-0.79846406,0.9531878,-12.92111,-9.516224,-90.526,5.850968,-2.079175,3.274863,-55.89332,-26.738083,18.236381
619,743870031,-1.2002106,-18.02103,-62.27929,-1.1148186,-0.47637033,0.67498684,-9.81149,-11.246069,-110.49436,5.832388,-2.087115,3.286113,-56.056845,-26.925517,16.394808
620,743886698,-0.5196686,-15.409889,-61.633766,-2.1319723,-0.10179281,0.33321685,-4.9962573,-12.261557,-129.45535,5.796855,-2.088812,3.291667,-56.140116,-27.129876,14.237219
621,743903365,0.29901123,-12.287357,-60.87585,-3.3242435,0.33836746,-0.069132924,1.0794897,-12.570398,-148.05638,5.741451,-2.083173,3.290515,-56.122125,-27.339383,11.769613
622,743920032,0.9939804,-9.682121,-60.071327,-4.022621,0.62437916,-0.38193488,3.130515,-12.788218,-159.95149,5.674407,-2.072767,3.284149,-56.06995,-27.55252,9.103755
623,743936699,1.5601425,-7.6811676,-59.20773,-4.170557,0.7337704,-0.59472704,0.8711939,-12.87076,-164.07996,5.604898,-2.060537,3.274237,-56.05543,-27.767033,6.369089
624,743953366,2.108818,-5.7540703,-58.273808,-4.0902634,0.7811837,-0.77787685,-3.4884572,-12.491875,-163.80266,5.536727,-2.047517,3.261272,-56.113571,-27.975231,3.639045
625,743970033,2.5739975,-4.182678,-57.281208,-3.5949993,0.7045193,-0.8903775,-11.388088,-11.765926,-157.10886,5.47681,-2.035775,3.246432,-56.303372,-28.17133,1.020564
626,743986700,3.1407852,-2.3535767,-56.15625,-3.086649,0.62681055,-1.0279994,-19.254158,-10.200495,-146.8919,5.425366,-2.025328,3.229299,-56.624275,-28.341338,-1.427634
627,744003367,3.8215866,-0.21944427,-54.894253,-2.5879269,0.5564537,-1.1964862,-26.932627,-7.716517,-133.19754,5.382234,-2.016054,3.209358,-57.073152,-28.469947,-3.647593
628,744020034,4.4693375,1.6698685,-53.539047,-1.7327604,0.37703753,-1.3122458,-37.478256,-4.6204925,-112.6545,5.353355,-2.00977,3.187487,-57.69779,-28.546955,-5.525168
629,744036701,5.1248703,3.4440002,-52.072346,-0.6006527,0.113051414,-1.3949487,-50.18062,-0.7659035,-85.66161,5.343344,-2.007886,3.164238,-58.534134,-28.55972,-6.952862
630,744053368,5.809677,5.0803223,-50.533432,0.12996483,-0.028436184,-1.440227,-58.85205,2.377191,-68.1891,5.34551,-2.00836,3.140234,-59.515002,-28.5201,-8.089347
631,744070035,6.5085373,6.498253,-48.92802,0.44564152,-0.044440746,-1.4356468,-63.300987,4.65863,-61.163948,5.352937,-2.009101,3.116307,-60.570018,-28.442456,-9.108746
632,744086702,7.2397003,7.7878113,-47.222145,0.61997795,-0.018598557,-1.3950145,-66.00967,6.904318,-57.111626,5.36327,-2.009411,3.093057,-61.670179,-28.327384,-10.060606
633,744103369,8.004265,8.911903,-45.425747,0.47934723,0.10144186,-1.3123388,-65.35456,8.707666,-60.293167,5.371259,-2.00772,3.071185,-62.759422,-28.182256,-11.065492
634,744120036,8.753532,9.736595,-43.52358,0.5186815,0.16362238,-1.1668322,-65.76671,10.898127,-60.319794,5.379904,-2.004993,3.051738,-63.855534,-28.000621,-12.070822
635,744136703,9.487526,10.248482,-41.51047,0.7660923,0.1588049,-0.9562416,-67.46428,13.554136,-56.49665,5.392672,-2.002346,3.035801,-64.979939,-27.774719,-13.012433
636,744153370,10.229996,10.4655075,-39.401196,0.82818794,0.20656776,-0.68306684,-66.83787,15.912346,-57.66149,5.406475,-1.998903,3.024417,-66.093903,-27.509513,-13.973458
637,744170037,10.96978,10.342552,-37.190483,0.81147003,0.27372646,-0.3401692,-64.80965,18.153069,-61.607193,5.42,-1.994341,3.018748,-67.174064,-27.206962,-15.000245
638,744186704,11.63562,10.54084,-35.39874,0.8780594,0.30668116,-0.14185643,-62.04946,19.151735,-60.322426,5.434634,-1.98923,3.016384,-68.208222,-26.887766,-16.005619
639,744203371,12.220444,11.10714,-34.08044,0.99623966,0.31413746,-0.106714725,-58.148933,18.684738,-54.172874,5.451238,-1.983994,3.014605,-69.177371,-26.576354,-16.9085
640,744220038,12.748238,11.681,-32.98747,1.1616774,0.29839754,-0.12636626,-53.3804,17.390772,-45.49765,5.470599,-1.979021,3.012499,-70.067044,-26.286508,-17.666794
641,744236705,13.196915,12.435524,-32.271206,1.406249,0.24809027,-0.26009107,-47.76944,14.900637,-32.395493,5.494036,-1.974886,3.008164,-70.863201,-26.038164,-18.206719
642,744253372,13.612213,12.969574,-31.634499,1.5351343,0.22412634,-0.38142836,-39.943874,11.662132,-21.792835,5.519622,-1.971151,3.001807,-71.528932,-25.843795,-18.569933
643,744270039,13.992638,13.241524,-31.065956,1.5437856,0.22733688,-0.48160005,-29.834711,7.679802,-13.991761,5.545352,-1.967362,2.99378,-72.026177,-25.715798,-18.803129
644,744286706,14.293716,13.594414,-30.852398,1.5530705,0.21823788,-0.6755583,-18.074436,2.371295,-3.9839032,5.571237,-1.963725,2.982521,-72.327418,-25.676276,-18.869527
645,744303373,14.521873,13.93515,-30.940392,1.519609,0.20981455,-0.9373534,-4.3047676,-4.21201,6.7169313,5.596564,-1.960228,2.966898,-72.399164,-25.746476,-18.757578
646,744320040,14.244431,14.006378,-31.276981,1.4405532,0.17465591,-1.090653,3.7773113,-8.553461,15.507938,5.620573,-1.957317,2.94872,-72.336209,-25.889034,-18.499112
647,744336707,13.407967,13.822884,-31.906239,1.3245897,0.10629892,-1.1343739,5.4094906,-10.425058,22.649961,5.642649,-1.955545,2.929814,-72.246051,-26.062785,-18.121613
648,744353374,12.215485,13.43927,-32.83013,1.1397138,0.026975632,-1.1358483,4.521941,-11.492825,28.280352,5.661644,-1.955095,2.910883,-72.170685,-26.254332,-17.650274
649,744370041,10.536217,12.793015,-34.056683,0.88478994,-0.07181072,-1.0506921,-1.0599089,-10.808598,31.761663,5.67639,-1.956292,2.893371,-72.18835,-26.434475,-17.120913
650,744386708,8.600395,12.109291,-35.70833,0.59021854,-0.18477821,-1.0117824,-6.989676,-10.6113205,35.84095,5.686227,-1.959372,2.876508,-72.304845,-26.61133,-16.523564
651,744403375,6.4116364,11.391586,-37.804825,0.24989319,-0.31028366,-1.026335,-12.991939,-11.047901,40.487976,5.690392,-1.964543,2.859402,-72.521377,-26.795462,-15.848764
652,744420042,3.7318115,10.473923,-40.30659,-0.15455437,-0.45856833,-0.9908912,-23.168148,-10.18214,43.76004,5.687816,-1.972186,2.842887,-72.907513,-26.965164,-15.11943
653,744436709,0.5970764,9.401535,-43.255566,-0.62001705,-0.62865806,-0.93417954,-36.66324,-8.483454,46.181793,5.677482,-1.982664,2.827317,-73.518567,-27.106555,-14.349733
654,744453376,-1.6607208,8.536667,-45.501984,-1.0027361,-0.7200532,-0.9080093,-42.05706,-7.293072,48.14836,5.66077,-1.994665,2.812184,-74.219518,-27.228106,-13.54726
655,744470043,-2.9505463,7.895973,-46.94122,-1.2915764,-0.7246537,-0.90538454,-38.82522,-6.4799714,49.452866,5.639244,-2.006743,2.797094,-74.866605,-27.336106,-12.723046
656,744486710,-3.8864136,7.3391037,-48.156616,-1.5539103,-0.68945265,-0.9216664,-31.854979,-5.7080817,50.230415,5.613345,-2.018234,2.781733,-75.397521,-27.431241,-11.885872
657,744503377,-4.1040344,6.9648514,-48.827686,-1.7498169,-0.5864086,-0.96825385,-18.104946,-5.2662044,50.51198,5.584181,-2.028007,2.765595,-75.69927,-27.519011,-11.044006
658,744520044,-4.4496155,6.5177307,-49.62815,-1.9720011,-0.47596908,-0.98890305,-5.309251,-3.8633456,49.457985,5.551314,-2.03594,2.749113,-75.787758,-27.5834,-10.219706
659,744536711,-4.970688,5.989151,-50.603535,-2.2256384,-0.3611827,-0.9827025,6.1227217,-1.430963,47.028076,5.51422,-2.04196,2.732735,-75.685713,-27.607249,-9.435905
660,744553378,-4.9255905,5.594612,-51.135887,-2.429268,-0.18690968,-0.9869776,22.685349,1.1699233,43.630325,5.473732,-2.045075,2.716285,-75.307624,-27.58775,-8.708733
661,744570045,-4.485916,5.284218,-51.361965,-2.6016436,0.03510666,-0.98978543,42.782272,4.2389226,39.04944,5.430371,-2.04449,2.699789,-74.594586,-27.517101,-8.057909
662,744586712,-4.3662033,4.6100235,-51.657036,-2.7058792,0.14459229,-0.9391806,51.716187,8.023344,38.416054,5.385273,-2.04208,2.684136,-73.73265,-27.383379,-7.417641
663,744603379,-4.5318146,3.5575562,-51.966324,-2.7262363,0.13369036,-0.8334408,48.86818,12.480955,42.248184,5.339836,-2.039852,2.670245,-72.91818,-27.175363,-6.713505
664,744620046,-4.7491455,2.3079796,-52.192093,-2.6908798,0.07109785,-0.6882993,40.123077,17.72968,47.95208,5.294988,-2.038667,2.658773,-72.249462,-26.879868,-5.914304
665,744636713,-5.1828995,0.74360657,-52.40469,-2.5842361,-0.08613014,-0.48926032,21.534142,23.840776,56.986633,5.251917,-2.040103,2.650619,-71.89056,-26.482522,-4.964527
666,744653380,-5.2140274,-0.8148079,-52.215015,-2.4042501,-0.2298584,-0.27595663,3.309291,30.486477,66.463905,5.211846,-2.043934,2.64602,-71.835405,-25.974414,-3.856795
667,744670047,-4.805565,-2.3511887,-51.593185,-2.1490126,-0.35452414,-0.048538208,-14.128101,37.704845,76.21435,5.176029,-2.049843,2.645211,-72.070873,-25.346,-2.586556
668,744686714,-4.395363,-4.1268387,-50.777313,-1.8027477,-0.55145526,0.22615862,-39.338463,45.739,88.983795,5.145983,-2.059034,2.64898,-72.726514,-24.583683,-1.103493
669,744703381,-3.8412094,-6.0748596,-49.66885,-1.3614502,-0.79849887,0.5410021,-70.2773,54.546936,104.21455,5.123292,-2.072342,2.657997,-73.897802,-23.674567,0.633416
670,744720048,-3.6529388,-7.869175,-48.798977,-1.0477018,-0.99128866,0.7765379,-89.55041,60.67148,112.3876,5.10583,-2.088863,2.670939,-75.390309,-22.663376,2.506543
671,744736715,-3.923149,-9.510704,-48.231625,-0.8776121,-1.1318312,0.9257064,-96.58508,63.802826,112.96816,5.091203,-2.107727,2.686367,-77.00006,-21.599996,4.389346
672,744753382,-4.3059235,-11.109222,-47.634045,-0.7400055,-1.2554309,1.0408382,-98.30318,65.55022,110.12336,5.07887,-2.128651,2.703714,-78.638446,-20.507492,6.224735
673,744770049,-4.9550705,-12.581928,-47.153034,-0.69493103,-1.3365483,1.0894303,-90.1133,64.93012,101.27916,5.067288,-2.150927,2.721871,-80.140334,-19.425323,7.912721
674,744786716,-5.677246,-14.186722,-46.5215,-0.6049442,-1.4604669,1.1507621,-84.442856,64.03085,92.70201,5.057206,-2.175268,2.74105,-81.547715,-18.358142,9.457755
675,744803383,-6.447426,-15.9337845,-45.705204,-0.45967388,-1.631403,1.2288222,-81.86928,62.943947,84.71412,5.049545,-2.202458,2.76153,-82.912203,-17.309076,10.869657
676,744820050,-7.500046,-17.623745,-44.961594,-0.37922382,-1.785706,1.2555261,-72.214005,59.74001,71.9369,5.043225,-2.23222,2.782455,-84.11577,-16.313409,12.068605
677,744836717,-8.797783,-19.31049,-44.229393,-0.33421803,-1.9419975,1.246902,-58.036278,54.813656,55.641266,5.037655,-2.264587,2.803237,-85.083041,-15.399848,12.995959
678,744853384,-9.548996,-20.572239,-43.302963,-0.24371433,-2.0335414,1.2655845,-50.24961,52.93794,41.314323,5.033593,-2.298479,2.82433,-85.920535,-14.517549,13.684531
679,744870051,-9.715591,-21.34082,-42.196884,-0.11586666,-2.0464144,1.308232,-48.606056,54.291786,28.750593,5.031662,-2.332586,2.846134,-86.730636,-13.612686,14.163708
680,744886718,-9.6532135,-21.848705,-40.967186,0.03005886,-2.0248883,1.3550295,-49.601295,56.8404,16.139484,5.032163,-2.366334,2.868718,-87.557324,-12.665346,14.432699
681,744903385,-9.152809,-21.965015,-39.567394,0.21150208,-1.9477007,1.4203527,-55.914764,61.83452,4.7763243,5.035688,-2.398796,2.892391,-88.489237,-11.634771,14.512304
682,744920052,-8.735519,-21.876652,-38.17591,0.350605,-1.8369846,1.4489609,-58.469162,65.95044,-10.004298,5.041531,-2.429412,2.91654,-89.463723,-10.535597,14.345566
683,744936719,-8.433868,-21.590343,-36.800987,0.44351864,-1.6946795,1.4376507,-56.863113,68.99638,-28.46158,5.048923,-2.457657,2.940501,-90.411442,-9.385657,13.871206
684,744953386,-7.808647,-20.889381,-35.316864,0.5422888,-1.4898114,1.425225,-57.855927,73.69961,-47.230667,5.057961,-2.482487,2.964255,-91.375707,-8.15733,13.084028
685,744970053,-6.9699173,-19.801758,-33.763245,0.6290207,-1.2255352,1.3990043,-59.489372,79.35584,-67.36319,5.068445,-2.502913,2.987572,-92.367197,-6.834733,11.961308
686,744986720,-6.295677,-18.700695,-31.947342,0.63264465,-1.0296321,1.3572569,-62.013184,82.61585,-84.9375,5.078989,-2.520074,3.010193,-93.40075,-5.457802,10.545683
687,745003387,-5.7657776,-17.580044,-29.83704,0.5500746,-0.90844846,1.3033187,-66.21534,83.490036,-99.21697,5.088157,-2.535215,3.031915,-94.504339,-4.066301,8.892067
688,745020054,-5.2733994,-16.268082,-27.551605,0.40071392,-0.80186725,1.2283921,-70.620476,83.08805,-112.809654,5.094836,-2.548579,3.052388,-95.681347,-2.6815,7.011906
689,745036721,-4.9072723,-14.849697,-25.0327,0.16402626,-0.74333787,1.1324047,-75.50616,80.55739,-124.5113,5.09757,-2.560968,3.071261,-96.939783,-1.338877,4.936718
690,745053388,-4.3335037,-13.03447,-22.360294,-0.10777664,-0.6489787,1.0250715,-82.472916,78.540504,-135.77354,5.095774,-2.571784,3.088346,-98.314332,-0.029869,2.673826
691,745070055,-3.5374603,-10.792427,-19.541351,-0.41572475,-0.5126486,0.905035,-91.46583,77.135155,-146.75722,5.088845,-2.580328,3.10343,-99.838762,1.255717,0.227872
692,745086722,-2.7575073,-8.33083,-16.482723,-0.8054943,-0.40443587,0.7670601,-101.99342,74.29207,-155.63943,5.07542,-2.587069,3.116214,-101.538652,2.493918,-2.366119
693,745103389,-1.9201965,-5.5762787,-13.198558,-1.2686625,-0.30604172,0.61255765,-114.43585,70.558685,-162.6764,5.054276,-2.59217,3.126423,-103.445916,3.669896,-5.077392
694,745120056,-1.3532944,-3.1185646,-9.62924,-1.5596952,-0.18232441,0.53457874,-122.867744,67.40165,-167.92978,5.028281,-2.595209,3.135333,-105.493712,4.793257,-7.876222
695,745136723,-1.1149216,-1.0333519,-5.750873,-1.6613855,-0.038623333,0.54197395,-126.75545,64.71334,-171.04768,5.000591,-2.595853,3.144366,-107.606303,5.871813,-10.727017
696,745153390,-0.9988022,1.0152054,-1.5956788,-1.6854982,0.12080479,0.59187096,-129.22275,62.162952,-172.06755,4.972499,-2.59384,3.154231,-109.760015,6.907862,-13.59481
697,745170057,-1.1054688,2.8563232,2.8627396,-1.5644045,0.30318403,0.7110921,-128.64088,60.091972,-170.82169,4.946426,-2.588787,3.166083,-111.90403,7.909395,-16.441838
698,745186724,-1.3063812,4.79187,7.61967,-1.4551287,0.47062302,0.8439257,-128.33543,57.0947,-166.70528,4.922174,-2.580943,3.180148,-114.042954,8.860973,-19.220259
699,745203391,-1.5904312,6.8463287,12.681733,-1.3658466,0.6219015,0.9883062,-128.57217,53.12337,-159.55472,4.89941,-2.570578,3.19662,-116.185824,9.746363,-21.879504
700,745220058,-2.1142197,8.716904,18.081173,-1.1585369,0.7813697,1.1964892,-126.27858,49.157814,-149.40099,4.880101,-2.557555,3.216561,-118.290467,10.56566,-24.36952
701,745236725,-2.8560715,10.463272,23.824974,-0.8646288,0.9405327,1.458269,-122.14862,44.892727,-135.97641,4.865691,-2.541879,3.240865,-120.326277,11.313872,-26.635793
702,745253392,0.16965485,12.092438,29.502739,-0.67558956,1.045876,1.5881072,-119.39544,40.03894,-125.33174,4.854431,-2.524448,3.267333,-122.316201,11.981188,-28.724655
703,745270059,7.342079,13.555267,35.085575,-0.590682,1.0938263,1.5756605,-117.8952,34.665432,-117.93827,4.844586,-2.506218,3.293594,-124.281121,12.558945,-30.690293
704,745286726,16.803154,14.878616,40.779026,-0.5383949,1.1029015,1.5029644,-116.55566,28.68793,-110.63656,4.835613,-2.487836,3.318643,-126.223715,13.037077,-32.534236
705,745303393,29.697777,16.041931,46.472874,-0.566144,1.0575552,1.3200074,-116.12773,22.041864,-105.05658,4.826177,-2.47021,3.340643,-128.159177,13.404441,-34.285179
706,745320060,43.694923,16.953545,52.42373,-0.5245819,0.9941244,1.1495007,-113.938225,15.141623,-97.51375,4.817434,-2.453641,3.359801,-130.058147,13.656801,-35.910408
707,745336727,58.703377,17.597588,58.651505,-0.4052744,0.9125171,0.99810636,-109.82793,7.972545,-87.69312,4.810679,-2.438432,3.376436,-131.888612,13.789677,-37.37196
708,745353394,76.92808,17.988068,64.93408,-0.3219061,0.7799573,0.7610338,-105.72592,0.26840973,-78.81972,4.805314,-2.425433,3.38912,-133.650711,13.79415,-38.685622
709,745370061,97.94218,18.090675,71.32692,-0.24162102,0.60250425,0.4634452,-101.02408,-7.893184,-70.08648,4.801287,-2.415391,3.396844,-135.334446,13.662597,-39.85373
710,745386728,102.2517,18.558388,76.34853,-0.20878029,0.53031063,0.18939972,-95.172455,-15.017567,-62.371536,4.797807,-2.406552,3.400001,-136.920654,13.412304,-40.893256
711,745403395,88.221504,19.442032,79.81666,-0.24073887,0.573082,-0.06721139,-88.30184,-20.98204,-56.195847,4.793795,-2.397001,3.398881,-138.392351,13.062603,-41.829853
712,745420062,64.769005,20.396362,82.45949,-0.29368687,0.6629262,-0.3304572,-80.21699,-26.436867,-50.622757,4.7889,-2.385952,3.393373,-139.729301,12.621989,-42.673566
713,745436729,26.38726,21.596535,83.83464,-0.383955,0.84082174,-0.5815433,-70.79003,-30.955812,-46.062386,4.782501,-2.371938,3.383681,-140.909135,12.106059,-43.441272
714,745453396,-15.072929,22.648117,84.73241,-0.5144367,1.009418,-0.8978522,-60.78025,-35.482048,-42.827026,4.773927,-2.355114,3.368717,-141.922139,11.514692,-44.155056
715,745470063,-59.104343,23.515816,85.17785,-0.6832428,1.1634512,-1.2836673,-50.14409,-40.046463,-40.943726,4.76254,-2.335723,3.347323,-142.757874,10.847251,-44.837451
716,745486730,-116.5783,24.54477,84.36543,-0.90473366,1.3874283,-1.6859136,-38.377884,-43.790657,-40.69996,4.747461,-2.312599,3.319224,-143.397505,10.117407,-45.515784
717,745503397,-185.25089,25.64772,82.42805,-1.180872,1.6615996,-2.1224296,-25.612236,-46.88905,-42.24727,4.72778,-2.284906,3.28385,-143.824376,9.335923,-46.219905
718,745520064,-226.2174,26.43924,77.739494,-1.3465853,1.8152046,-2.4377167,-13.995789,-48.044155,-38.642906,4.705337,-2.254653,3.243221,-144.057639,8.535187,-46.863953
719,745536731,-237.22217,26.925163,69.98322,-1.3899479,1.8428869,-2.61124,-3.68079,-46.98235,-29.340622,4.682171,-2.223938,3.1997,-144.118985,7.752148,-47.352963
