PacketCounter,SampleTimeFine,Euler_X,Euler_Y,Euler_Z,Acc_X,Acc_Y,Acc_Z,Gyr_X,Gyr_Y,Gyr_Z,Velo_X,Velo_Y,Velo_Z,ANG_X,ANG_Y,ANG_Z
0,2851026350,-17.147882,27.512165,12.060728,-4.0945396,-1.1978714,2.030131,2.1058626,-9.101247,-11.640824,0.0,0.0,0.0,0.0,0.0,0.0
1,2851043017,-16.95965,26.500576,11.889444,-3.8282843,-1.3282523,2.1837146,2.6183019,-10.03675,-12.8862915,-0.063805,-0.022138,0.036395,0.043638,-0.167279,-0.214772
2,2851059684,-16.76314,25.43694,11.710459,-3.5465555,-1.470396,2.350292,3.1469975,-11.036566,-14.217046,-0.122914,-0.046645,0.075567,0.096088,-0.351222,-0.451723
3,2851076351,-16.561499,24.336987,11.52665,-3.25425,-1.6223795,2.5274293,3.684214,-12.0870695,-15.614137,-0.177152,-0.073685,0.117691,0.157492,-0.552673,-0.711959
4,2851093018,-16.291418,22.878895,11.280219,-2.853675,-1.8235586,2.764735,4.3884134,-13.469203,-17.465487,-0.224713,-0.104078,0.16377,0.230632,-0.77716,-1.00305
5,2851109685,-15.966837,21.132763,10.983877,-2.3657994,-2.066018,3.052077,5.223725,-15.123833,-19.68936,-0.264143,-0.138512,0.214638,0.317694,-1.029224,-1.331206
6,2851126352,-15.57654,19.78022,10.54446,-2.0692778,-2.198564,3.2251189,5.65637,-15.943663,-22.448647,-0.298631,-0.175155,0.26839,0.411967,-1.294952,-1.70535
7,2851143019,-15.10969,18.841778,9.943532,-1.9775534,-2.21208,3.2749808,5.655079,-15.85923,-25.821522,-0.33159,-0.212023,0.322973,0.506218,-1.559273,-2.135709
8,2851159686,-14.579142,18.036488,9.231554,-1.9714861,-2.1733775,3.2734373,5.449245,-15.357576,-29.689596,-0.364448,-0.248246,0.37753,0.597039,-1.815233,-2.630536
9,2851176353,-13.97753,17.541725,8.377637,-2.1256714,-2.0413246,3.1762097,4.8931456,-14.135635,-34.127228,-0.399876,-0.282268,0.430467,0.678591,-2.050827,-3.199323
10,2851193020,-13.292402,16.87098,7.4178395,-2.2513127,-1.9145486,3.092522,4.3390255,-12.912244,-39.158947,-0.437398,-0.314177,0.482009,0.750908,-2.266031,-3.851972
11,2851209687,-12.521387,15.997414,6.351574,-2.338694,-1.7980781,3.0281036,3.8029943,-11.722079,-44.800037,-0.476376,-0.344145,0.532477,0.814291,-2.461399,-4.598639
12,2851226354,-11.661692,15.315014,5.1304073,-2.5468931,-1.6065962,2.8898408,2.980629,-9.939025,-51.121822,-0.518824,-0.370922,0.580641,0.863968,-2.627049,-5.450669
13,2851243021,-10.707842,14.720615,3.7577224,-2.837171,-1.3599846,2.7000434,1.941967,-7.706278,-58.150665,-0.56611,-0.393588,0.625642,0.896334,-2.755487,-6.419847
14,2851259688,-9.660976,14.062599,2.3269706,-2.9071555,-1.1640623,2.6307003,1.20607,-6.3550034,-63.171043,-0.614563,-0.412989,0.669487,0.916435,-2.861404,-7.472698
15,2851276355,-8.517191,13.375908,0.8360777,-2.7478395,-1.0173404,2.686363,0.78159046,-5.929711,-65.93922,-0.66036,-0.429945,0.71426,0.929462,-2.960233,-8.571685
16,2851293022,-7.268879,12.6640625,-0.76169205,-2.4769053,-0.881989,2.8000758,0.46603775,-5.890042,-67.76734,-0.701642,-0.444645,0.760928,0.937229,-3.0584,-9.701141
17,2851309689,-5.913107,11.900047,-2.4459405,-2.0146618,-0.7838874,3.0168521,0.39244556,-6.586054,-67.890335,-0.73522,-0.45771,0.811209,0.94377,-3.168168,-10.832647
18,2851326356,-4.443783,11.275345,-4.290075,-1.5785551,-0.63809824,3.2121222,0.17516804,-7.074361,-67.91581,-0.761529,-0.468345,0.864744,0.946689,-3.286074,-11.964577
19,2851343023,-2.856285,10.796867,-6.3032336,-1.1781378,-0.4399501,3.3801477,-0.20606136,-7.3078566,-67.93003,-0.781165,-0.475678,0.92108,0.943255,-3.407872,-13.096744
20,2851359690,-1.148323,10.351307,-8.434799,-0.6357565,-0.2530583,3.6219242,-0.44613647,-8.059045,-66.44799,-0.791761,-0.479896,0.981445,0.935819,-3.542189,-14.204211
21,2851376357,0.684824,9.983467,-10.704443,0.004047394,-0.058652163,3.9116762,-0.62734985,-9.131839,-63.78215,-0.791694,-0.480874,1.04664,0.925363,-3.694386,-15.267247
22,2851393024,2.3110294,9.596821,-12.920977,0.38349342,0.16259909,3.9211338,-3.216157,-10.204894,-62.865974,-0.785302,-0.478164,1.111992,0.87176,-3.864468,-16.315013
23,2851409691,3.6996517,9.175503,-15.062147,0.48978806,0.4057474,3.6298945,-8.428648,-11.3480015,-63.76667,-0.777139,-0.471402,1.17249,0.731283,-4.053601,-17.377791
24,2851426358,5.0124903,8.801071,-17.234348,0.4625311,0.67509913,3.1751125,-15.166777,-12.587445,-65.27705,-0.76943,-0.46015,1.225409,0.478503,-4.263392,-18.465742
25,2851443025,6.1557045,8.447838,-19.383068,0.20630455,0.974566,2.465924,-24.136976,-13.866505,-68.14907,-0.765992,-0.443907,1.266508,0.07622,-4.4945,-19.60156
26,2851459692,7.325598,8.147736,-21.611044,-0.024349213,1.2774235,1.7180598,-33.847878,-15.581052,-70.26254,-0.766398,-0.422617,1.295142,-0.487911,-4.754184,-20.772602
27,2851476359,8.532869,7.9115677,-23.926603,-0.2190504,1.584133,0.939466,-44.25054,-17.750072,-71.492294,-0.770049,-0.396215,1.3108,-1.22542,-5.050019,-21.96414
28,2851493026,9.59576,7.7036057,-26.230366,-0.58835125,1.911325,-0.0588367,-56.73369,-20.140596,-73.52974,-0.779855,-0.36436,1.309819,-2.170981,-5.385696,-23.189636
29,2851509693,10.552461,7.5341263,-28.543186,-1.0809345,2.2536519,-1.2353841,-71.026146,-22.847996,-75.91697,-0.797871,-0.326799,1.289229,-3.35475,-5.766496,-24.454919
30,2851526360,11.831596,6.881996,-31.271042,-1.3444881,2.3855822,-2.0037663,-81.26228,-28.27984,-75.82592,-0.820279,-0.287039,1.255833,-4.709121,-6.237827,-25.718684
31,2851543027,13.448533,5.689911,-34.44012,-1.372117,2.285542,-2.3326623,-87.0713,-36.673798,-73.17343,-0.843148,-0.248947,1.216955,-6.160309,-6.849057,-26.938241
32,2851559694,15.222947,4.210144,-37.872032,-1.297596,2.055269,-2.4739347,-91.07147,-46.984158,-68.97334,-0.864775,-0.214693,1.175723,-7.678167,-7.632126,-28.087797
33,2851576361,17.267128,2.2901535,-41.67826,-1.029501,1.6293701,-2.2691107,-91.66167,-59.91911,-62.46756,-0.881933,-0.187537,1.137904,-9.205861,-8.630778,-29.128923
34,2851593028,19.281822,0.22437286,-45.5986,-0.8298044,1.1418362,-2.1110406,-92.64173,-74.05816,-55.710094,-0.895763,-0.168506,1.10272,-10.74989,-9.865081,-30.057425
35,2851609695,21.25035,-1.9756851,-49.620964,-0.7105675,0.5967321,-2.0190449,-94.20758,-89.37637,-48.760803,-0.907606,-0.15856,1.069069,-12.320016,-11.354687,-30.870105
36,2851626362,23.418167,-4.5968704,-53.97397,-0.46259022,-0.13287365,-1.6583344,-93.056,-107.2427,-39.922127,-0.915316,-0.160775,1.04143,-13.870949,-13.142065,-31.535474
37,2851643029,25.722178,-7.586479,-58.606304,-0.14056015,-1.0231204,-1.1084647,-89.95178,-127.41764,-29.595222,-0.917659,-0.177827,1.022956,-15.370145,-15.265692,-32.028728
38,2851659696,23.263914,-9.791496,-58.14515,0.03650856,-1.6098082,-0.66862464,-87.49947,-139.3681,-20.164589,-0.917051,-0.204657,1.011812,-16.82847,-17.588494,-32.364804
39,2851676363,15.571324,-11.143173,-52.071804,0.07305813,-1.8669951,-0.321885,-85.48502,-142.25641,-11.630636,-0.915833,-0.235774,1.006447,-18.25322,-19.959434,-32.558648
40,2851693030,4.8933706,-12.158508,-42.86895,0.03622818,-2.0015063,0.024285436,-83.13595,-140.92024,-3.1090906,-0.915229,-0.269132,1.006852,-19.638819,-22.308105,-32.610466
41,2851709697,-10.185755,-12.525391,-28.985603,-0.12853909,-1.8884196,0.30141377,-81.017006,-132.41177,4.802967,-0.917371,-0.300606,1.011876,-20.989102,-24.514968,-32.530417
42,2851726364,-26.797735,-12.995972,-13.562859,-0.23885155,-1.8346078,0.77592254,-76.69185,-123.223434,13.9783325,-0.921352,-0.331183,1.024808,-22.267299,-26.568692,-32.297445
43,2851743031,-44.84514,-13.611626,3.2874124,-0.28799438,-1.8572814,1.4629378,-70.00511,-113.66182,24.517467,-0.926152,-0.362138,1.04919,-23.434051,-28.463056,-31.888821
44,2851759698,-67.055336,-13.724701,24.550055,-0.41317177,-1.6947699,2.1760209,-62.591026,-97.85416,34.98834,-0.933038,-0.390384,1.085457,-24.477235,-30.093959,-31.305682
45,2851776365,-92.91335,-13.488945,49.658035,-0.57597446,-1.4103587,2.976251,-53.871162,-77.05786,45.799145,-0.942638,-0.41389,1.135061,-25.375088,-31.378257,-30.542363
46,2851793032,-109.77936,-13.226318,65.61084,-0.6546297,-1.2542117,3.5477011,-47.397194,-60.101643,55.113575,-0.953548,-0.434794,1.194189,-26.165041,-32.379951,-29.623803
47,2851809699,-116.81984,-12.877716,71.579735,-0.6529074,-1.2155035,3.8410442,-43.656456,-46.976795,62.57803,-0.96443,-0.455052,1.258206,-26.892649,-33.162898,-28.580836
48,2851826366,-119.72026,-12.38475,73.39282,-0.6019535,-1.2159381,4.0502357,-40.529854,-34.22316,69.3339,-0.974463,-0.475318,1.32571,-27.568147,-33.733284,-27.425271
49,2851843033,-115.018295,-11.8051605,67.50158,-0.47117138,-1.3144238,4.0812235,-39.047684,-24.01598,74.80024,-0.982316,-0.497225,1.39373,-28.218942,-34.13355,-26.1786
50,2851859700,-110.82518,-10.772987,62.301514,-0.36720467,-1.2952874,4.0727434,-37.510544,-9.544895,79.66496,-0.988436,-0.518813,1.461609,-28.844118,-34.292632,-24.850851
51,2851876367,-107.55885,-9.264381,58.230938,-0.2924919,-1.1474483,4.037616,-35.75862,9.622273,83.97167,-0.993311,-0.537937,1.528903,-29.440095,-34.132261,-23.451323
52,2851893034,-98.123184,-7.496971,47.983395,-0.16738701,-1.0258596,3.8217776,-35.55445,28.309702,86.83071,-0.996101,-0.555035,1.592599,-30.032669,-33.660433,-22.004144
53,2851909701,-84.14392,-5.379486,33.25048,-0.013612747,-0.8823135,3.4513052,-36.558617,48.042965,88.341774,-0.996328,-0.56974,1.650121,-30.641979,-32.859717,-20.531781
54,2851926368,-75.29647,-3.6083908,23.607069,0.04377365,-0.6750829,3.10929,-35.871864,64.3194,88.53052,-0.995598,-0.580991,1.701942,-31.239843,-31.787727,-19.056272
55,2851943035,-71.53103,-2.263298,18.972473,0.0017528534,-0.41536987,2.7867854,-33.489647,76.112434,87.20866,-0.995569,-0.587914,1.748388,-31.798004,-30.519186,-17.602794
56,2851959702,-69.260765,-0.94072723,15.856119,-0.095261574,-0.08739948,2.4087126,-30.597696,86.620094,84.36116,-0.997157,-0.589371,1.788533,-32.307966,-29.075518,-16.196775
57,2851976369,-70.87909,0.16412354,16.618519,-0.28052998,0.31799495,2.0148392,-26.485937,94.39219,79.89086,-1.001832,-0.584071,1.822114,-32.749398,-27.502315,-14.865261
58,2851993036,-68.80747,1.4144287,13.69187,-0.4598236,0.73981017,1.4539566,-23.316042,100.76294,73.4703,-1.009496,-0.571741,1.846347,-33.137999,-25.822933,-13.640756
59,2852009703,-62.621643,2.8458557,6.659848,-0.63008595,1.1809086,0.7116928,-21.238201,105.89314,64.99747,-1.019997,-0.552059,1.858209,-33.491969,-24.058047,-12.557465
60,2852026370,-58.079765,4.1078873,1.2457995,-0.86760044,1.6803759,-0.10814607,-18.598083,107.762985,54.477398,-1.034457,-0.524053,1.856407,-33.801937,-22.261997,-11.649508
61,2852043037,-53.515068,5.2777405,-4.2145753,-1.153552,2.227164,-1.043692,-15.885269,106.564125,41.756016,-1.053683,-0.486934,1.839012,-34.066691,-20.485928,-10.953574
62,2852059704,-49.209457,6.3912582,-9.260643,-1.2620792,2.525453,-1.6175114,-12.965729,105.203026,31.504822,-1.074718,-0.444843,1.812053,-34.282786,-18.732544,-10.428494
63,2852076371,-45.83834,7.399437,-13.206598,-1.18048,2.5495977,-1.7737284,-9.647371,103.52855,24.11349,-1.094393,-0.40235,1.782491,-34.443576,-17.007068,-10.026603
64,2852093038,-42.098816,8.331024,-17.439499,-1.0030069,2.4312894,-1.7670829,-6.3468113,100.14719,17.204573,-1.11111,-0.361829,1.75304,-34.549356,-15.337948,-9.73986
65,2852109705,-38.24447,9.174633,-21.65822,-0.6678438,2.0859022,-1.4596494,-2.9822664,95.65407,12.059971,-1.122241,-0.327064,1.728713,-34.59906,-13.743714,-9.53886
66,2852126372,-35.546852,9.816986,-24.702377,-0.3264389,1.6962295,-1.1070309,0.7577753,87.69889,5.8681355,-1.127682,-0.298794,1.710262,-34.58643,-12.282066,-9.441058
67,2852143039,-33.946754,10.245758,-26.638641,0.014998436,1.2686126,-0.72581744,4.8439,75.98101,-1.5787327,-1.127432,-0.27765,1.698165,-34.505698,-11.015716,-9.46737
68,2852159706,-33.082237,10.495781,-27.732655,0.48687458,0.6348246,-0.06461096,9.201148,62.05356,-7.765942,-1.119317,-0.26707,1.697088,-34.352346,-9.98149,-9.596802
69,2852176373,-33.250923,10.531277,-27.710167,1.0593977,-0.17140985,0.8275914,13.896243,45.27252,-13.2835,-1.10166,-0.269927,1.710881,-34.120742,-9.226948,-9.818194
70,2852193040,-32.53544,10.716339,-28.549839,1.32658,-0.72207403,1.4266512,17.276667,32.894337,-17.19663,-1.07955,-0.281962,1.734659,-33.832798,-8.678709,-10.104805
71,2852209707,-30.803862,11.077248,-30.376568,1.2659626,-1.0008128,1.7204871,19.18798,25.720814,-19.049212,-1.058451,-0.298642,1.763334,-33.512998,-8.250029,-10.422292
72,2852226374,-29.22978,11.405628,-32.0026,1.0504923,-1.1916661,1.9304154,20.462624,19.787851,-19.636612,-1.040943,-0.318503,1.795508,-33.171954,-7.920231,-10.749569
73,2852243041,-27.334173,11.795605,-33.919773,0.5698128,-1.1825385,1.922926,20.637352,17.152231,-18.545267,-1.031446,-0.338212,1.827557,-32.827998,-7.63436,-11.058657
74,2852259708,-26.163122,12.028656,-35.021004,0.09473419,-1.2713966,2.0733345,20.63849,13.8337555,-15.63115,-1.029867,-0.359402,1.862113,-32.484023,-7.403797,-11.319176
75,2852276375,-25.87449,12.07869,-35.14517,-0.36229038,-1.4758937,2.4057028,20.523773,9.519807,-10.845877,-1.035905,-0.384,1.902208,-32.14196,-7.245134,-11.499941
76,2852293042,-25.573317,12.130783,-35.22703,-1.0335674,-1.5517383,2.6212075,19.420086,8.009005,-3.8116956,-1.053131,-0.409862,1.945895,-31.818292,-7.111651,-11.563469
77,2852309709,-25.52913,12.132084,-34.982746,-1.864954,-1.5623474,2.8020346,17.509228,8.491283,5.597332,-1.084214,-0.435901,1.992596,-31.526472,-6.97013,-11.47018
78,2852326376,-25.354265,12.119392,-34.93426,-2.3796015,-1.6217203,2.9492838,16.403757,6.8998814,10.735669,-1.123874,-0.46293,2.041751,-31.253076,-6.855132,-11.291252
79,2852343043,-24.918554,12.117107,-35.228416,-2.5621896,-1.70999,3.027159,16.130882,3.406219,11.099379,-1.166577,-0.49143,2.092204,-30.984228,-6.798362,-11.106262
80,2852359710,-24.614378,12.068893,-35.398758,-2.6041608,-1.815176,3.0913928,16.032375,-0.53756344,10.000256,-1.20998,-0.521683,2.143727,-30.717022,-6.807321,-10.939591
81,2852376377,-24.311438,11.990757,-35.614487,-2.380128,-1.9596357,3.1313946,16.517063,-5.863176,5.6319337,-1.249649,-0.554344,2.195917,-30.441738,-6.905041,-10.845725
82,2852393044,-24.073187,11.900028,-35.743702,-2.2301264,-2.0135615,3.0713832,16.40612,-9.177987,2.054749,-1.286818,-0.587903,2.247107,-30.168303,-7.058007,-10.811479
83,2852409711,-23.936003,11.792931,-35.745136,-2.170683,-1.9720659,2.9115179,15.627841,-10.248622,-0.43703827,-1.322996,-0.620771,2.295632,-29.907839,-7.228817,-10.818763
84,2852426378,-23.75247,11.676273,-35.83531,-1.9239187,-1.9159169,2.6762812,15.112001,-11.48716,-5.4299235,-1.355061,-0.652703,2.340237,-29.655972,-7.42027,-10.909262
85,2852443045,-23.539984,11.554211,-35.98373,-1.5603485,-1.8152277,2.346522,14.601276,-12.099206,-12.068456,-1.381067,-0.682957,2.379346,-29.412617,-7.621923,-11.110403
86,2852459712,-23.366789,11.342464,-36.084053,-1.3569517,-1.7308967,2.1491346,13.951597,-13.127274,-16.243351,-1.403683,-0.711805,2.415165,-29.18009,-7.840711,-11.381126
87,2852476379,-23.21012,11.036461,-36.166824,-1.3052063,-1.6745961,2.1034303,13.259094,-14.892024,-18.037064,-1.425436,-0.739715,2.450222,-28.959105,-8.088911,-11.681744
88,2852493046,-23.044012,10.680576,-36.26967,-1.3201208,-1.5942132,2.0849924,12.414864,-16.295513,-18.843513,-1.447438,-0.766285,2.484972,-28.752191,-8.360503,-11.995803
89,2852509713,-22.872755,10.2533,-36.382626,-1.4690905,-1.5067625,2.1548448,11.410242,-17.663742,-17.660227,-1.471923,-0.791398,2.520886,-28.56202,-8.654899,-12.29014
90,2852526380,-22.624693,9.805435,-36.619873,-1.5171022,-1.3949981,2.1846244,10.562741,-18.917519,-17.800816,-1.497208,-0.814648,2.557296,-28.385974,-8.970191,-12.58682
91,2852543047,-22.286562,9.342182,-36.99945,-1.4541473,-1.2527544,2.1618829,9.873949,-19.941145,-19.429728,-1.521444,-0.835527,2.593327,-28.221408,-9.302543,-12.910649
92,2852559714,-21.888865,8.82066,-37.46764,-1.4533873,-1.1023571,2.2023337,9.188254,-21.04907,-20.06634,-1.545667,-0.8539,2.630033,-28.06827,-9.653361,-13.245088
93,2852576381,-21.407248,8.252697,-38.060772,-1.4640598,-0.93852997,2.277558,8.579285,-22.200447,-20.433245,-1.570068,-0.869542,2.667992,-27.925282,-10.023368,-13.585642
94,2852593048,-21.073301,7.7114983,-38.45962,-1.4490452,-0.8009894,2.2770555,7.996339,-23.008022,-20.909685,-1.594219,-0.882892,2.705943,-27.79201,-10.406835,-13.934137
95,2852609715,-20.904924,7.1995583,-38.637806,-1.423728,-0.6967981,2.2051547,7.432577,-23.491592,-21.257975,-1.617948,-0.894505,2.742696,-27.668134,-10.798362,-14.288437
96,2852626382,-20.76792,6.6910706,-38.781807,-1.3700228,-0.6033585,2.095025,6.9740906,-23.80811,-21.807156,-1.640782,-0.904561,2.777613,-27.551899,-11.195164,-14.65189
97,2852643049,-20.722582,6.2059326,-38.807823,-1.2820864,-0.53327966,1.9202218,6.6149945,-23.874422,-22.595242,-1.66215,-0.913449,2.809617,-27.441649,-11.593071,-15.028477
98,2852659716,-20.629324,5.692566,-38.904385,-1.2257032,-0.4670651,1.772717,6.35322,-23.95532,-22.778433,-1.682578,-0.921233,2.839162,-27.335762,-11.992326,-15.408118
99,2852676383,-20.471304,5.1499023,-39.094246,-1.1999407,-0.40388036,1.6564064,6.2090516,-24.07561,-22.37299,-1.702577,-0.927964,2.866769,-27.232278,-12.393586,-15.781001
100,2852693050,-20.367025,4.6215134,-39.214996,-1.1677256,-0.3653611,1.503617,6.1875553,-24.042458,-21.818445,-1.722039,-0.934053,2.891829,-27.129152,-12.794294,-16.144642
101,2852709717,-20.28266,4.0976944,-39.31196,-1.1429081,-0.34836507,1.3342087,6.2999697,-23.920681,-20.93417,-1.741087,-0.939859,2.914066,-27.024153,-13.192972,-16.493545
102,2852726384,-20.13973,3.6066055,-39.505924,-1.1074028,-0.30691135,1.2118406,6.1402493,-23.395548,-20.118462,-1.759544,-0.944974,2.934263,-26.921816,-13.582898,-16.828853
103,2852743051,-19.943365,3.157814,-39.790627,-1.0567951,-0.24051046,1.1355739,5.675363,-22.418634,-19.433437,-1.777157,-0.948983,2.953189,-26.827227,-13.956542,-17.152744
104,2852759718,-19.705175,2.732994,-40.142746,-1.0099545,-0.16995323,1.0895216,5.1124144,-21.1885,-18.551758,-1.79399,-0.951816,2.971348,-26.74202,-14.309684,-17.46194
105,2852776385,-19.405691,2.3431778,-40.5923,-0.9618654,-0.08404684,1.0902977,4.340408,-19.612585,-17.578663,-1.810021,-0.953217,2.98952,-26.66968,-14.63656,-17.754918
106,2852793052,-19.11432,1.9858932,-41.035904,-0.91281986,-0.016500473,1.0840728,3.612434,-17.834198,-16.400827,-1.825235,-0.953492,3.007588,-26.609473,-14.933797,-18.028265
107,2852809719,-18.830591,1.6624374,-41.473198,-0.86508083,0.029785514,1.0702779,2.9478617,-15.868818,-14.977572,-1.839653,-0.952996,3.025426,-26.560342,-15.198277,-18.277891
108,2852826386,-18.502466,1.3857803,-41.982285,-0.81461906,0.08049977,1.0906096,2.1247492,-13.562768,-13.447503,-1.85323,-0.951654,3.043603,-26.52493,-15.424323,-18.502016
109,2852843053,-18.142904,1.1578064,-42.543354,-0.7621603,0.1276834,1.1346877,1.1972475,-10.94503,-11.774714,-1.865933,-0.949526,3.062514,-26.504976,-15.60674,-18.698261
110,2852859720,-17.86677,0.91848755,-42.987865,-0.7217512,0.16545308,1.1454153,0.61059284,-9.077267,-10.290147,-1.877962,-0.946768,3.081604,-26.494799,-15.758028,-18.869763
111,2852876387,-17.678648,0.6664276,-43.30909,-0.69422436,0.19574225,1.1226754,0.38008404,-8.042854,-9.044432,-1.889532,-0.943506,3.100315,-26.488464,-15.892076,-19.020504
112,2852893054,-17.532244,0.43392944,-43.57411,-0.6736984,0.21529174,1.0870676,0.33180618,-7.3599358,-7.8538013,-1.90076,-0.939918,3.118433,-26.482934,-16.014742,-19.151401
113,2852909721,-17.458235,0.2067337,-43.737747,-0.66402435,0.22285104,1.0241389,0.58407116,-7.325841,-6.8194723,-1.911827,-0.936204,3.135502,-26.473199,-16.136839,-19.265059
114,2852926388,-17.374186,0.026649475,-43.920746,-0.6572151,0.22727394,0.9793713,0.8239212,-7.2900257,-5.7690415,-1.922781,-0.932416,3.151825,-26.459467,-16.258339,-19.36121
115,2852943055,-17.276304,-0.101135254,-44.12829,-0.6530304,0.22793221,0.95498013,1.0384989,-7.223667,-4.6932287,-1.933665,-0.928617,3.167741,-26.442159,-16.378733,-19.43943
116,2852959722,-17.232489,-0.20813751,-44.260628,-0.65891457,0.2191658,0.91609955,1.4874115,-7.71776,-3.771675,-1.944647,-0.924964,3.183009,-26.417369,-16.507362,-19.502291
117,2852976389,-17.22584,-0.28353882,-44.342255,-0.67344093,0.20246208,0.87250805,2.107627,-8.647742,-2.973834,-1.955871,-0.92159,3.197551,-26.382242,-16.651491,-19.551855
118,2852993056,-17.200167,-0.38362122,-44.493717,-0.69908905,0.19025648,0.8622496,2.1268873,-9.148337,-2.4714742,-1.967522,-0.918419,3.211922,-26.346794,-16.803963,-19.593046
119,2853009723,-17.15893,-0.5166397,-44.71364,-0.7373791,0.18305969,0.8851311,1.5020456,-9.224028,-2.3148596,-1.979812,-0.915368,3.226674,-26.32176,-16.957697,-19.631627
120,2853026390,-17.11796,-0.64741516,-44.960594,-0.7865124,0.17584288,0.93003845,0.5562458,-9.21482,-2.4123666,-1.992921,-0.912437,3.242175,-26.312489,-17.111277,-19.671833
121,2853043057,-17.064302,-0.7923584,-45.26449,-0.84780407,0.17193902,1.0068471,-0.92156315,-8.909622,-2.8300474,-2.007051,-0.909571,3.258956,-26.327848,-17.259771,-19.719
122,2853059724,-17.04915,-0.9244232,-45.527992,-0.9222326,0.16207802,1.0847349,-2.4149885,-8.9828,-3.527393,-2.022422,-0.90687,3.277035,-26.368098,-17.409484,-19.77779
123,2853076391,-17.074972,-1.0407028,-45.746464,-1.0102167,0.14581835,1.1630325,-3.9025106,-9.479029,-4.5144954,-2.039259,-0.90444,3.296419,-26.43314,-17.567468,-19.853032
124,2853093058,-17.10597,-1.1691208,-45.993427,-1.1128206,0.13068259,1.2658095,-5.8288116,-9.891016,-5.8821254,-2.057806,-0.902262,3.317516,-26.530287,-17.732318,-19.951067
125,2853109725,-17.153646,-1.3039932,-46.24784,-1.23073,0.11474371,1.3869638,-8.092121,-10.371636,-7.637049,-2.078318,-0.90035,3.340632,-26.665156,-17.905179,-20.078351
126,2853126392,-17.244787,-1.3903885,-46.467438,-1.2051668,0.13022614,1.3509414,-10.126699,-9.651799,-7.676026,-2.098404,-0.89818,3.363148,-26.833934,-18.066042,-20.206285
127,2853143059,-17.37877,-1.4270935,-46.65629,-1.0204973,0.18144,1.1429181,-11.940123,-7.5477076,-5.8123703,-2.115412,-0.895156,3.382197,-27.032936,-18.191837,-20.303158
128,2853159726,-17.551641,-1.4367828,-46.819637,-0.7519407,0.2521001,0.8412442,-13.739212,-4.7639503,-3.0514853,-2.127944,-0.890954,3.396218,-27.261923,-18.271236,-20.354016
129,2853176393,-17.770674,-1.4054337,-46.947506,-0.3537779,0.35194623,0.3959651,-15.386066,-0.91898113,1.1997578,-2.13384,-0.885088,3.402817,-27.518357,-18.286552,-20.33402
130,2853193060,-18.012083,-1.3721008,-47.083008,0.082084656,0.46460956,-0.08536005,-17.335451,3.3797235,5.688497,-2.132472,-0.877345,3.401394,-27.807281,-18.230223,-20.239212
131,2853209727,-18.276442,-1.3390808,-47.226524,0.5518608,0.58958673,-0.5988363,-19.613949,8.097895,10.35039,-2.123274,-0.867519,3.391413,-28.13418,-18.095258,-20.066705
132,2853226394,-18.58249,-1.2751083,-47.348057,1.1429968,0.74415153,-1.2434621,-21.88222,13.889907,16.340994,-2.104224,-0.855116,3.370689,-28.498884,-17.86376,-19.794355
133,2853243061,-18.92615,-1.1885757,-47.456387,1.8386335,0.9256479,-1.9993088,-24.24182,20.650578,23.418118,-2.07358,-0.839689,3.337367,-28.902914,-17.519584,-19.404053
134,2853259728,-19.25738,-0.743042,-47.732304,2.2802935,1.0060893,-2.3728547,-27.419569,28.013233,28.664108,-2.035575,-0.822921,3.297819,-29.359907,-17.052697,-18.926318
135,2853276395,-19.573992,0.10004425,-48.19103,2.4458342,0.97561324,-2.3295481,-31.454142,36.06227,31.96196,-1.994811,-0.806661,3.258993,-29.884143,-16.451659,-18.393619
136,2853293062,-19.897455,1.1777496,-48.75392,2.4951658,0.8933431,-2.0905118,-36.07895,44.934628,34.549477,-1.953225,-0.791772,3.224151,-30.485459,-15.702749,-17.817794
137,2853309729,-20.214476,2.5893555,-49.472725,2.3307066,0.7236875,-1.5193349,-41.497307,54.584763,35.657104,-1.91438,-0.779711,3.198829,-31.177081,-14.793003,-17.223509
138,2853326396,-20.560274,4.1504135,-50.235424,2.1851616,0.5458105,-0.92946476,-47.21163,65.435555,37.30023,-1.877961,-0.770614,3.183338,-31.963942,-13.70241,-16.601839
139,2853343063,-20.936811,5.8546143,-51.03864,2.0707016,0.363706,-0.3358531,-53.2136,77.54686,39.589504,-1.843449,-0.764552,3.17774,-32.850835,-12.409962,-15.942014
140,2853359730,-21.315111,7.8856583,-51.985497,1.7856236,0.10625076,0.538944,-59.93743,90.70411,40.857475,-1.813689,-0.762781,3.186722,-33.849792,-10.898227,-15.261056
141,2853376397,-21.702589,10.211628,-53.055626,1.3769426,-0.21101081,1.6332357,-67.29273,105.03598,41.526005,-1.79074,-0.766298,3.213943,-34.971338,-9.147627,-14.568956
142,2853393064,-21.849695,11.887596,-54.305237,0.76947975,-0.46490705,2.1891623,-71.60828,109.524826,39.77721,-1.777915,-0.774046,3.250429,-36.164809,-7.322213,-13.906002
143,2853409731,-21.72693,12.8494,-55.757298,-0.07375431,-0.6536772,2.1707325,-72.57613,103.052444,35.201557,-1.779144,-0.784941,3.286608,-37.374411,-5.604672,-13.319309
144,2853426398,-21.455675,13.526901,-57.37612,-1.0900545,-0.82640934,1.897995,-71.8686,90.89631,28.916265,-1.797312,-0.798714,3.318241,-38.572221,-4.089734,-12.837371
145,2853443065,-20.961897,13.661022,-59.185993,-2.3130093,-0.9518585,1.1677704,-68.44738,69.87479,20.311825,-1.835862,-0.814578,3.337704,-39.713011,-2.925154,-12.498841
146,2853459732,-20.380564,13.853127,-61.187756,-3.757094,-1.1214643,0.49533272,-64.55342,46.298744,9.975697,-1.89848,-0.833269,3.34596,-40.788901,-2.153508,-12.332579
147,2853476399,-19.716066,14.135063,-63.386425,-5.4270544,-1.3405175,-0.09396696,-60.280525,20.433327,-2.0844772,-1.988931,-0.855611,3.344394,-41.793576,-1.812953,-12.36732
148,2853493066,-18.83241,13.978725,-65.808495,-7.352521,-1.5372193,-1.034411,-53.57473,-13.76667,-16.757862,-2.111473,-0.881231,3.327154,-42.686488,-2.042398,-12.646618
149,2853509733,-17.752592,13.504829,-68.460915,-9.544858,-1.7314293,-2.2209325,-44.85946,-55.146946,-33.994747,-2.270554,-0.910088,3.290138,-43.434146,-2.961514,-13.213197
150,2853526400,-18.686293,12.697971,-68.478424,-10.579927,-1.8157098,-2.8165922,-35.61444,-86.01976,-47.362614,-2.446886,-0.94035,3.243195,-44.02772,-4.395177,-14.002574
151,2853543067,-21.836084,11.478626,-65.577736,-10.326157,-1.7704144,-2.7960715,-25.661161,-105.591034,-56.420284,-2.618989,-0.969857,3.196594,-44.455406,-6.155028,-14.942912
152,2853559734,-26.17711,9.9234085,-61.110622,-9.467196,-1.6593122,-2.4870043,-14.5199375,-121.61122,-64.241035,-2.776776,-0.997512,3.155144,-44.697405,-8.181882,-16.013596
153,2853576401,-32.340797,7.9961014,-54.250584,-7.5990925,-1.4485152,-1.6688824,-2.4744673,-129.40652,-69.08147,-2.903428,-1.021654,3.127329,-44.738646,-10.338657,-17.164954
154,2853593068,-39.017494,5.5537796,-46.6551,-5.558212,-1.1811717,-0.9429854,11.95381,-141.0084,-74.98192,-2.996065,-1.04134,3.111613,-44.539416,-12.688797,-18.414653
155,2853609735,-46.154144,2.578949,-38.389854,-3.386126,-0.8593941,-0.33625495,28.898151,-157.12898,-82.20644,-3.0525,-1.055663,3.106009,-44.05778,-15.307613,-19.78476
156,2853626402,-54.976753,-0.9070511,-27.87468,-0.30275536,-0.42965937,0.64248776,47.444733,-167.75578,-87.227905,-3.057546,-1.062824,3.116717,-43.267034,-18.103543,-21.238558
157,2853643069,-65.24264,-4.953781,-15.411686,3.5322695,0.101783276,1.8697777,67.97751,-175.42696,-90.887924,-2.998675,-1.061128,3.14788,-42.134076,-21.027326,-22.753357
158,2853659736,-72.902794,-7.866249,-6.4202876,5.874093,0.39700246,2.5937908,78.46217,-175.42134,-90.48851,-2.900773,-1.054511,3.19111,-40.826373,-23.951015,-24.261499
159,2853676403,-77.74379,-9.493065,-1.1900339,6.617688,0.43257892,2.8033755,77.628586,-165.92244,-85.25389,-2.790478,-1.047301,3.237833,-39.532563,-26.716389,-25.682397
160,2853693070,-81.543655,-10.683289,2.677265,6.7320604,0.36645627,2.7730978,71.43599,-150.75822,-76.95882,-2.678277,-1.041193,3.284051,-38.341963,-29.229026,-26.965044
161,2853709737,-83.2158,-10.964401,3.7279992,5.6195,0.10637832,2.3081152,56.412575,-128.078,-64.62481,-2.584619,-1.03942,3.32252,-37.401753,-31.363659,-28.042124
162,2853726404,-85.46075,-11.332336,5.564619,4.8010817,-0.13529503,1.9759021,39.316864,-97.89843,-48.832497,-2.504601,-1.041675,3.355452,-36.746472,-32.995299,-28.855999
163,2853743071,-88.42608,-11.851517,8.388826,4.3596783,-0.3460585,1.8003113,20.478981,-60.156776,-29.54613,-2.43194,-1.047443,3.385457,-36.405156,-33.997912,-29.348434
164,2853759738,-89.8205,-11.608627,9.142122,3.0192919,-0.71255517,1.3304241,-6.6190033,-12.933363,-5.482951,-2.381618,-1.059319,3.407631,-36.515473,-34.213468,-29.439817
165,2853776405,-90.20045,-10.804253,8.5692005,1.0953712,-1.1914909,0.6837797,-40.722054,44.085636,23.391468,-2.363362,-1.079177,3.419027,-37.194174,-33.478707,-29.049959
166,2853793072,-89.68852,-10.394348,7.5994873,-0.12325382,-1.4642785,0.2581954,-58.31286,80.04595,42.345524,-2.365416,-1.103582,3.42333,-38.166055,-32.144608,-28.3442
167,2853809739,-87.978226,-10.338272,5.9040217,-0.67841816,-1.5252545,0.03616357,-58.069588,92.4925,50.24427,-2.376723,-1.129003,3.423933,-39.133881,-30.603066,-27.506795
168,2853826406,-85.35266,-10.30172,3.505707,-0.976531,-1.4978354,-0.093099356,-50.40679,96.485664,54.199314,-2.392999,-1.153967,3.422381,-39.973994,-28.994972,-26.603473
169,2853843073,-81.72612,-10.504692,0.5144634,-0.70695496,-1.3000646,-0.033893704,-28.982706,83.527954,50.161266,-2.404782,-1.175635,3.421816,-40.457039,-27.602839,-25.767452
170,2853859740,-76.39234,-10.139938,-4.446646,-0.9581413,-1.166714,-0.13841558,-9.279839,72.30654,47.160088,-2.420751,-1.19508,3.419509,-40.611703,-26.39773,-24.981451
171,2853876407,-69.29512,-9.154114,-11.465363,-1.7809782,-1.1095924,-0.42024267,7.8621655,64.01359,45.75999,-2.450434,-1.213573,3.412505,-40.480667,-25.330837,-24.218784
172,2853893074,-60.64942,-8.120842,-19.831038,-2.3774261,-0.9417963,-0.62447226,35.695118,41.88213,37.90994,-2.490058,-1.22927,3.402097,-39.885748,-24.632802,-23.586952
173,2853909741,-50.24312,-6.852234,-29.902061,-2.9856439,-0.71296096,-0.82708293,71.0494,9.721492,25.451773,-2.539819,-1.241153,3.388312,-38.701591,-24.470777,-23.162756
174,2853926408,-43.410835,-6.033592,-36.37231,-3.325716,-0.5660043,-1.0309443,90.59182,-9.212611,17.727533,-2.595248,-1.250586,3.37113,-37.191727,-24.624321,-22.867297
175,2853943075,-40.63846,-5.786888,-38.70454,-3.2829618,-0.4920174,-1.2087493,93.794556,-15.006088,14.515,-2.649964,-1.258786,3.350984,-35.628484,-24.874422,-22.62538
176,2853959742,-39.21038,-5.6481705,-39.70409,-3.1572108,-0.45675802,-1.4125298,89.65345,-16.316864,12.522717,-2.702584,-1.266399,3.327442,-34.13426,-25.14637,-22.416668
177,2853976409,-40.612038,-5.8229675,-37.880177,-2.846291,-0.49402583,-1.6363682,72.09717,-7.381178,13.992512,-2.750022,-1.274633,3.300169,-32.932641,-25.26939,-22.183459
178,2853993076,-41.745483,-6.0441513,-36.189243,-2.310172,-0.47209656,-1.8129171,58.186882,-6.215456,11.318256,-2.788525,-1.282501,3.269954,-31.96286,-25.372981,-21.994821
179,2854009743,-42.39901,-6.2768173,-34.8482,-1.5653582,-0.38666594,-1.9452206,48.71724,-13.821432,4.06138,-2.814614,-1.288945,3.237534,-31.150906,-25.603338,-21.927131
180,2854026410,-45.423775,-6.837837,-31.068993,-0.5347395,-0.3313663,-2.0602124,29.956036,-16.43836,-2.1706476,-2.823526,-1.294468,3.203197,-30.651639,-25.877311,-21.963308
181,2854043077,-50.19111,-7.6743927,-25.449762,0.7961445,-0.2779554,-2.1432216,5.4534054,-18.013868,-9.08296,-2.810257,-1.299101,3.167477,-30.560749,-26.177542,-22.114691
182,2854059744,-52.772736,-8.1503525,-22.347218,1.5739355,-0.20489001,-2.200236,-9.375631,-19.498165,-13.41328,-2.784025,-1.302516,3.130806,-30.71701,-26.502511,-22.338246
183,2854076411,-53.19645,-8.257454,-21.778208,1.7399282,-0.11993241,-2.2312057,-14.738184,-19.42347,-14.2442665,-2.755026,-1.304515,3.093619,-30.962646,-26.826235,-22.57565
184,2854093078,-52.94233,-8.27079,-22.037443,1.7172194,-0.013294578,-2.220956,-15.57118,-20.10163,-14.339454,-2.726406,-1.304737,3.056603,-31.222166,-27.161262,-22.814641
185,2854109745,-51.046867,-8.032898,-24.209604,1.2769728,0.118950605,-2.168903,-8.010052,-21.38183,-12.622701,-2.705123,-1.302754,3.020455,-31.355667,-27.517626,-23.025019
186,2854126412,-50.56225,-7.9981995,-25.013453,0.9376488,0.24006629,-2.0781927,-4.6389256,-19.27101,-9.621576,-2.689496,-1.298753,2.985818,-31.432982,-27.838809,-23.185379
187,2854143079,-51.6699,-8.200523,-24.251917,0.73817635,0.35090125,-1.9445533,-5.9445076,-13.853642,-5.5102468,-2.677193,-1.292905,2.953409,-31.532057,-28.069703,-23.277216
188,2854159746,-52.0577,-8.285095,-24.459057,0.2237606,0.47302812,-1.7637082,-2.3706884,-6.874461,0.96822035,-2.673464,-1.285021,2.924014,-31.571568,-28.184277,-23.261079
189,2854176413,-52.403603,-8.355011,-24.912048,-0.49518394,0.59901905,-1.5336376,3.4335303,2.5667005,9.745265,-2.681717,-1.275037,2.898453,-31.514342,-28.141499,-23.098658
190,2854193080,-52.549675,-8.373138,-25.22701,-0.91291237,0.63654375,-1.3639095,6.7260075,8.369114,14.840043,-2.696932,-1.264428,2.875721,-31.402242,-28.002014,-22.851324
191,2854209747,-52.22557,-8.296455,-25.654524,-1.0402822,0.5779577,-1.2632525,8.168164,9.924521,15.942689,-2.71427,-1.254795,2.854667,-31.266106,-27.836605,-22.585613
192,2854226414,-51.987442,-8.216324,-25.868847,-1.0443735,0.4611343,-1.1767528,8.20701,10.849978,15.914421,-2.731676,-1.247109,2.835054,-31.129322,-27.655772,-22.320373
193,2854243081,-51.72519,-8.111961,-25.838337,-0.8015127,0.25935018,-1.134403,5.8126473,9.499597,13.19083,-2.745035,-1.242786,2.816147,-31.032445,-27.497445,-22.100526
194,2854259748,-50.96528,-7.9214554,-26.411753,-0.72112465,0.031786084,-1.0679038,6.2733784,8.985942,11.598547,-2.757054,-1.242256,2.798349,-30.927889,-27.347679,-21.907217
195,2854276415,-49.739853,-7.6502304,-27.57848,-0.82221794,-0.22042668,-0.97231644,9.702066,9.678147,11.428208,-2.770758,-1.24593,2.782144,-30.766188,-27.186377,-21.716747
196,2854293082,-48.172348,-7.3082657,-28.906841,-0.79791737,-0.5515294,-0.9076807,12.63908,8.639046,9.451428,-2.784057,-1.255122,2.767016,-30.555537,-27.042393,-21.559223
197,2854309749,-46.155754,-6.88134,-30.583172,-0.7367315,-0.95107484,-0.8595652,16.229923,6.574934,6.503969,-2.796336,-1.270973,2.75269,-30.285038,-26.932811,-21.450824
198,2854326416,-44.856323,-6.6456985,-31.70765,-0.72029114,-1.1817472,-0.8096215,18.075144,5.0772705,4.3566494,-2.808341,-1.290669,2.739196,-29.983786,-26.84819,-21.378213
199,2854343083,-44.36921,-6.624687,-32.17225,-0.7222042,-1.2283359,-0.7643589,17.615034,3.9051027,2.7754529,-2.820378,-1.311141,2.726457,-29.690202,-26.783105,-21.331955
200,2854359750,-44.050697,-6.675438,-32.54741,-0.76568794,-1.1972566,-0.72340643,16.812479,2.7764506,1.4866202,-2.833139,-1.331095,2.7144,-29.409994,-26.736831,-21.307178
201,2854376417,-44.21129,-6.873436,-32.586197,-0.86506844,-1.0236845,-0.68462336,14.929384,2.0041351,0.8640822,-2.847557,-1.348156,2.70299,-29.161171,-26.703429,-21.292777
202,2854393084,-44.206116,-7.061592,-32.69876,-0.89480495,-0.8613057,-0.6745595,12.456743,-0.025368571,-0.9229976,-2.86247,-1.362511,2.691747,-28.953559,-26.703852,-21.30816
203,2854409751,-43.96956,-7.227745,-32.941647,-0.85545063,-0.7181437,-0.6949222,9.549436,-3.389977,-3.9374232,-2.876728,-1.37448,2.680165,-28.794402,-26.760352,-21.373784
204,2854426418,-44.084442,-7.515747,-32.901527,-0.82034206,-0.46055317,-0.73202527,5.3074493,-7.0634823,-6.9792914,-2.8904,-1.382156,2.667965,-28.705945,-26.878077,-21.490106
205,2854443085,-44.40657,-7.8928223,-32.671894,-0.76276016,-0.11951721,-0.79278886,-0.16963577,-11.423277,-10.457695,-2.903113,-1.384148,2.654752,-28.708772,-27.068465,-21.664401
206,2854459752,-44.538223,-8.178017,-32.63396,-0.71506596,0.09074247,-0.8552489,-3.361394,-13.989566,-12.595542,-2.915031,-1.382636,2.640498,-28.764795,-27.301624,-21.874327
207,2854476419,-44.516823,-8.373833,-32.766846,-0.68596935,0.16765535,-0.91732806,-4.0942125,-14.43783,-13.109267,-2.926464,-1.379842,2.625209,-28.833032,-27.542254,-22.092815
208,2854493086,-44.43344,-8.545448,-32.9515,-0.64027596,0.19328904,-0.99557906,-3.997429,-14.227886,-13.139172,-2.937135,-1.376621,2.608616,-28.899656,-27.779385,-22.311801
209,2854509753,-44.2005,-8.648682,-33.275097,-0.587183,0.11305976,-1.0846733,-2.146841,-12.646107,-12.160825,-2.946921,-1.374737,2.590538,-28.935437,-27.990153,-22.514481
210,2854526420,-44.18799,-8.826225,-33.42067,-0.5275717,0.08773029,-1.1956705,-0.80229664,-10.896697,-10.906115,-2.955714,-1.373275,2.57061,-28.948809,-28.171765,-22.69625
211,2854543087,-44.41131,-9.085968,-33.370922,-0.45729733,0.12563825,-1.331221,-0.11872959,-9.091498,-9.458353,-2.963336,-1.371181,2.548423,-28.950788,-28.32329,-22.853889
212,2854559754,-44.617477,-9.320496,-33.352768,-0.3831215,0.10045254,-1.482016,1.817503,-5.9983463,-6.98465,-2.969721,-1.369507,2.523723,-28.920496,-28.423262,-22.9703
213,2854576421,-44.88909,-9.561272,-33.294712,-0.3040495,0.046545744,-1.6514688,4.5231075,-1.8594359,-3.6281319,-2.974788,-1.368731,2.496199,-28.845111,-28.454253,-23.030769
214,2854593088,-44.844406,-9.740166,-33.48644,-0.25901794,0.025558233,-1.7461815,6.3006516,0.8214208,-1.500403,-2.979105,-1.368305,2.467096,-28.7401,-28.440563,-23.055776
215,2854609755,-44.420906,-9.838333,-33.979885,-0.25317097,0.028356671,-1.7559961,7.2298784,1.9891382,-0.6704557,-2.983325,-1.367832,2.437829,-28.619602,-28.407411,-23.06695
216,2854626422,-43.858574,-9.909889,-34.58681,-0.26735115,0.049140573,-1.7276466,7.7928753,2.6899672,-0.21313664,-2.987781,-1.367013,2.409035,-28.489721,-28.362578,-23.070502
217,2854643089,-43.043068,-9.931961,-35.39548,-0.31340504,0.1009897,-1.6340866,7.5859823,2.2861333,-0.67195296,-2.993004,-1.36533,2.3818,-28.363288,-28.324476,-23.081701
218,2854659756,-42.132362,-9.916969,-36.293434,-0.36886692,0.11550224,-1.5280507,8.082133,2.5592265,-0.59771633,-2.999152,-1.363405,2.356332,-28.228586,-28.281822,-23.091663
219,2854676423,-41.14202,-9.86747,-37.268974,-0.4330387,0.09104884,-1.4121939,9.341729,3.6200714,0.105309665,-3.006369,-1.361888,2.332795,-28.072891,-28.221487,-23.089908
220,2854693090,-39.889862,-9.755714,-38.458607,-0.52820206,0.07199204,-1.2356954,10.298676,4.0454016,0.25710166,-3.015172,-1.360688,2.3122,-27.901246,-28.154064,-23.085623
221,2854709757,-38.40509,-9.58268,-39.842213,-0.6504917,0.043367505,-1.0083983,11.272622,4.222741,0.17263694,-3.026014,-1.359965,2.295393,-27.713369,-28.083685,-23.082746
222,2854726424,-37.229256,-9.4854355,-40.95683,-0.72278786,0.02912426,-0.86987025,12.0502405,4.479698,0.2852153,-3.03806,-1.35948,2.280895,-27.512532,-28.009023,-23.077992
223,2854743091,-36.384308,-9.470947,-41.781105,-0.7411747,0.03557217,-0.8259459,12.495366,4.676546,0.49220836,-3.050413,-1.358887,2.267129,-27.304276,-27.931081,-23.069789
224,2854759758,-35.627777,-9.472946,-42.52547,-0.74028397,0.040380478,-0.81597495,12.933759,4.922874,0.8024202,-3.062751,-1.358214,2.253529,-27.088713,-27.849033,-23.056415
225,2854776425,-35.100586,-9.527107,-43.0685,-0.6996174,0.05088401,-0.8766773,13.276104,5.2600713,1.2943562,-3.074411,-1.357366,2.238918,-26.867445,-27.761365,-23.034842
226,2854793092,-34.43747,-9.545036,-43.717476,-0.6707134,0.0644356,-0.91247207,13.372899,5.138401,1.4191198,-3.08559,-1.356292,2.22371,-26.644563,-27.675725,-23.01119
227,2854809759,-33.61412,-9.519737,-44.492855,-0.65672874,0.07896769,-0.91770536,13.243003,4.5492215,1.1627371,-3.096535,-1.354976,2.208415,-26.423846,-27.599905,-22.991811
228,2854826426,-32.93206,-9.525185,-45.13817,-0.61433506,0.102124214,-0.9714915,12.874762,3.785946,0.85332924,-3.106774,-1.353274,2.192223,-26.209267,-27.536806,-22.977589
229,2854843093,-32.312386,-9.541801,-45.719357,-0.5543976,0.13310695,-1.0536056,12.231651,2.7214184,0.36621672,-3.116014,-1.351056,2.174663,-26.005406,-27.491449,-22.971485
230,2854859760,-31.609068,-9.520416,-46.37002,-0.51440716,0.15278244,-1.0942552,12.017591,2.2656803,0.27753508,-3.124587,-1.34851,2.156425,-25.805113,-27.453688,-22.966859
231,2854876427,-30.84558,-9.465263,-47.070477,-0.4923954,0.16077745,-1.0966718,12.2818,2.5218563,0.6669505,-3.132794,-1.34583,2.138147,-25.600416,-27.411657,-22.955743
232,2854893094,-30.03805,-9.386093,-47.801273,-0.47774124,0.16581118,-1.0804682,12.655516,2.9592013,1.1664827,-3.140756,-1.343066,2.120139,-25.389491,-27.362337,-22.936302
233,2854909761,-29.156923,-9.271622,-48.589725,-0.47925282,0.16316009,-1.0289825,13.324785,3.8315291,1.9396976,-3.148744,-1.340347,2.102989,-25.167411,-27.298478,-22.903974
234,2854926428,-28.363554,-9.168304,-49.292515,-0.4638567,0.16539621,-1.0032535,13.876037,4.6788807,2.730648,-3.156475,-1.33759,2.086268,-24.936144,-27.220497,-22.858463
235,2854943095,-27.663305,-9.077393,-49.90411,-0.43010044,0.17355049,-1.0057156,14.271547,5.4544134,3.5066354,-3.163643,-1.334697,2.069506,-24.698285,-27.12959,-22.800019
236,2854959762,-26.953688,-8.966476,-50.516212,-0.4016323,0.17751527,-0.99220026,14.874168,6.607254,4.536999,-3.170337,-1.331738,2.052969,-24.450382,-27.019469,-22.724402
237,2854976429,-26.271147,-8.845451,-51.096115,-0.37117577,0.18015003,-0.975919,15.592186,8.039464,5.7664843,-3.176523,-1.328735,2.036704,-24.190512,-26.885478,-22.628294
238,2854993096,-25.605246,-8.697983,-51.653625,-0.36596775,0.17147481,-0.94433886,16.189562,8.985084,6.7031703,-3.182622,-1.325877,2.020965,-23.920686,-26.735727,-22.516574
239,2855009763,-24.947168,-8.518951,-52.196587,-0.3912344,0.1493032,-0.8914172,16.689821,9.433345,7.3390183,-3.189143,-1.323389,2.006108,-23.642522,-26.578505,-22.394257
240,2855026430,-24.329966,-8.323021,-52.694984,-0.42900085,0.12033355,-0.83232814,17.142624,9.684901,7.872662,-3.196293,-1.321383,1.992236,-23.356812,-26.41709,-22.263046
241,2855043097,-23.750753,-8.104652,-53.151447,-0.48771,0.081338525,-0.76227665,17.496014,9.545023,8.179318,-3.204421,-1.320027,1.979531,-23.065212,-26.258006,-22.126724
242,2855059764,-23.191916,-7.8647003,-53.580967,-0.5576372,0.035663843,-0.6771227,17.974777,9.570538,8.610291,-3.213715,-1.319433,1.968246,-22.765632,-26.098497,-21.983219
243,2855076431,-22.658873,-7.6039276,-53.978516,-0.6377907,-0.016406655,-0.57768786,18.58744,9.791608,9.185966,-3.224345,-1.319706,1.958618,-22.455841,-25.935304,-21.83012
244,2855093098,-22.15956,-7.3167953,-54.337357,-0.74079514,-0.07958543,-0.4614408,19.181076,9.766153,9.626263,-3.236692,-1.321032,1.950927,-22.136156,-25.772535,-21.669682
245,2855109765,-21.692812,-7.0031357,-54.65825,-0.8650398,-0.15340447,-0.32720673,19.805521,9.613233,10.006866,-3.251109,-1.323589,1.945474,-21.806064,-25.612314,-21.502901
246,2855126432,-21.23319,-6.7567444,-54.965107,-0.93694305,-0.20429921,-0.23748887,20.166225,9.243179,10.05577,-3.266725,-1.326994,1.941516,-21.46996,-25.458261,-21.335305
247,2855143099,-20.779894,-6.585678,-55.258694,-0.9515133,-0.2298578,-0.19737828,20.21875,8.591944,9.710448,-3.282584,-1.330825,1.938226,-21.132981,-25.315062,-21.173464
248,2855159766,-20.345594,-6.445305,-55.526844,-0.9428959,-0.24584389,-0.17611837,20.137718,7.780756,9.148812,-3.298299,-1.334922,1.935291,-20.797352,-25.185383,-21.020984
249,2855176433,-19.923948,-6.3619385,-55.77547,-0.8910265,-0.24306023,-0.19094026,19.835358,6.765868,8.28063,-3.313149,-1.338973,1.932109,-20.466763,-25.072619,-20.882973
250,2855193100,-19.535898,-6.2799606,-55.985104,-0.8421078,-0.24236274,-0.20492947,19.443098,5.482659,7.1890244,-3.327184,-1.343012,1.928694,-20.142711,-24.981241,-20.763156
251,2855209767,-19.183508,-6.1964493,-56.15372,-0.79880714,-0.24496722,-0.21571314,18.971386,3.930613,5.878159,-3.340497,-1.347095,1.925099,-19.826521,-24.915731,-20.665187
252,2855226434,-18.85137,-6.162689,-56.295643,-0.7205143,-0.23240185,-0.2568239,18.274939,2.0951128,4.219607,-3.352506,-1.350968,1.920819,-19.521939,-24.880812,-20.59486
253,2855243101,-18.54466,-6.1678925,-56.40598,-0.61662006,-0.20889008,-0.32078886,17.37762,-0.045796752,2.2217064,-3.362783,-1.35445,1.915473,-19.232312,-24.881575,-20.557832
254,2855259768,-18.240808,-6.147278,-56.55568,-0.5561657,-0.1960913,-0.35501194,16.553625,-1.5031109,0.8564551,-3.372052,-1.357718,1.909556,-18.956418,-24.906627,-20.543558
255,2855276435,-17.936205,-6.10231,-56.75319,-0.54033375,-0.19351387,-0.3591218,15.804474,-2.1916783,0.19279553,-3.381058,-1.360943,1.903571,-18.69301,-24.943155,-20.540345
256,2855293102,-17.645529,-6.0576096,-56.961433,-0.5423584,-0.1934843,-0.35344803,15.0107765,-2.600938,-0.23132917,-3.390097,-1.364168,1.89768,-18.44283,-24.986504,-20.5442
257,2855309769,-17.362135,-5.9978943,-57.201088,-0.5799732,-0.20120645,-0.3247615,14.239185,-2.4560657,-0.15090135,-3.399763,-1.367521,1.892267,-18.20551,-25.027438,-20.546715
258,2855326436,-17.096067,-5.9755096,-57.43419,-0.6022072,-0.19904983,-0.31265497,13.287607,-2.3403711,-0.17150351,-3.4098,-1.370838,1.887056,-17.98405,-25.066444,-20.549573
259,2855343103,-16.848505,-5.99411,-57.658604,-0.6064663,-0.18599081,-0.31934905,12.139805,-2.2906394,-0.33086517,-3.419908,-1.373938,1.881734,-17.78172,-25.104621,-20.555087
260,2855359770,-16.608595,-6.0154953,-57.912037,-0.6332598,-0.17503524,-0.31404066,10.949758,-1.7736996,-0.09577069,-3.430462,-1.376855,1.8765,-17.599224,-25.134183,-20.556683
261,2855376437,-16.378393,-6.0517654,-58.18745,-0.67178345,-0.16222751,-0.30533254,9.670383,-0.9067657,0.40932867,-3.441658,-1.379559,1.871411,-17.438051,-25.149296,-20.549861
262,2855393104,-16.123262,-6.0814285,-58.46371,-0.6927328,-0.15196502,-0.30055594,8.725443,-0.5126101,0.5061742,-3.453204,-1.382092,1.866402,-17.292627,-25.15784,-20.541425
263,2855409771,-15.837812,-6.0986023,-58.745106,-0.69818115,-0.14604878,-0.29682672,8.174182,-0.594785,0.20192991,-3.46484,-1.384526,1.861455,-17.156391,-25.167753,-20.53806
264,2855426438,-15.539309,-6.1225357,-59.038395,-0.69471073,-0.13954842,-0.2966156,7.783444,-0.83438003,-0.2604622,-3.476419,-1.386852,1.856511,-17.026667,-25.181659,-20.542401
265,2855443105,-15.216818,-6.1463776,-59.340473,-0.6754627,-0.13403618,-0.3009863,7.679818,-1.4369687,-1.0480458,-3.487677,-1.389086,1.851495,-16.89867,-25.205608,-20.559868
266,2855459772,-14.8871975,-6.1739807,-59.675106,-0.66798496,-0.13009715,-0.297894,7.6548076,-1.7793667,-1.624449,-3.49881,-1.391254,1.84653,-16.77109,-25.235264,-20.586942
267,2855476439,-14.550539,-6.206955,-60.045086,-0.67314243,-0.12738752,-0.2872665,7.696419,-1.825308,-1.9612,-3.510029,-1.393377,1.841742,-16.642816,-25.265686,-20.619629
268,2855493106,-14.187937,-6.2373276,-60.43748,-0.671545,-0.12707007,-0.27575374,8.024769,-2.0563395,-2.4640055,-3.521221,-1.395495,1.837146,-16.50907,-25.299958,-20.660696
269,2855509773,-13.801733,-6.2659683,-60.859074,-0.66910934,-0.12930477,-0.2606666,8.602965,-2.3358507,-3.0154917,-3.532373,-1.39765,1.832802,-16.365687,-25.338889,-20.710954
270,2855526440,-13.436251,-6.3170776,-61.26475,-0.66563416,-0.12104082,-0.25795448,8.815717,-2.6168442,-3.4457917,-3.543467,-1.399667,1.828503,-16.218758,-25.382503,-20.768384
271,2855543107,-13.092085,-6.391487,-61.650227,-0.6590681,-0.10133624,-0.26958907,8.63989,-2.9500875,-3.7830653,-3.554451,-1.401356,1.82401,-16.07476,-25.431671,-20.831435
272,2855559774,-12.7485485,-6.47805,-62.04305,-0.6536875,-0.076573014,-0.28596997,8.349676,-3.2626264,-4.0245304,-3.565346,-1.402632,1.819244,-15.935599,-25.486048,-20.898511
273,2855576441,-12.416399,-6.582924,-62.431225,-0.64898396,-0.04321432,-0.31158674,7.785674,-3.5564272,-4.1328726,-3.576162,-1.403352,1.814051,-15.805838,-25.545322,-20.967392
274,2855593108,-12.0632,-6.690193,-62.84004,-0.6400318,-0.009093046,-0.33886397,7.370535,-3.9790606,-4.307177,-3.586829,-1.403504,1.808403,-15.682996,-25.61164,-21.039178
275,2855609775,-11.685968,-6.7986603,-63.2728,-0.62713814,0.025253177,-0.36697805,7.132764,-4.5286922,-4.5471683,-3.597281,-1.403083,1.802287,-15.564117,-25.687118,-21.114964
276,2855626442,-11.309328,-6.9213715,-63.70712,-0.612237,0.066797614,-0.40360975,6.7272453,-5.137834,-4.7221236,-3.607485,-1.40197,1.79556,-15.451996,-25.772749,-21.193666
277,2855643109,-10.925512,-7.0547867,-64.14913,-0.59429455,0.1139158,-0.44715953,6.2460356,-5.840012,-4.872603,-3.61739,-1.400071,1.788107,-15.347895,-25.870083,-21.274876
278,2855659776,-10.537056,-7.156555,-64.57062,-0.5826416,0.14843655,-0.47327077,6.295987,-6.095541,-4.82471,-3.627101,-1.397597,1.780219,-15.242962,-25.971675,-21.355288
279,2855676443,-10.146555,-7.223892,-64.966064,-0.57820606,0.16949618,-0.48064244,6.8964925,-5.848961,-4.546966,-3.636738,-1.394772,1.772208,-15.12802,-26.069158,-21.431071
280,2855693110,-9.746862,-7.274185,-65.3531,-0.57577896,0.18461299,-0.4797603,7.8257318,-5.3809266,-4.148492,-3.646334,-1.391695,1.764212,-14.997591,-26.15884,-21.500213
281,2855709777,-9.339079,-7.295601,-65.72274,-0.5779276,0.18889308,-0.46405017,9.246533,-4.5387297,-3.575613,-3.655966,-1.388547,1.756478,-14.843482,-26.234485,-21.559807
282,2855726444,-8.926821,-7.315544,-66.086464,-0.579854,0.19464374,-0.44949782,10.723973,-3.6168067,-2.890246,-3.66563,-1.385303,1.748986,-14.664749,-26.294765,-21.607978
283,2855743111,-8.509201,-7.334854,-66.445015,-0.5811081,0.20241141,-0.43688333,12.244769,-2.6346087,-2.097337,-3.675315,-1.381929,1.741705,-14.46067,-26.338675,-21.642934
284,2855759778,-8.085274,-7.3291245,-66.78424,-0.5862999,0.20175731,-0.41246855,14.170332,-1.3094474,-1.1161895,-3.685087,-1.378566,1.734831,-14.224498,-26.360499,-21.661537
285,2855776445,-7.655491,-7.3034744,-67.10593,-0.5944176,0.19514811,-0.37946963,16.415676,0.30104768,0.043768734,-3.694994,-1.375314,1.728507,-13.950903,-26.355482,-21.660808
286,2855793112,-7.262697,-7.291214,-67.4084,-0.596982,0.1975025,-0.35994327,17.752594,1.2893757,0.8481034,-3.704944,-1.372022,1.722508,-13.655026,-26.333992,-21.646673
287,2855809779,-6.9112473,-7.2919006,-67.68856,-0.593812,0.20885813,-0.35417306,18.10704,1.6077243,1.2588542,-3.714841,-1.368541,1.716605,-13.353242,-26.307197,-21.625692
288,2855826446,-6.58136,-7.2925034,-67.94737,-0.58828926,0.22369051,-0.35373342,18.004454,1.6506091,1.5254728,-3.724646,-1.364813,1.710709,-13.053168,-26.279687,-21.600267
289,2855843113,-6.2855244,-7.3010025,-68.182755,-0.57823086,0.24575484,-0.3642589,17.107979,1.1739515,1.5015173,-3.734283,-1.360717,1.704638,-12.768035,-26.260121,-21.575242
290,2855859780,-5.998476,-7.2906723,-68.390884,-0.5697193,0.26350224,-0.36918986,16.22843,0.78002584,1.5202909,-3.743778,-1.356325,1.698485,-12.497561,-26.247121,-21.549904
291,2855876447,-5.719387,-7.259651,-68.570305,-0.56307983,0.2763368,-0.3676833,15.401248,0.5001739,1.6008642,-3.753163,-1.351719,1.692357,-12.240874,-26.238785,-21.523223
292,2855893114,-5.472355,-7.227577,-68.72,-0.553421,0.29316747,-0.37277305,13.92333,-0.178936,1.4484166,-3.762387,-1.346833,1.686144,-12.008818,-26.241767,-21.499083
293,2855909781,-5.252861,-7.1883087,-68.8379,-0.5420332,0.31150246,-0.38093054,11.954652,-1.1344144,1.1303127,-3.771421,-1.341641,1.679795,-11.809574,-26.260674,-21.480244
294,2855926448,-5.0423737,-7.150131,-68.970795,-0.5355482,0.3211863,-0.38277125,10.678278,-1.5914984,1.0604421,-3.780347,-1.336288,1.673415,-11.631603,-26.287199,-21.46257
295,2855943115,-4.843132,-7.115799,-69.12196,-0.5340233,0.32222617,-0.378937,10.111465,-1.5430213,1.2379382,-3.789247,-1.330918,1.667099,-11.463079,-26.312916,-21.441938
296,2855959782,-4.66189,-7.0768127,-69.26672,-0.53520584,0.31766653,-0.3714633,9.791541,-1.277214,1.5083221,-3.798167,-1.325624,1.660908,-11.299887,-26.334203,-21.416799
297,2855976449,-4.495205,-7.0359116,-69.41745,-0.54081726,0.30485904,-0.35812855,10.020212,-0.5965009,1.9744909,-3.807181,-1.320543,1.654939,-11.132883,-26.344145,-21.383891
298,2855993116,-4.3615074,-6.9927444,-69.544975,-0.54575825,0.29191136,-0.3477397,9.913802,-0.08863163,2.3157778,-3.816277,-1.315678,1.649143,-10.967653,-26.345622,-21.345295
299,2856009783,-4.262724,-6.946594,-69.64656,-0.5498562,0.27900302,-0.34053743,9.42433,0.21799266,2.5144536,-3.825441,-1.311028,1.643467,-10.810581,-26.341989,-21.303387
300,2856026450,-4.1876965,-6.9000626,-69.74711,-0.55715466,0.25975358,-0.33027816,9.247079,0.78422153,2.8158646,-3.834727,-1.306699,1.637962,-10.656463,-26.328919,-21.256456
301,2856043117,-4.1413937,-6.8530426,-69.84,-0.5666151,0.23576319,-0.3188268,9.19205,1.4853793,3.149864,-3.844171,-1.30277,1.632648,-10.503262,-26.304163,-21.203958
302,2856059784,-4.0658875,-6.7983093,-69.93699,-0.5748739,0.21704388,-0.30733168,9.136369,1.9430493,3.3523965,-3.853752,-1.299153,1.627526,-10.350989,-26.271779,-21.148085
303,2856076451,-3.9550056,-6.735794,-70.042366,-0.5821209,0.20375562,-0.29523325,9.152008,2.1752434,3.434629,-3.863454,-1.295757,1.622605,-10.198456,-26.235525,-21.090841
304,2856093118,-3.8402824,-6.6689224,-70.1461,-0.58928394,0.19218087,-0.28328896,9.1684265,2.276085,3.4244,-3.873275,-1.292554,1.617884,-10.045649,-26.19759,-21.033768
305,2856109785,-3.705408,-6.595978,-70.25259,-0.59557724,0.1849122,-0.27166605,9.17618,2.1535635,3.2816613,-3.883201,-1.289472,1.613356,-9.892713,-26.161697,-20.979074
306,2856126452,-3.5823135,-6.5216827,-70.36102,-0.6040745,0.1743257,-0.2580397,9.426185,2.1467037,3.1619728,-3.893269,-1.286567,1.609055,-9.73561,-26.125919,-20.926374
307,2856143119,-3.4735508,-6.446518,-70.47121,-0.6149168,0.160079,-0.24245381,9.922388,2.2651753,3.0668344,-3.903518,-1.283899,1.605014,-9.570237,-26.088166,-20.87526
308,2856159786,-3.348875,-6.3667374,-70.58797,-0.6259289,0.14820004,-0.22618592,10.540285,2.2621994,2.8838718,-3.91395,-1.281429,1.601244,-9.394566,-26.050463,-20.827195
309,2856176453,-3.2148418,-6.2835007,-70.71162,-0.63779545,0.13709259,-0.20874786,11.339317,2.2088318,2.6442037,-3.92458,-1.279144,1.597765,-9.205577,-26.013649,-20.783125
310,2856193120,-3.0676155,-6.214447,-70.83936,-0.6475611,0.13096714,-0.19213021,11.892284,2.0669456,2.4255795,-3.935373,-1.276961,1.594563,-9.007372,-25.9792,-20.742699
311,2856209787,-2.9021702,-6.161003,-70.97242,-0.65470695,0.13102305,-0.17662013,12.154343,1.8043076,2.2222714,-3.946285,-1.274777,1.591619,-8.8048,-25.949128,-20.705661
312,2856226454,-2.724001,-6.1157837,-71.11318,-0.6611128,0.13425529,-0.1609174,12.376199,1.4869128,2.01792,-3.957304,-1.272539,1.588937,-8.59853,-25.924346,-20.672029
313,2856243121,-2.530033,-6.0838547,-71.26184,-0.6658783,0.14214754,-0.14558828,12.440885,1.0957369,1.8308328,-3.968402,-1.27017,1.586511,-8.391182,-25.906084,-20.641515
314,2856259788,-2.3140697,-6.054344,-71.42216,-0.6701641,0.15392923,-0.1298418,12.569927,0.58551943,1.5835092,-3.979571,-1.267605,1.584347,-8.181683,-25.896325,-20.615123
315,2856276455,-2.0750294,-6.0270004,-71.59535,-0.6740799,0.1695795,-0.11356771,12.787737,-0.04220438,1.2735575,-3.990806,-1.264779,1.582454,-7.968554,-25.897028,-20.593897
316,2856293122,-1.8121338,-6.0119247,-71.78044,-0.6762247,0.19095135,-0.09765279,12.884237,-0.78472936,0.9547075,-4.002076,-1.261596,1.580826,-7.753817,-25.910107,-20.577985
317,2856309789,-1.5227985,-6.007164,-71.979065,-0.67680264,0.21807551,-0.08192885,12.908534,-1.654483,0.6102107,-4.013356,-1.257961,1.579461,-7.538675,-25.937682,-20.567815
318,2856326456,-1.2891579,-6.0022736,-72.143616,-0.6759634,0.23549831,-0.072173,12.863697,-2.2853336,0.3686173,-4.024622,-1.254036,1.578258,-7.32428,-25.975771,-20.561671
319,2856343123,-1.1179276,-5.997864,-72.26989,-0.6734495,0.24216604,-0.069128394,12.720196,-2.6458528,0.2485806,-4.035846,-1.25,1.577106,-7.112277,-26.019869,-20.557528
320,2856359790,-0.96747017,-5.9980392,-72.38213,-0.6692486,0.2455926,-0.07000697,12.507652,-2.920673,0.17801723,-4.047,-1.245907,1.575939,-6.903816,-26.068547,-20.554561
321,2856376457,-0.8602638,-6.0005493,-72.46718,-0.6632643,0.24161339,-0.07655966,12.215396,-3.008659,0.19546431,-4.058054,-1.24188,1.574663,-6.700226,-26.118691,-20.551303
322,2856393124,-0.74702644,-6.0147324,-72.55343,-0.6549597,0.23988247,-0.08571744,11.789413,-3.1231928,0.24117073,-4.06897,-1.237882,1.573234,-6.503736,-26.170744,-20.547283
323,2856409791,-0.6241188,-6.0414124,-72.64289,-0.64421177,0.24107921,-0.0974139,11.2250185,-3.2789454,0.31158686,-4.079707,-1.233864,1.57161,-6.316652,-26.225393,-20.54209
324,2856426458,-0.53562355,-6.074417,-72.70989,-0.6311102,0.23680103,-0.114827275,10.533927,-3.280924,0.4719431,-4.090226,-1.229917,1.569696,-6.141087,-26.280075,-20.534224
325,2856443125,-0.47121048,-6.116066,-72.76029,-0.6154394,0.22908962,-0.13746631,9.6990185,-3.1726766,0.7119277,-4.100483,-1.226099,1.567405,-5.979437,-26.332953,-20.522359
326,2856459792,-0.37831116,-6.155937,-72.846275,-0.604269,0.22885549,-0.15437388,9.072839,-3.200972,0.80368716,-4.110554,-1.222285,1.564832,-5.828223,-26.386303,-20.508964
327,2856476459,-0.2578354,-6.1925583,-72.969406,-0.5982199,0.23605835,-0.16503084,8.684986,-3.3619814,0.7360361,-4.120524,-1.218351,1.562081,-5.683473,-26.442336,-20.496697
328,2856493126,-0.12807274,-6.2328415,-73.10882,-0.59373283,0.24687338,-0.17443144,8.351926,-3.5653784,0.6122122,-4.13042,-1.214236,1.559174,-5.544274,-26.501759,-20.486493
329,2856509793,0.02381134,-6.2738113,-73.27814,-0.5927706,0.26404035,-0.17969573,8.169834,-3.8709621,0.3720215,-4.1403,-1.209835,1.556179,-5.40811,-26.566275,-20.480293
330,2856526460,0.15584373,-6.320442,-73.44048,-0.5911398,0.27907348,-0.18820167,7.9307394,-4.0829086,0.16706103,-4.150152,-1.205184,1.553042,-5.275931,-26.634323,-20.477509
331,2856543127,0.26584244,-6.373436,-73.59405,-0.58855724,0.29158688,-0.20044458,7.6179247,-4.189633,0.0070722997,-4.159961,-1.200324,1.549701,-5.148966,-26.70415,-20.477391
332,2856559794,0.38532066,-6.4278336,-73.76905,-0.58883953,0.30812645,-0.21029556,7.4180083,-4.337445,-0.23502591,-4.169775,-1.195189,1.546196,-5.025333,-26.776441,-20.481308
333,2856576461,0.5050926,-6.4847565,-73.95783,-0.5911293,0.32688928,-0.21934521,7.286703,-4.4825726,-0.5269687,-4.179627,-1.189741,1.54254,-4.903888,-26.851151,-20.490091
334,2856593128,0.5965576,-6.5377274,-74.102005,-0.5915899,0.338848,-0.22870588,7.149745,-4.587726,-0.6452848,-4.189487,-1.184094,1.538728,-4.784726,-26.927613,-20.500846
335,2856609795,0.6602802,-6.585373,-74.199615,-0.5903959,0.34386492,-0.2377013,7.025854,-4.6646442,-0.5837977,-4.199327,-1.178363,1.534766,-4.667628,-27.005357,-20.510576
336,2856626462,0.70316124,-6.6314316,-74.27312,-0.58884907,0.3449514,-0.24685693,6.9223247,-4.699229,-0.42619458,-4.209141,-1.172614,1.530652,-4.552256,-27.083677,-20.517679
337,2856643129,0.71778107,-6.673752,-74.30694,-0.58606815,0.33972108,-0.25622654,6.8276997,-4.684241,-0.11334628,-4.218909,-1.166952,1.526382,-4.438461,-27.161748,-20.519568
338,2856659796,0.7284031,-6.714897,-74.34285,-0.5853138,0.33507514,-0.26358652,6.833761,-4.676208,0.19330361,-4.228664,-1.161367,1.521989,-4.324565,-27.239685,-20.516346
339,2856676463,0.7352524,-6.7548676,-74.38247,-0.5867958,0.33120167,-0.26885486,6.9463305,-4.6734004,0.487651,-4.238444,-1.155847,1.517508,-4.208793,-27.317575,-20.508218
340,2856693130,0.7196026,-6.790283,-74.39134,-0.58819675,0.32255232,-0.27307987,7.113967,-4.6413603,0.9019741,-4.248247,-1.150471,1.512957,-4.090227,-27.394931,-20.493185
341,2856709797,0.6861305,-6.821396,-74.37787,-0.59027004,0.31049168,-0.27570117,7.359934,-4.59109,1.4038042,-4.258085,-1.145296,1.508362,-3.967561,-27.471449,-20.469788
342,2856726464,0.6639023,-6.8522415,-74.37825,-0.5902777,0.30482173,-0.28144526,7.5695744,-4.466602,1.7732629,-4.267923,-1.140216,1.503671,-3.841401,-27.545892,-20.440234
343,2856743131,0.6533356,-6.8824463,-74.391426,-0.58772755,0.305781,-0.29076946,7.7301817,-4.2586527,2.006054,-4.277718,-1.13512,1.498825,-3.712565,-27.61687,-20.4068
344,2856759798,0.6435776,-6.909958,-74.405495,-0.58447075,0.30959857,-0.30095744,7.915736,-4.0007977,2.1853619,-4.287459,-1.12996,1.493809,-3.580636,-27.68355,-20.370377
345,2856776465,0.6421261,-6.935478,-74.42915,-0.5796881,0.31883693,-0.3132912,8.095489,-3.6760073,2.2540772,-4.29712,-1.124646,1.488587,-3.445711,-27.744817,-20.332809
346,2856793132,0.6265793,-6.955406,-74.43177,-0.57443047,0.32624686,-0.32519877,8.327646,-3.3054972,2.3761075,-4.306694,-1.119209,1.483167,-3.306917,-27.799909,-20.293207
347,2856809799,0.5958843,-6.9691925,-74.41176,-0.5688343,0.33149588,-0.33640516,8.620848,-2.890733,2.558908,-4.316175,-1.113684,1.47756,-3.163236,-27.848088,-20.250559
348,2856826466,0.56760406,-6.978958,-74.39151,-0.561636,0.3404088,-0.34927845,8.920839,-2.4053683,2.671632,-4.325536,-1.108011,1.471739,-3.014555,-27.888177,-20.206032
349,2856843133,0.5370083,-6.9836197,-74.36423,-0.55304146,0.35147834,-0.36324322,9.241889,-1.8527,2.7484505,-4.334753,-1.102153,1.465685,-2.860524,-27.919055,-20.160224
350,2856859800,0.49277878,-6.9856033,-74.32388,-0.5500593,0.35383964,-0.37053394,9.467917,-1.4888589,2.8346145,-4.343921,-1.096256,1.459509,-2.702725,-27.943869,-20.11298
351,2856876467,0.4359398,-6.9850845,-74.27221,-0.5531807,0.3471346,-0.37067533,9.580279,-1.3347605,2.9178803,-4.353141,-1.09047,1.453331,-2.543054,-27.966115,-20.064349
352,2856893134,0.3686428,-6.9799194,-74.20711,-0.55921364,0.33547866,-0.36692083,9.6434965,-1.2710223,2.9990792,-4.362461,-1.084879,1.447216,-2.382329,-27.987299,-20.014364
353,2856909801,0.28829765,-6.970619,-74.12735,-0.57008266,0.31597173,-0.35712838,9.621645,-1.3693415,3.0855894,-4.371962,-1.079613,1.441264,-2.221968,-28.010121,-19.962938
354,2856926468,0.20606422,-6.9558945,-74.04183,-0.5814142,0.29642916,-0.3463174,9.5699215,-1.4742002,3.1157415,-4.381652,-1.074673,1.435492,-2.062469,-28.034691,-19.911009
355,2856943135,0.122262955,-6.935295,-73.95026,-0.59298515,0.27714014,-0.3346746,9.490773,-1.5779297,3.087066,-4.391535,-1.070054,1.429914,-1.904289,-28.06099,-19.859558
356,2856959802,0.029218674,-6.909775,-73.84705,-0.6086788,0.2516564,-0.31777835,9.32302,-1.8221103,3.0346277,-4.40168,-1.06586,1.424618,-1.748905,-28.091359,-19.808981
357,2856976469,-0.07065964,-6.878807,-73.73396,-0.6276293,0.22153974,-0.29659057,9.075603,-2.1765797,2.9436538,-4.41214,-1.062168,1.419675,-1.597645,-28.127635,-19.75992
358,2856993136,-0.12559319,-6.859291,-73.666664,-0.6395235,0.20331717,-0.28290284,8.98923,-2.3809927,2.811734,-4.422799,-1.058779,1.41496,-1.447824,-28.167318,-19.713058
359,2857009803,-0.13101959,-6.852913,-73.6503,-0.6438894,0.19778335,-0.2772448,9.076715,-2.4307425,2.639925,-4.43353,-1.055483,1.410339,-1.296545,-28.20783,-19.669059
360,2857026470,-0.109407425,-6.8512955,-73.65992,-0.6450558,0.1981436,-0.274616,9.227613,-2.4315717,2.4169722,-4.444281,-1.052181,1.405762,-1.142751,-28.248356,-19.628776
361,2857043137,-0.045829773,-6.8592224,-73.71163,-0.64026546,0.20886326,-0.27815795,9.50585,-2.3172615,2.140964,-4.454952,-1.0487,1.401126,-0.98432,-28.286977,-19.593093
362,2857059804,0.028118134,-6.866951,-73.77175,-0.63655186,0.21861291,-0.27977884,9.752869,-2.2790685,1.8198136,-4.465561,-1.045056,1.396463,-0.821772,-28.324961,-19.562763
363,2857076471,0.111600876,-6.8739624,-73.839226,-0.6342583,0.22690284,-0.2790581,9.958393,-2.3283863,1.4501343,-4.476132,-1.041274,1.391812,-0.655799,-28.363767,-19.538594
364,2857093138,0.2341156,-6.8894196,-73.94561,-0.62747097,0.24331343,-0.28275704,10.256303,-2.3143084,1.0246648,-4.48659,-1.037219,1.387099,-0.484861,-28.402339,-19.521516
365,2857109805,0.39003944,-6.9114456,-74.084785,-0.6176243,0.26557648,-0.2892046,10.612946,-2.2784464,0.5428594,-4.496884,-1.032793,1.382279,-0.307979,-28.440313,-19.512468
366,2857126472,0.51986885,-6.9328384,-74.202,-0.6101246,0.28271508,-0.29503047,10.760725,-2.321216,0.21026742,-4.507053,-1.028081,1.377362,-0.128634,-28.479,-19.508964
367,2857143139,0.62251663,-6.9543457,-74.29693,-0.60470104,0.2949729,-0.30081356,10.690016,-2.4348447,0.04554099,-4.517131,-1.023165,1.372348,0.049533,-28.519581,-19.508205
368,2857159806,0.7233696,-6.978386,-74.39249,-0.5996952,0.30614746,-0.3070947,10.5044,-2.6007824,-0.049668133,-4.527126,-1.018063,1.36723,0.224606,-28.562927,-19.509033
369,2857176473,0.8074589,-7.0035095,-74.47523,-0.5963707,0.31358278,-0.31323624,10.13238,-2.8427908,-0.017165244,-4.537066,-1.012837,1.362009,0.393479,-28.610307,-19.509319
370,2857193140,0.9184494,-7.0366135,-74.586624,-0.5899668,0.32632875,-0.3230393,9.762595,-3.0650334,0.019824028,-4.546899,-1.007398,1.356625,0.556189,-28.661391,-19.508989
371,2857209807,1.0593758,-7.0783005,-74.72971,-0.5802374,0.3448794,-0.3367102,9.402325,-3.2656326,0.055054635,-4.55657,-1.00165,1.351013,0.712894,-28.715818,-19.508071
372,2857226474,1.1961174,-7.124176,-74.87287,-0.57055473,0.36255527,-0.35192966,8.89462,-3.5124173,0.20214908,-4.566079,-0.995607,1.345148,0.861138,-28.774358,-19.504702
373,2857243141,1.3384647,-7.17601,-75.02562,-0.55984974,0.38136876,-0.3696146,8.277145,-3.7854877,0.4373241,-4.57541,-0.989251,1.338988,0.99909,-28.837449,-19.497413
374,2857259808,1.4380322,-7.210312,-75.12843,-0.55273724,0.39278305,-0.38167477,7.964511,-3.858787,0.6650805,-4.584622,-0.982705,1.332627,1.131832,-28.901762,-19.486328
375,2857276475,1.4859924,-7.224449,-75.17188,-0.55001736,0.39521468,-0.3871591,7.977149,-3.7166529,0.89363456,-4.593789,-0.976118,1.326174,1.264784,-28.963706,-19.471434
376,2857293142,1.5118866,-7.230934,-75.19071,-0.5487375,0.3941033,-0.39060664,8.143537,-3.4512274,1.1552925,-4.602935,-0.96955,1.319664,1.40051,-29.021226,-19.452179
377,2857309809,1.5005836,-7.2230225,-75.166855,-0.55029774,0.3868016,-0.38971317,8.5758,-2.998685,1.4301614,-4.612107,-0.963103,1.313169,1.54344,-29.071204,-19.428343
378,2857326476,1.4715748,-7.2134857,-75.127106,-0.5528488,0.37657118,-0.38867283,8.991116,-2.5071096,1.8069823,-4.621321,-0.956827,1.306691,1.693292,-29.112989,-19.398227
379,2857343143,1.4261189,-7.203186,-75.07325,-0.5562067,0.3636924,-0.38783383,9.377111,-1.9804894,2.2929914,-4.630591,-0.950765,1.300227,1.849577,-29.145997,-19.36001
380,2857359810,1.3403587,-7.1797714,-74.97525,-0.56256866,0.34409082,-0.3830675,9.973552,-1.2868491,2.8301013,-4.639967,-0.94503,1.293843,2.015803,-29.167444,-19.312842
381,2857376477,1.2173347,-7.1457367,-74.83771,-0.57159805,0.31830013,-0.37521935,10.723819,-0.4535153,3.440458,-4.649494,-0.939725,1.287589,2.194533,-29.175003,-19.255501
382,2857393144,1.1440773,-7.119087,-74.7504,-0.576869,0.3029697,-0.36937153,11.148659,0.06823027,3.8210425,-4.659108,-0.934676,1.281433,2.380344,-29.173866,-19.191817
383,2857409811,1.1246376,-7.0996704,-74.716805,-0.5781374,0.29898703,-0.36538625,11.233193,0.25321758,3.9373198,-4.668744,-0.929693,1.275343,2.567564,-29.169646,-19.126195
384,2857426478,1.1186943,-7.080353,-74.69637,-0.5783005,0.29865992,-0.36133695,11.168223,0.2990049,3.9493685,-4.678382,-0.924715,1.269321,2.753701,-29.164663,-19.060372
385,2857443145,1.1489754,-7.065468,-74.712326,-0.57569695,0.30640066,-0.35841215,10.827755,0.08362496,3.7699187,-4.687977,-0.919608,1.263347,2.934164,-29.163269,-18.99754
386,2857459812,1.1575394,-7.041069,-74.70361,-0.57468414,0.31134176,-0.35253394,10.5553055,-0.092877746,3.5623934,-4.697555,-0.914419,1.257471,3.110086,-29.164817,-18.938167
387,2857476479,1.1402569,-7.006172,-74.66594,-0.57556057,0.31276214,-0.34341347,10.367256,-0.21487796,3.3371918,-4.707148,-0.909206,1.251747,3.282874,-29.168398,-18.882547
388,2857493146,1.1452198,-6.9712524,-74.64933,-0.5747633,0.3198588,-0.33401585,9.983402,-0.5386424,2.9344556,-4.716727,-0.903875,1.24618,3.449264,-29.177375,-18.833639
389,2857509813,1.1598034,-6.9331055,-74.6404,-0.57324314,0.3303193,-0.32339132,9.474887,-1.003015,2.385525,-4.726281,-0.89837,1.24079,3.607179,-29.194092,-18.79388
390,2857526480,1.1502266,-6.9001923,-74.61479,-0.5737257,0.33409488,-0.3146863,9.147715,-1.2642031,2.0971344,-4.735843,-0.892802,1.235545,3.759641,-29.215162,-18.758928
391,2857543147,1.1191196,-6.874428,-74.57617,-0.57605076,0.33138096,-0.30850244,8.996047,-1.323164,2.0846248,-4.745444,-0.887279,1.230403,3.909575,-29.237215,-18.724184
392,2857559814,1.0738583,-6.8495255,-74.526955,-0.5795803,0.32539475,-0.30264843,8.92169,-1.3039215,2.1731193,-4.755104,-0.881856,1.225359,4.05827,-29.258947,-18.687965
393,2857576481,1.0066414,-6.8281555,-74.46203,-0.5849695,0.31365108,-0.2980814,9.000384,-1.1204596,2.468993,-4.764853,-0.876628,1.220391,4.208276,-29.277621,-18.646815
394,2857593148,0.94901276,-6.807869,-74.40799,-0.58975124,0.30433154,-0.29364836,8.97971,-1.0417113,2.6915667,-4.774682,-0.871556,1.215497,4.357938,-29.294983,-18.601956
395,2857609815,0.9019623,-6.7882843,-74.36548,-0.5938606,0.29777336,-0.28918898,8.849046,-1.0811629,2.8242311,-4.78458,-0.866593,1.210677,4.505422,-29.313002,-18.554885
396,2857626482,0.84337616,-6.773033,-74.3173,-0.5990715,0.28780758,-0.28613842,8.797854,-1.0326364,3.0977721,-4.794565,-0.861796,1.205908,4.652053,-29.330213,-18.503255
397,2857643149,0.780035,-6.761734,-74.26928,-0.6048641,0.2761742,-0.2842735,8.772202,-0.9541437,3.4525678,-4.804646,-0.857193,1.20117,4.798256,-29.346115,-18.445712
398,2857659816,0.69213676,-6.7480392,-74.195946,-0.6073952,0.26755166,-0.2831986,8.691237,-0.96138346,3.715095,-4.814769,-0.852734,1.19645,4.94311,-29.362138,-18.383794
399,2857676483,0.5753536,-6.7320633,-74.09322,-0.6064644,0.2616979,-0.28314126,8.56858,-1.0420899,3.8975136,-4.824877,-0.848372,1.191731,5.08592,-29.379506,-18.318835
400,2857693150,0.4437561,-6.716728,-73.977356,-0.60351753,0.25760627,-0.28420317,8.40514,-1.1818984,4.042253,-4.834936,-0.844079,1.186994,5.226006,-29.399204,-18.251464
401,2857709817,0.29107666,-6.700592,-73.8408,-0.59748745,0.25642848,-0.2864033,8.183601,-1.4074839,4.1091566,-4.844894,-0.839805,1.182221,5.362399,-29.422662,-18.182978
402,2857726484,0.12290764,-6.688469,-73.69388,-0.59105587,0.25385475,-0.29038334,7.999959,-1.5994341,4.2587037,-4.854745,-0.835574,1.177381,5.495732,-29.449319,-18.112
403,2857743151,-0.059991837,-6.680847,-73.537735,-0.58428574,0.24980474,-0.2962594,7.8550997,-1.7560744,4.4969783,-4.864483,-0.831411,1.172443,5.62665,-29.478587,-18.03705
404,2857759818,-0.26622772,-6.674309,-73.36048,-0.5748739,0.24741924,-0.30380952,7.6870813,-1.9593228,4.711425,-4.874064,-0.827287,1.16738,5.754768,-29.511242,-17.958526
405,2857776485,-0.49497223,-6.670067,-73.16408,-0.5633249,0.24581873,-0.3132583,7.5161886,-2.18436,4.937131,-4.883453,-0.82319,1.162159,5.880038,-29.547648,-17.87624
406,2857793152,-0.6804142,-6.6711884,-73.00812,-0.57079124,0.24203491,-0.31574464,7.4332676,-2.5478122,4.854931,-4.892966,-0.819156,1.156897,6.003926,-29.590112,-17.795324
407,2857809819,-0.8176956,-6.6777496,-72.89662,-0.5990963,0.23613882,-0.31042802,7.44189,-3.0704489,4.4206643,-4.902951,-0.81522,1.151723,6.127957,-29.641286,-17.721646
408,2857826486,-0.93769073,-6.689308,-72.80248,-0.6386156,0.22894084,-0.3016957,7.514186,-3.6806498,3.8088536,-4.913595,-0.811404,1.146695,6.253193,-29.70263,-17.658165
409,2857843153,-1.0222969,-6.706764,-72.742004,-0.6953573,0.21969116,-0.28704286,7.675762,-4.414488,2.9242897,-4.925184,-0.807742,1.141911,6.381122,-29.776205,-17.609427
410,2857859820,-1.1120377,-6.727791,-72.677574,-0.7564955,0.21098101,-0.27162623,7.858016,-5.227891,1.9213701,-4.937792,-0.804226,1.137384,6.512089,-29.863337,-17.577404
411,2857876487,-1.2091999,-6.752556,-72.607185,-0.82151604,0.20288074,-0.25574064,8.060831,-6.117745,0.80865014,-4.951484,-0.800845,1.133122,6.646436,-29.965299,-17.563926
412,2857893154,-1.277626,-6.783119,-72.56399,-0.9022598,0.19345117,-0.23457837,8.342219,-7.139603,-0.5783361,-4.966522,-0.797621,1.129212,6.785473,-30.084292,-17.573565
413,2857909821,-1.3254375,-6.819191,-72.54042,-0.9963255,0.18322515,-0.20914567,8.690004,-8.286693,-2.212673,-4.983127,-0.794567,1.125726,6.930306,-30.222404,-17.610443
414,2857926488,-1.5627441,-6.83284,-72.29596,-0.9760847,0.19053018,-0.21698773,8.856197,-8.15699,-1.87714,-4.999395,-0.791391,1.12211,7.077909,-30.358354,-17.641729
415,2857943155,-2.0057678,-6.8216095,-71.81074,-0.8303318,0.21701539,-0.26120734,8.824609,-6.61777,0.62605745,-5.013234,-0.787774,1.117757,7.224986,-30.46865,-17.631295
416,2857959822,-2.560917,-6.7985153,-71.19289,-0.6175556,0.2544639,-0.32478178,8.705389,-4.3238425,4.269783,-5.023527,-0.783533,1.112344,7.370076,-30.540714,-17.560132
417,2857976489,-3.2871685,-6.7556534,-70.37431,-0.3014431,0.30814016,-0.4183154,8.430464,-0.8730007,9.684811,-5.028551,-0.778397,1.105372,7.510584,-30.555264,-17.398718
418,2857993156,-4.0539265,-6.7098694,-69.50218,0.041305542,0.3670156,-0.5189048,8.161083,2.91363,15.549295,-5.027863,-0.77228,1.096724,7.646602,-30.506703,-17.139563
419,2858009823,-4.8558636,-6.6618958,-68.58227,0.4076004,0.4307263,-0.62560415,7.905196,7.0031977,21.807673,-5.02107,-0.765101,1.086297,7.778355,-30.389983,-16.776102
420,2858026490,-5.811138,-6.5962296,-67.47962,0.86857605,0.509584,-0.759398,7.5222616,12.170934,29.689693,-5.006594,-0.756608,1.07364,7.903726,-30.187134,-16.281274
421,2858043157,-6.894924,-6.516083,-66.22184,1.4099226,0.6015889,-0.91596526,7.044484,18.265879,38.948174,-4.983095,-0.746582,1.058374,8.021134,-29.882703,-15.632138
422,2858059824,-8.0084915,-6.1097183,-65.034966,1.6820021,0.66014445,-1.0749,6.338317,23.521059,45.031612,-4.955062,-0.73558,1.040459,8.126773,-29.490685,-14.881611
423,2858076491,-9.16044,-5.342575,-63.92039,1.660491,0.68219185,-1.2374849,5.3692937,27.884628,47.67322,-4.927387,-0.72421,1.019834,8.216261,-29.025941,-14.087057
424,2858093158,-10.384207,-4.3619385,-62.78603,1.5019207,0.68860996,-1.4111001,4.218304,32.11306,48.88083,-4.902355,-0.712733,0.996316,8.286566,-28.490723,-13.272377
425,2858109825,-11.659281,-3.0758896,-61.68793,1.1097136,0.66663,-1.5913095,2.8380089,35.75166,47.419796,-4.88386,-0.701622,0.969794,8.333866,-27.894862,-12.482047
426,2858126492,-13.078321,-1.6580276,-60.454876,0.7060709,0.6462139,-1.7962546,1.2641344,40.05584,46.275963,-4.872092,-0.690852,0.939856,8.354935,-27.227265,-11.710781
427,2858143159,-14.648943,-0.11354065,-59.075413,0.30160904,0.62888354,-2.0274036,-0.5055208,45.10547,45.60392,-4.867065,-0.680371,0.906066,8.34651,-26.475507,-10.950716
428,2858159826,-16.31077,1.7292633,-57.680805,-0.30020142,0.58843684,-2.2724953,-2.5367117,49.891876,42.832474,-4.872068,-0.670564,0.868191,8.304231,-25.643976,-10.236841
429,2858176493,-18.08698,3.840622,-56.232533,-1.0556021,0.53086877,-2.535993,-4.829611,54.688305,38.56658,-4.889661,-0.661716,0.825924,8.223737,-24.732504,-9.594065
430,2858193160,-19.262083,5.096733,-55.881424,-1.555604,0.45809174,-2.7753842,-6.5864773,53.52781,33.037796,-4.915588,-0.654081,0.779668,8.113962,-23.840374,-9.043435
431,2858209827,-19.759043,5.412903,-56.760292,-1.7878361,0.36643577,-2.9854634,-7.7438564,45.672535,25.900257,-4.945385,-0.647974,0.72991,7.984898,-23.079165,-8.611764
432,2858226494,-19.9317,5.3035583,-58.30363,-1.9191732,0.258448,-3.1897442,-8.684454,34.09631,17.403349,-4.977371,-0.643667,0.676748,7.840157,-22.510893,-8.321708
433,2858243161,-19.572733,4.456497,-60.850277,-1.8429089,0.13311005,-3.375949,-9.187527,17.021835,7.4683127,-5.008086,-0.641448,0.620482,7.687032,-22.227196,-8.197236
434,2858259828,-19.081312,3.5718994,-63.773106,-1.8508482,-0.018233895,-3.5661607,-9.7397785,-2.393732,-4.767842,-5.038933,-0.641752,0.561046,7.524702,-22.267092,-8.2767
435,2858276495,-18.476084,2.684311,-67.04818,-1.9584494,-0.19650912,-3.7620125,-10.369921,-24.03815,-19.384758,-5.071574,-0.645027,0.498346,7.35187,-22.667728,-8.599779
436,2858293162,-17.36939,1.166893,-71.300354,-1.9287748,-0.39915943,-3.9415119,-10.640671,-51.13377,-36.098476,-5.10372,-0.65168,0.432654,7.174525,-23.519957,-9.20142
437,2858309829,-15.834494,-0.84297943,-76.41983,-1.8232622,-0.6289258,-4.108961,-10.649883,-83.14369,-55.17108,-5.134108,-0.662162,0.364171,6.997027,-24.905685,-10.120938
438,2858326496,-15.6551,-2.5208588,-76.90865,-1.7030573,-0.78246,-4.1169057,-11.415251,-104.54867,-68.2352,-5.162492,-0.675203,0.295556,6.806773,-26.648163,-11.258191
439,2858343163,-16.948637,-3.8778915,-72.31262,-1.5436897,-0.8500111,-3.9465222,-12.975885,-114.34453,-74.50299,-5.18822,-0.68937,0.229781,6.590508,-28.553905,-12.499908
440,2858359830,-18.913961,-5.2243805,-65.15953,-1.356246,-0.8828256,-3.668854,-14.9116535,-119.60431,-78.15922,-5.210824,-0.704084,0.168633,6.34198,-30.54731,-13.802562
441,2858376497,-22.03969,-6.3608246,-53.902008,-1.1479092,-0.8517289,-3.2392807,-17.491816,-116.101845,-76.848305,-5.229956,-0.718279,0.114645,6.05045,-32.482341,-15.083367
442,2858393164,-25.183409,-7.944031,-41.889996,-0.8199415,-0.8166685,-2.7356858,-20.009014,-113.792206,-75.41262,-5.243622,-0.73189,0.06905,5.716966,-34.378878,-16.340244
443,2858409831,-28.28671,-10.015411,-29.274536,-0.36826706,-0.7811136,-2.1597164,-22.427843,-113.229225,-74.14568,-5.24976,-0.744909,0.033055,5.343169,-36.266032,-17.576005
444,2858426498,-32.350105,-12.086258,-12.99567,0.15580177,-0.6891568,-1.4305526,-25.334269,-105.74687,-68.53888,-5.247163,-0.756395,0.009212,4.920931,-38.02848,-18.71832
445,2858443165,-37.14502,-14.305092,6.306153,0.776701,-0.5525087,-0.5606272,-28.582201,-93.36936,-59.54659,-5.234218,-0.765603,-0.000132,4.444561,-39.584636,-19.710763
446,2858459832,-32.78872,-15.81974,22.375887,1.1113768,-0.4516605,0.03057599,-30.685343,-84.46841,-53.03644,-5.215695,-0.773131,0.000378,3.933139,-40.992443,-20.594704
447,2858476499,-18.411768,-16.491882,35.056507,1.12012,-0.38604105,0.31540155,-31.570265,-78.65278,-48.904495,-5.197026,-0.779565,0.005635,3.406968,-42.303323,-21.409779
448,2858493166,1.4976406,-16.828323,46.942844,1.0033846,-0.32418036,0.48678112,-31.840784,-73.20417,-44.918186,-5.180303,-0.784968,0.013748,2.876288,-43.523393,-22.158415
449,2858509833,29.758356,-16.569946,56.426952,0.65274143,-0.28564787,0.43046546,-31.093191,-70.063,-42.47959,-5.169424,-0.789729,0.020922,2.358068,-44.69111,-22.866408
450,2858526500,60.427658,-16.08966,68.016945,0.2794609,-0.20787358,0.4147005,-30.340181,-61.991547,-36.913162,-5.164766,-0.793194,0.027834,1.852398,-45.724302,-23.481627
451,2858543167,93.28155,-15.413979,81.98103,-0.10210991,-0.086717606,0.4548278,-29.621885,-48.570324,-27.905737,-5.166468,-0.794639,0.035414,1.3587,-46.533807,-23.946723
452,2858559834,133.84381,-14.118477,94.71381,-0.69360924,0.03078711,0.31712723,-28.075754,-34.939903,-18.908354,-5.178028,-0.794126,0.040699,0.890771,-47.116139,-24.261862
453,2858576501,181.01659,-12.267342,107.188774,-1.45329,0.15882659,0.05634296,-25.901598,-19.447544,-8.849525,-5.202249,-0.791479,0.041638,0.459078,-47.440265,-24.409354
454,2858593168,210.12881,-11.325981,114.52138,-1.8237991,0.2686515,-0.12389946,-23.593351,-5.898816,-1.1184058,-5.232646,-0.787001,0.039573,0.065855,-47.538579,-24.427994
455,2858609835,219.55527,-11.363892,115.76422,-1.7799053,0.35237968,-0.23632598,-21.07551,4.83334,3.5928364,-5.262311,-0.781128,0.035634,-0.285404,-47.458023,-24.368113
456,2858626502,220.30933,-11.714737,113.854195,-1.5601368,0.43379188,-0.34364533,-18.23145,15.76862,7.663911,-5.288313,-0.773898,0.029907,-0.589261,-47.195213,-24.240381
457,2858643169,205.62112,-12.763893,107.22674,-1.0162687,0.50342244,-0.39988708,-15.153948,25.72764,10.042831,-5.305251,-0.765508,0.023242,-0.841827,-46.766419,-24.073
458,2858659836,191.34308,-13.535614,97.746475,-0.5258055,0.5667293,-0.58724046,-11.306295,35.715347,11.883272,-5.314014,-0.756063,0.013455,-1.030265,-46.171163,-23.874945
459,2858676503,178.26294,-13.965401,85.49392,-0.10886669,0.6251895,-0.91643006,-6.649954,45.970123,13.340229,-5.315828,-0.745643,-0.001819,-1.141098,-45.404994,-23.652608
460,2858693170,152.49533,-14.868172,68.0491,0.5512161,0.667325,-1.2610701,-1.5110903,54.93845,12.879839,-5.306641,-0.734521,-0.022837,-1.166283,-44.489353,-23.437944
461,2858709837,117.19922,-16.03479,45.660347,1.376401,0.6938938,-1.6633004,4.2451086,62.824257,10.708103,-5.283701,-0.722956,-0.050559,-1.095531,-43.442282,-23.259476
462,2858726504,93.52584,-16.620499,26.324572,1.8264885,0.7395851,-1.8894789,8.370448,68.31232,9.980018,-5.25326,-0.71063,-0.08205,-0.956024,-42.303743,-23.093142
463,2858743171,81.59212,-16.644867,10.330877,1.8893385,0.80524755,-1.9046029,10.620612,70.958374,10.714338,-5.221771,-0.697209,-0.113793,-0.779014,-41.121103,-22.91457
464,2858759838,73.31122,-16.366707,-6.1001077,1.769167,0.8741954,-1.8501811,12.161524,71.43612,11.484894,-5.192285,-0.682639,-0.144629,-0.576322,-39.930501,-22.723155
465,2858776505,74.00064,-15.577034,-20.936075,1.3248291,0.9549687,-1.6571629,12.348906,69.20166,13.050777,-5.170205,-0.666723,-0.172248,-0.370507,-38.77714,-22.505642
466,2858793172,67.531296,-14.972221,-39.638824,0.952919,1.0240147,-1.4313989,12.416938,64.58028,13.135727,-5.154323,-0.649656,-0.196105,-0.163558,-37.700802,-22.286713
467,2858809839,53.010857,-14.578308,-62.659153,0.67052937,1.0791343,-1.182519,12.441279,57.46391,11.538868,-5.143148,-0.63167,-0.215814,0.043797,-36.74307,-22.094399
468,2858826506,42.92722,-13.871544,-85.603714,0.15777016,1.1388888,-0.79564834,11.228554,47.092045,9.9928665,-5.140518,-0.612689,-0.229075,0.23094,-35.958203,-21.927851
469,2858843173,33.773453,-12.998756,-109.71723,-0.5036926,1.1977153,-0.290995,9.015918,33.391075,7.957393,-5.148913,-0.592727,-0.233925,0.381205,-35.401685,-21.795228
470,2858859840,25.437847,-12.329842,-126.824104,-0.90623474,1.2453156,0.0017542839,7.7195606,24.712542,7.100442,-5.164017,-0.571972,-0.233896,0.509864,-34.989809,-21.676887
471,2858876507,19.373539,-11.840752,-135.58011,-1.0503407,1.2825665,0.06894469,7.340434,21.655622,7.7627115,-5.181523,-0.550596,-0.232747,0.632205,-34.628882,-21.547508
472,2858893174,13.220946,-11.457344,-140.69308,-1.07514,1.3101344,0.05596304,7.0998845,20.105915,8.754267,-5.199442,-0.52876,-0.231814,0.750536,-34.293783,-21.401604
473,2858909841,7.3732843,-11.2688675,-139.64302,-0.87703896,1.3254406,-0.12349796,7.467159,22.322838,10.590349,-5.214059,-0.506669,-0.233872,0.874989,-33.921736,-21.225098
474,2858926508,5.0726347,-10.923004,-136.08263,-0.77836514,1.3383672,-0.24659562,6.9880743,23.089579,12.681685,-5.227032,-0.484363,-0.237982,0.991457,-33.53691,-21.013737
475,2858943175,6.2814026,-10.41246,-130.21045,-0.7922983,1.3486881,-0.29942918,5.562026,22.030283,14.943097,-5.240237,-0.461885,-0.242972,1.084157,-33.169739,-20.764685
476,2858959842,9.872791,-9.988815,-117.85589,-0.66969013,1.3491023,-0.46669626,4.294559,23.693647,18.134048,-5.251399,-0.4394,-0.25075,1.155733,-32.774845,-20.462451
477,2858976509,16.637632,-9.578957,-99.6124,-0.47813702,1.3413849,-0.70089066,2.8554335,26.972895,22.1424,-5.259368,-0.417044,-0.262432,1.203324,-32.325297,-20.093411
478,2858993176,19.609385,-9.115204,-89.15103,-0.38502312,1.3099514,-0.80355865,2.4656682,28.293367,24.439468,-5.265785,-0.395211,-0.275825,1.244418,-31.853741,-19.686087
479,2859009843,18.203945,-8.619217,-87.05574,-0.37679482,1.25215,-0.7783909,3.3683372,27.915579,24.910303,-5.272065,-0.374342,-0.288798,1.300557,-31.388481,-19.270915
480,2859026510,16.413912,-8.07325,-87.06484,-0.41975784,1.1762218,-0.68731475,4.7526364,26.816885,24.69968,-5.279061,-0.354738,-0.300253,1.379768,-30.941533,-18.859254
481,2859043177,12.397743,-7.4654922,-92.7321,-0.55281734,1.077209,-0.48091137,7.0013356,24.192013,23.144827,-5.288275,-0.336785,-0.308268,1.496457,-30.538333,-18.473507
482,2859059844,10.01068,-6.9043884,-94.82766,-0.6126566,0.9615532,-0.32140684,9.673639,23.29458,21.915361,-5.298486,-0.320759,-0.313625,1.657684,-30.15009,-18.108251
483,2859076511,9.6932535,-6.390358,-92.69727,-0.5945759,0.8292816,-0.21486926,12.726042,24.286583,21.121227,-5.308396,-0.306938,-0.317206,1.869785,-29.745314,-17.756231
484,2859093178,7.995326,-5.860771,-93.93676,-0.6119938,0.6723925,-0.038513303,16.732561,24.915058,19.365639,-5.318596,-0.295731,-0.317848,2.148661,-29.330063,-17.43347
485,2859109845,5.810607,-5.3392944,-96.52716,-0.62984276,0.49165815,0.17356932,21.62133,25.916866,17.005768,-5.329093,-0.287537,-0.314955,2.509017,-28.898115,-17.150041
486,2859126512,4.5242176,-4.828331,-97.14733,-0.6309166,0.39354634,0.31273174,23.83081,26.38347,15.790468,-5.339608,-0.280978,-0.309743,2.906197,-28.45839,-16.886867
487,2859143179,3.840128,-4.3240585,-96.406265,-0.6250696,0.38721108,0.38253832,23.112564,26.016575,15.716389,-5.350026,-0.274524,-0.303367,3.291406,-28.02478,-16.624927
488,2859159846,3.7278042,-3.8436813,-94.498604,-0.5954075,0.4226513,0.41100764,21.121788,25.794891,16.197762,-5.359949,-0.26748,-0.296517,3.643436,-27.594865,-16.354964
489,2859176513,4.445225,-3.3885422,-90.76644,-0.5393696,0.52986616,0.37098694,16.884,25.427858,17.679775,-5.368938,-0.258649,-0.290334,3.924836,-27.171067,-16.060301
490,2859193180,4.409979,-2.9417648,-89.02715,-0.4962778,0.6448346,0.3578155,12.625045,24.91358,18.795748,-5.377209,-0.247902,-0.28437,4.135253,-26.755841,-15.747039
491,2859209847,3.584135,-2.5070038,-89.3811,-0.4644308,0.7644602,0.37385035,8.471497,24.347181,19.494303,-5.38495,-0.235161,-0.278139,4.276445,-26.350055,-15.422134
492,2859226514,2.941845,-2.0954285,-89.43512,-0.42199612,0.94755995,0.34817266,2.4579287,23.479956,20.838945,-5.391983,-0.219368,-0.272336,4.31741,-25.958722,-15.074818
493,2859243181,2.129385,-1.7055817,-90.04152,-0.37667465,1.181829,0.30034256,-4.965728,22.326658,22.546642,-5.398261,-0.199671,-0.26733,4.234648,-25.586611,-14.699041
494,2859259848,1.4039783,-1.1776657,-90.00032,-0.36479664,1.25792,0.30970407,-9.790756,22.714956,24.205679,-5.404341,-0.178706,-0.262168,4.071469,-25.208028,-14.295613
495,2859276515,0.8620968,-0.49770355,-89.006874,-0.38828564,1.1636364,0.3757782,-11.893869,24.775946,25.908453,-5.410812,-0.159312,-0.255905,3.873238,-24.795096,-13.863805
496,2859293182,0.10988808,0.2589798,-88.27659,-0.43556023,0.9904777,0.47426486,-12.888056,27.655048,27.664425,-5.418071,-0.142804,-0.248001,3.658437,-24.334179,-13.402731
497,2859309849,-0.78222847,1.137558,-87.46311,-0.5170784,0.6815685,0.6255648,-11.722944,31.852852,29.39867,-5.426689,-0.131445,-0.237575,3.463055,-23.803298,-12.912753
498,2859326516,-1.7323799,2.0400085,-86.68675,-0.6051731,0.37442338,0.76431656,-11.251062,36.283245,31.640913,-5.436775,-0.125205,-0.224836,3.275537,-23.198577,-12.385404
499,2859343183,-2.7981129,2.961502,-86.089554,-0.69979763,0.07588506,0.8885827,-11.6141205,40.88606,34.40986,-5.448438,-0.12394,-0.210026,3.081968,-22.517143,-11.811906
500,2859359850,-3.9746704,3.9913635,-85.33415,-0.8245449,-0.33259892,1.0486715,-10.484699,46.644176,37.391056,-5.46218,-0.129483,-0.192548,2.907223,-21.73974,-11.188722
501,2859376517,-5.268156,5.110588,-84.48468,-0.9745264,-0.8233392,1.231246,-8.456535,53.342552,40.708084,-5.478422,-0.143205,-0.172027,2.766281,-20.850697,-10.510254
502,2859393184,-6.399912,6.1801605,-83.7248,-0.91388893,-1.1056151,1.2897067,-7.9037113,57.69326,43.939262,-5.493653,-0.161632,-0.150532,2.634552,-19.889143,-9.777933
503,2859409851,-7.3460445,7.19981,-83.02183,-0.62218666,-1.1666765,1.2153914,-8.762352,59.508385,47.02425,-5.504023,-0.181077,-0.130275,2.488513,-18.897337,-8.994195
504,2859426518,-8.253845,8.224457,-82.34219,-0.20739841,-1.1262054,1.0683155,-10.299467,60.20629,50.260365,-5.50748,-0.199847,-0.11247,2.316855,-17.893899,-8.156522
505,2859443185,-9.0469055,9.21973,-81.71833,0.39746284,-0.90635896,0.8079479,-13.096975,58.892857,53.531105,-5.500856,-0.214953,-0.099004,2.098572,-16.912351,-7.264337
506,2859459852,-9.922611,10.291817,-81.02024,1.0495472,-0.70742774,0.53241706,-15.159149,57.73568,57.01254,-5.483364,-0.226743,-0.09013,1.84592,-15.95009,-6.314128
507,2859476519,-10.897951,11.447449,-80.2421,1.7429829,-0.5386442,0.24515796,-16.403742,56.837444,60.737026,-5.454314,-0.23572,-0.086044,1.572524,-15.002799,-5.301844
508,2859493186,-11.809767,12.605404,-79.47083,2.6095648,-0.23206306,-0.1391002,-18.312185,54.329674,64.51992,-5.410821,-0.239588,-0.088362,1.267321,-14.097304,-4.226512
509,2859509853,-12.702837,13.789406,-78.677025,3.62249,0.17168868,-0.60149145,-20.456549,50.64599,68.40474,-5.350446,-0.236727,-0.098387,0.926379,-13.253204,-3.086433
510,2859526520,-13.753168,15.31068,-78.15988,4.253372,0.41585708,-0.8405505,-23.845186,51.606926,72.2487,-5.279556,-0.229796,-0.112396,0.528959,-12.393089,-1.882288
511,2859543187,-14.959391,17.192318,-77.95757,4.469265,0.49756652,-0.8382675,-28.74994,57.539074,76.01158,-5.205068,-0.221503,-0.126367,0.049793,-11.434104,-0.615428
512,2859559854,-16.270586,19.305698,-77.907875,4.5039854,0.51235944,-0.7253692,-34.40423,65.973175,79.78985,-5.130002,-0.212964,-0.138456,-0.523611,-10.334551,0.714403
513,2859576521,-17.732195,21.739231,-78.0985,4.213237,0.39448142,-0.4195403,-41.147583,78.49532,83.53243,-5.059781,-0.206389,-0.145448,-1.209404,-9.026296,2.10661
514,2859593188,-19.204939,24.295208,-78.378235,3.9401417,0.3385508,-0.119154334,-48.78952,91.235535,87.28226,-4.994112,-0.200746,-0.147434,-2.022563,-7.505704,3.561314
515,2859609855,-20.68604,26.968658,-78.7377,3.701848,0.35378778,0.1664455,-57.30137,104.02188,91.03985,-4.932415,-0.19485,-0.14466,-2.977586,-5.772006,5.078645
516,2859626522,-22.285017,29.939007,-79.331985,3.200139,0.28713572,0.6088419,-67.10245,120.18588,94.7329,-4.879079,-0.190064,-0.134513,-4.09596,-3.768908,6.657527
517,2859643189,-23.974543,33.170456,-80.13329,2.503787,0.17971027,1.168463,-78.1817,138.95891,98.364,-4.837349,-0.187069,-0.115039,-5.398988,-1.452926,8.296927
518,2859659856,-24.85386,35.71109,-80.26556,1.7052269,0.11577129,1.4550784,-80.55949,145.2552,96.86566,-4.808929,-0.185139,-0.090788,-6.741646,0.967994,9.911355
519,2859676523,-24.845278,37.49266,-79.66583,0.7702637,0.08489776,1.4536917,-73.3187,138.0109,89.69749,-4.796091,-0.183724,-0.06656,-7.963624,3.268176,11.406313
520,2859693190,-24.353525,38.943535,-78.73198,-0.3045597,0.07481682,1.3239245,-61.164764,123.83647,79.22087,-4.801167,-0.182477,-0.044495,-8.983037,5.332117,12.726661
521,2859709857,-23.121813,39.799995,-77.22182,-1.5099878,0.103868246,0.9622834,-41.256775,98.53512,63.94816,-4.826333,-0.180746,-0.028457,-9.67065,6.974369,13.792464
522,2859726524,-21.698298,40.664486,-75.684875,-2.9848208,0.08287251,0.641788,-19.46402,71.7098,46.748386,-4.87608,-0.179365,-0.017761,-9.99505,8.169532,14.571604
523,2859743191,-20.102999,41.565727,-74.14837,-4.740611,0.009184837,0.37563705,3.9508328,43.76225,27.7065,-4.95509,-0.179212,-0.0115,-9.929203,8.898903,15.033379
524,2859759858,-17.829252,41.96886,-72.12348,-6.708803,-0.058273077,-0.062169313,34.480797,6.148463,4.0159287,-5.066903,-0.180183,-0.012536,-9.354523,9.001377,15.100311
525,2859776525,-14.978399,41.992203,-69.718544,-8.927471,-0.13913703,-0.6154804,71.02443,-39.27906,-23.826761,-5.215694,-0.182502,-0.022794,-8.170783,8.346726,14.703198
526,2859793192,-14.081064,41.27223,-69.40466,-10.198264,-0.114733815,-1.0235499,93.62799,-74.73864,-46.501957,-5.385665,-0.184414,-0.039853,-6.610316,7.101082,13.928165
527,2859809859,-15.314207,39.69017,-71.362015,-10.400833,0.03237343,-1.290353,101.13942,-99.723564,-63.55116,-5.559012,-0.183874,-0.061359,-4.924659,5.439023,12.868979
528,2859826526,-17.543158,37.48111,-74.495575,-10.131231,0.23210704,-1.5030081,102.3515,-121.55744,-79.14238,-5.727866,-0.180006,-0.086409,-3.218801,3.413066,11.549939
529,2859843193,-21.467134,34.5049,-79.4941,-9.047504,0.51961124,-1.5969665,91.85982,-135.62793,-90.80397,-5.878658,-0.171346,-0.113025,-1.687804,1.152601,10.036539
530,2859859860,-25.478933,30.811653,-84.80033,-7.831299,0.8414819,-1.7844052,82.77781,-154.68489,-104.79937,-6.00918,-0.157321,-0.142765,-0.308174,-1.425481,8.289883
531,2859876527,-29.501513,26.38712,-90.34764,-6.519547,1.1933948,-2.0749898,75.7884,-179.44286,-121.51263,-6.117839,-0.137431,-0.177348,0.954966,-4.416195,6.264673
532,2859893194,-34.957047,21.058899,-97.529144,-4.4649696,1.633799,-2.3089275,59.619843,-199.61737,-135.69771,-6.192255,-0.110201,-0.21583,1.94863,-7.743151,4.003045
533,2859909861,-41.528954,14.808754,-106.04473,-1.797637,2.1528687,-2.5318801,36.93424,-217.92453,-148.6783,-6.222216,-0.07432,-0.258028,2.564201,-11.375227,1.525073
534,2859926528,-41.194748,9.896,-106.56725,0.10497856,2.2348628,-2.4608045,20.107693,-231.23714,-160.12447,-6.220466,-0.037072,-0.299041,2.899329,-15.229179,-1.143668
535,2859943195,-33.343826,6.4937363,-98.3535,1.2069263,1.837301,-2.0481942,8.799418,-237.92807,-169.30205,-6.200351,-0.00645,-0.333178,3.045986,-19.194647,-3.965369
536,2859959862,-21.550222,3.4982681,-85.60404,2.0877132,1.1974372,-1.4577745,-1.1950378,-241.24522,-177.2098,-6.165556,0.013507,-0.357474,3.026069,-23.215401,-6.918866
537,2859976529,-3.5668125,1.5281525,-65.69506,2.3938026,0.17022562,-0.60194385,-6.9059353,-239.84192,-183.49998,-6.125659,0.016344,-0.367506,2.91097,-27.212766,-9.977199
538,2859993196,15.598335,-0.8028183,-44.383137,3.1093178,-0.93126607,0.39877748,-18.60793,-232.79237,-186.95906,-6.073837,0.000823,-0.36086,2.600838,-31.092639,-13.093183
539,2860009863,35.736065,-3.5864487,-21.909414,4.294961,-2.0928864,1.5381682,-36.860878,-220.07018,-187.51039,-6.002254,-0.034058,-0.335224,1.98649,-34.760475,-16.218356
540,2860026530,61.361496,-5.5921783,6.9572816,5.162301,-3.600963,2.9583275,-54.130478,-200.72467,-185.32794,-5.916216,-0.094074,-0.285919,1.084315,-38.105886,-19.307155
541,2860043197,91.51751,-7.106415,41.122494,5.924817,-5.39568,4.6405287,-72.70838,-174.32103,-180.02919,-5.817469,-0.184002,-0.208577,-0.127491,-41.011236,-22.307642
542,2860059864,112.77562,-8.486481,68.02832,6.466485,-6.488537,5.608449,-81.71066,-150.49132,-170.78311,-5.709694,-0.292144,-0.115103,-1.489335,-43.519425,-25.154027
543,2860076531,124.46566,-9.591263,87.21543,6.678565,-6.8234024,5.790518,-79.23461,-129.71088,-157.33131,-5.598385,-0.405867,-0.018594,-2.809912,-45.681273,-27.776216
544,2860093198,132.36777,-10.424652,103.994965,6.7593336,-6.831662,5.6405115,-72.02698,-106.84362,-139.63632,-5.485729,-0.519728,0.075415,-4.010362,-47.462,-30.103488
545,2860109865,132.88075,-11.020027,115.07588,6.6444273,-6.2454457,4.889367,-56.74695,-84.31605,-117.295944,-5.374989,-0.623819,0.156904,-4.956144,-48.867267,-32.05842
546,2860126532,135.06169,-10.833328,129.24292,6.198497,-5.717304,4.144721,-37.803802,-55.97098,-90.625145,-5.271681,-0.719107,0.225983,-5.586207,-49.800117,-33.568839
547,2860143199,139.3808,-9.822197,146.99323,5.421563,-5.2801547,3.4397614,-15.552561,-21.138561,-59.404533,-5.181322,-0.80711,0.283312,-5.845416,-50.152426,-34.558915
548,2860159866,138.1854,-8.253181,161.12834,4.3110323,-4.373663,2.234052,15.284957,15.169086,-22.974928,-5.109471,-0.880004,0.320546,-5.590667,-49.899608,-34.94183
549,2860176533,133.3329,-5.978386,173.50565,2.8256845,-3.1297998,0.6490991,53.9654,54.435024,18.786732,-5.062376,-0.932167,0.331364,-4.691244,-48.992358,-34.628718
550,2860193200,129.83951,-4.8023224,175.69516,1.8291187,-2.2396002,-0.30808413,76.67125,82.29675,47.8778,-5.031891,-0.969494,0.326229,-3.41339,-47.620745,-33.830755
551,2860209867,127.154106,-4.899246,165.89047,1.385993,-1.6936684,-0.61473894,81.99242,96.745476,62.710564,-5.008791,-0.997722,0.315983,-2.04685,-46.00832,-32.785579
552,2860226534,124.063385,-5.2865906,149.2317,1.0453091,-1.2469566,-0.6726835,80.88845,105.60661,71.97334,-4.991369,-1.018505,0.304772,-0.698709,-44.24821,-31.586023
553,2860243201,121.62179,-6.462372,122.93652,1.0380669,-1.0689507,-0.22200394,66.96261,104.5761,70.60655,-4.974068,-1.036321,0.301072,0.417334,-42.505275,-30.409247
554,2860259868,114.819664,-7.4112854,89.904274,0.84888554,-0.6046741,0.005314946,55.56069,100.83303,69.400024,-4.95992,-1.046399,0.301161,1.343346,-40.824724,-29.25258
555,2860276535,103.37679,-8.045006,50.20645,0.43282318,0.17555988,-0.029590845,47.625847,94.76608,68.94483,-4.952706,-1.043473,0.300668,2.13711,-39.245289,-28.103499
556,2860293202,90.563614,-9.300575,-0.30020857,0.24290466,0.85527635,0.25958347,29.967516,78.83586,59.35237,-4.948658,-1.029218,0.304994,2.636569,-37.931358,-27.114293
557,2860309869,75.19904,-10.961937,-61.31544,0.16606998,1.5565437,0.7174835,5.7797365,54.305443,42.73827,-4.94589,-1.003276,0.316952,2.732898,-37.026267,-26.401989
558,2860326536,63.410515,-11.868149,-102.92253,0.0052165985,2.0750012,0.9009352,-8.335016,39.883533,34.312588,-4.945803,-0.968693,0.331968,2.593981,-36.361541,-25.830113
559,2860343203,56.060364,-12.03553,-123.03074,-0.19931316,2.3436794,0.83852625,-12.505825,36.117508,34.09863,-4.949125,-0.929632,0.345943,2.385551,-35.759583,-25.261803
560,2860359870,49.34485,-11.875435,-135.84918,-0.42908955,2.5443454,0.63532877,-12.526808,34.71707,36.12133,-4.956276,-0.887226,0.356532,2.176771,-35.180965,-24.659781
561,2860376537,45.030113,-11.103622,-133.23553,-0.719738,2.6057563,0.18690121,-4.2601547,40.451366,44.14628,-4.968272,-0.843797,0.359647,2.105768,-34.506776,-23.92401
562,2860393204,40.284256,-10.632095,-133.9274,-0.84435654,2.541294,-0.097491264,-0.8108816,40.18308,46.55657,-4.982345,-0.801442,0.358022,2.092253,-33.837058,-23.148067
563,2860409871,34.794895,-10.508835,-139.10245,-0.7928753,2.3596525,-0.20447636,-2.8005276,32.97776,42.627754,-4.99556,-0.762114,0.354614,2.045578,-33.287429,-22.437604
564,2860426538,31.52641,-10.044342,-132.32362,-0.70184803,1.9863582,-0.42432797,-0.2237463,29.351624,41.248333,-5.007257,-0.729008,0.347542,2.041849,-32.798235,-21.750132
565,2860443205,29.89199,-9.437973,-117.45644,-0.5175266,1.4191831,-0.669207,4.1061425,26.385443,39.831978,-5.015882,-0.705355,0.336389,2.110285,-32.358478,-21.086266
566,2860459872,26.83151,-8.922539,-110.774254,-0.42900944,1.0910271,-0.7979121,6.19703,23.72855,38.351162,-5.023032,-0.687171,0.32309,2.213569,-31.963002,-20.44708
567,2860476539,22.513147,-8.444336,-111.596405,-0.4629736,1.0246712,-0.8266872,6.81374,22.589209,37.78998,-5.030748,-0.670093,0.309312,2.327131,-31.586515,-19.817247
568,2860493206,18.056007,-8.034004,-114.636246,-0.487051,1.0064056,-0.75963676,5.903244,21.104895,36.32511,-5.038866,-0.65332,0.296651,2.425518,-31.234767,-19.211828
569,2860509873,12.785114,-7.7386017,-123.707726,-0.5534506,1.1486533,-0.56276715,2.6461496,19.54028,34.203453,-5.04809,-0.634176,0.287272,2.46962,-30.909096,-18.64177
570,2860526540,9.261262,-7.251442,-124.951866,-0.58099174,1.1756276,-0.39238214,1.9311333,20.671179,33.601154,-5.057773,-0.614582,0.280732,2.501806,-30.564576,-18.081751
571,2860543207,7.684984,-6.5739136,-117.60185,-0.5551615,1.064112,-0.24708152,3.8143606,24.466967,34.416428,-5.067026,-0.596847,0.276614,2.565379,-30.156793,-17.508144
572,2860559874,6.2783537,-5.8972855,-111.61446,-0.55982685,1.0454388,-0.018663168,5.2121067,29.896255,35.841496,-5.076356,-0.579423,0.276303,2.652247,-29.658522,-16.910786
573,2860576541,5.660594,-5.158119,-103.86196,-0.5749521,1.0579268,0.26249266,7.1737237,37.626865,38.35744,-5.085939,-0.561791,0.280678,2.771809,-29.031408,-16.271495
574,2860593208,4.364029,-4.399994,-98.16954,-0.5035448,1.0286772,0.40186834,7.6709423,41.90009,40.79478,-5.094331,-0.544646,0.287376,2.899658,-28.333073,-15.591582
575,2860609875,2.1008472,-3.644928,-95.907036,-0.34707737,0.97888327,0.3925562,6.230343,42.213108,43.076073,-5.100116,-0.528331,0.293919,3.003497,-27.629521,-14.873647
576,2860626542,0.050886154,-2.8273697,-92.97519,-0.13710213,0.9004334,0.30628872,4.5738816,41.868404,46.16399,-5.102401,-0.513324,0.299024,3.079728,-26.931714,-14.104247
577,2860643209,-2.2120972,-1.9624405,-90.66331,0.15044498,0.7812774,0.09050369,2.0876608,39.33318,49.807255,-5.099894,-0.500303,0.300532,3.114522,-26.276161,-13.274126
578,2860659876,-4.1948204,-1.0788269,-89.11884,0.4424963,0.7192982,-0.110091925,-0.868618,37.75768,54.49123,-5.092519,-0.488315,0.298697,3.100045,-25.646866,-12.365939
579,2860676543,-5.7716293,-0.17073822,-88.00453,0.73633194,0.71639585,-0.29076135,-4.1464195,37.495953,60.38925,-5.080247,-0.476375,0.293851,3.030938,-25.021933,-11.359451
580,2860693210,-7.5471973,0.7630768,-88.40184,1.0888348,0.7159019,-0.5702877,-8.460499,35.69768,67.10869,-5.0621,-0.464443,0.284346,2.88993,-24.426972,-10.240973
581,2860709877,-9.393219,1.7173233,-90.33041,1.4849062,0.73999214,-0.919989,-13.726965,33.085285,74.832664,-5.037352,-0.45211,0.269013,2.661147,-23.875551,-8.993762
582,2860726544,-11.168331,3.1208801,-90.35365,1.9542856,0.78817874,-1.1479554,-17.567915,35.38909,82.93275,-5.004781,-0.438974,0.24988,2.368348,-23.285733,-7.61155
583,2860743211,-12.948778,5.0154953,-88.41715,2.507266,0.85723764,-1.2512039,-19.884565,42.82706,91.34644,-4.962993,-0.424687,0.229027,2.036939,-22.571949,-6.089109
584,2860759878,-14.715776,7.1959,-86.2384,3.1202097,0.96507883,-1.3025247,-21.765312,53.21044,100.55356,-4.91099,-0.408602,0.207318,1.674184,-21.685108,-4.413216
585,2860776545,-16.46528,9.784931,-82.99927,3.8042002,1.1125903,-1.2525135,-22.594423,68.080185,110.39987,-4.847587,-0.390059,0.186443,1.29761,-20.550438,-2.573218
586,2860793212,-18.39932,12.538898,-80.93216,4.5579967,1.2873131,-1.2459004,-23.90872,83.49112,121.27422,-4.77162,-0.368604,0.165678,0.899131,-19.158919,-0.551981
587,2860809879,-20.534609,15.447056,-80.27989,5.381629,1.4933509,-1.2897031,-25.816217,99.31159,133.2605,-4.681926,-0.343715,0.144183,0.468861,-17.503726,1.669027
588,2860826546,-22.783743,18.742352,-79.297226,6.286933,1.7394514,-1.2696099,-27.030954,118.8759,146.05678,-4.577144,-0.314724,0.123023,0.018345,-15.522461,4.103307
589,2860843213,-25.20379,22.379868,-78.53212,7.275302,2.0253987,-1.2162149,-27.885275,141.41553,159.7819,-4.455889,-0.280967,0.102753,-0.44641,-13.165536,6.766339
590,2860859880,-26.84928,25.437813,-77.74397,7.346347,2.2081118,-1.2119076,-27.005651,150.86664,163.94211,-4.33345,-0.244165,0.082555,-0.896504,-10.651092,9.498707
591,2860876547,-27.631681,27.860584,-76.74176,6.4012175,2.2753844,-1.2508488,-24.084196,146.06746,157.44423,-4.226763,-0.206242,0.061708,-1.297907,-8.216634,12.122777
592,2860893214,-28.048826,30.058529,-76.06297,4.910757,2.2958417,-1.314673,-19.981482,134.09355,145.30177,-4.144917,-0.167978,0.039797,-1.630932,-5.981741,14.544473
593,2860909881,-27.838644,31.78133,-75.611664,2.5862703,2.2294078,-1.4226968,-14.240177,110.46554,124.466736,-4.101812,-0.130821,0.016085,-1.868268,-4.140649,16.618919
594,2860926548,-27.542494,33.6295,-75.18572,0.005979538,2.16431,-1.4972131,-7.315096,85.37307,100.92263,-4.101712,-0.094749,-0.008869,-1.990186,-2.717765,18.300963
595,2860943215,-27.202314,35.63474,-74.85174,-2.8076115,2.1054766,-1.5358155,0.78034306,59.243164,74.904144,-4.148506,-0.059658,-0.034466,-1.97718,-1.730379,19.549365
596,2860959882,-26.319658,37.27817,-74.63452,-6.406284,1.9733334,-1.5931783,10.716843,22.982428,40.639168,-4.255277,-0.026769,-0.061019,-1.798566,-1.347339,20.226684
597,2860976549,-25.007055,38.68155,-74.51345,-10.684952,1.7854248,-1.6526301,22.44914,-21.447056,-0.7930176,-4.43336,0.002988,-0.088563,-1.424414,-1.70479,20.213467
598,2860993216,-24.298735,38.71252,-74.74098,-13.064784,1.7756152,-1.6320515,31.721632,-57.710564,-35.28399,-4.651106,0.032582,-0.115764,-0.89572,-2.666633,19.625401
599,2861009883,-24.227316,37.17977,-75.341385,-13.374273,1.9558704,-1.5287197,38.258125,-85.54089,-62.375637,-4.874011,0.06518,-0.141243,-0.258085,-4.092315,18.585807
600,2861026550,-24.375582,34.684425,-76.189064,-12.772223,2.2266345,-1.369237,44.087776,-111.53279,-88.19827,-5.086881,0.102291,-0.164064,0.476711,-5.951195,17.115836
601,2861043217,-25.014708,30.866947,-77.35482,-10.551291,2.6509454,-1.1309677,48.065132,-131.53668,-109.11121,-5.262736,0.146473,-0.182913,1.277797,-8.143473,15.297316
602,2861059884,-25.41678,26.227894,-78.737915,-8.362609,3.0719156,-0.8751286,52.8879,-157.64537,-135.03491,-5.402113,0.197672,-0.197498,2.159262,-10.770896,13.046734
603,2861076551,-25.545912,20.773697,-80.33419,-6.2901363,3.4819508,-0.6024544,58.737442,-190.57602,-166.61404,-5.506949,0.255705,-0.207539,3.138219,-13.947163,10.269833
604,2861093218,-25.99904,13.909126,-82.25842,-2.8863153,4.01451,-0.26175058,63.28016,-220.82137,-195.836,-5.555054,0.322614,-0.211902,4.192888,-17.627519,7.0059
605,2861109885,-26.625265,5.7005615,-84.49503,1.5189743,4.6378565,0.13568854,67.08395,-251.01581,-224.86128,-5.529738,0.399912,-0.209641,5.310954,-21.811116,3.258212
606,2861126552,-22.36069,-0.03501892,-79.44874,4.3323116,4.59653,0.6305673,66.10056,-267.9661,-243.50299,-5.457533,0.476521,-0.199132,6.41263,-26.277218,-0.800171
607,2861143219,-12.763941,-3.0336533,-66.360886,5.501135,3.831788,1.234972,59.59041,-269.1806,-249.72502,-5.365847,0.540384,-0.178549,7.405803,-30.763561,-4.962255
608,2861159886,-0.10694504,-5.0861053,-48.7791,6.0490484,2.677865,1.9240518,49.799347,-262.62875,-249.74742,-5.26503,0.585015,-0.146481,8.235792,-35.140707,-9.124712
609,2861176553,17.056732,-5.1515274,-24.50289,5.308195,0.9221162,2.7130492,35.42639,-244.12712,-240.2887,-5.17656,0.600384,-0.101264,8.826232,-39.209492,-13.129524
610,2861193220,35.665524,-5.6377945,2.0824165,5.180791,-0.9652262,3.5951002,18.160206,-218.81111,-225.14023,-5.090213,0.584297,-0.041346,9.128902,-42.856344,-16.881861
611,2861209887,55.611732,-6.6896896,30.819414,5.766676,-2.9659085,4.5717688,-1.9709129,-186.94597,-204.47316,-4.994102,0.534865,0.03485,9.096053,-45.97211,-20.289747
612,2861226554,79.738976,-6.197235,65.91035,5.5491962,-5.5062137,5.6624165,-27.06246,-142.01526,-173.26703,-4.901615,0.443095,0.129224,8.645012,-48.339031,-23.177531
613,2861243221,107.48555,-4.6538773,106.56808,4.9324846,-8.497377,6.868701,-56.899773,-84.74877,-132.01611,-4.819407,0.301472,0.243702,7.696682,-49.751511,-25.3778
614,2861259888,126.14121,-4.149414,134.57533,4.6468563,-10.197236,7.3435364,-70.97652,-43.32573,-101.35342,-4.741959,0.131518,0.366094,6.51374,-50.473606,-27.067024
615,2861276555,134.87067,-4.5947037,148.7805,4.576791,-10.494678,7.0061855,-67.64648,-19.24569,-82.28305,-4.665679,-0.043393,0.482864,5.386299,-50.794367,-28.438408
616,2861293222,139.35344,-5.3064423,157.36154,4.6474123,-10.15923,6.2574778,-56.538536,0.6956283,-65.05177,-4.588222,-0.212714,0.587155,4.44399,-50.782773,-29.522604
617,2861309889,136.1037,-6.7728195,155.35297,5.0087376,-8.713559,4.8548946,-31.93818,9.057631,-55.04354,-4.504743,-0.35794,0.66807,3.911687,-50.631812,-30.439996
618,2861326556,133.29436,-7.2089157,154.53111,4.8407927,-7.285885,3.2933624,-6.3719234,24.28842,-38.60695,-4.424063,-0.479371,0.722959,3.805488,-50.227005,-31.083445
619,2861343223,131.33456,-6.513489,155.51897,4.1184053,-5.9310184,1.5943203,19.502598,47.6812,-14.71559,-4.355423,-0.578221,0.749531,4.130531,-49.432318,-31.328705
620,2861359890,123.07128,-5.964859,148.084,3.3637772,-3.6646852,-0.7088778,57.0113,63.703705,5.2931848,-4.29936,-0.639299,0.737716,5.080719,-48.37059,-31.240485
621,2861376557,110.1357,-5.1582336,134.6059,2.3930073,-0.711606,-3.524248,103.69113,76.3315,24.42257,-4.259477,-0.651159,0.678979,6.808905,-47.098398,-30.833442
622,2861393224,101.46793,-4.746086,119.31646,1.6805334,1.1869383,-5.186371,129.32115,86.91015,40.833267,-4.231468,-0.631377,0.592539,8.964258,-45.649896,-30.152888
623,2861409891,96.929245,-4.918907,101.16454,1.3157501,1.9973488,-5.601379,132.53522,93.54457,52.913185,-4.209539,-0.598088,0.499183,11.173178,-44.09082,-29.271002
624,2861426558,93.27292,-5.0708084,79.5651,0.9358454,2.4052405,-5.5043306,126.11775,98.19943,63.546085,-4.193942,-0.558001,0.407444,13.275141,-42.454163,-28.211901
625,2861443225,92.67044,-5.4126205,55.155853,0.6791878,1.9628453,-4.445578,102.00811,100.55674,71.73116,-4.182622,-0.525287,0.333351,14.975276,-40.778217,-27.016382
626,2861459892,87.936,-5.8675537,22.599977,0.3968153,1.9521837,-3.5234883,80.82771,95.82252,75.6861,-4.176008,-0.492751,0.274626,16.322405,-39.181175,-25.754947
627,2861476559,78.65057,-6.386627,-18.500725,0.054570198,2.4407697,-2.7967074,63.62806,83.786316,75.39205,-4.175098,-0.452072,0.228014,17.382873,-37.784736,-24.498413
628,2861493226,70.16689,-7.1966553,-65.203255,-0.15439606,2.4088519,-1.3248593,33.120193,66.24806,70.64468,-4.177671,-0.411924,0.205933,17.934876,-36.680602,-23.321002
629,2861509893,60.879494,-8.281143,-118.90067,-0.26513577,2.129283,0.6677358,-6.457382,41.9125,60.86579,-4.18209,-0.376436,0.217062,17.827253,-35.98206,-22.306572
630,2861526560,52.750565,-8.834915,-154.56348,-0.43129444,2.0234284,1.8170645,-30.329767,26.844168,55.878292,-4.189278,-0.342712,0.247346,17.321757,-35.534657,-21.375267
631,2861543227,46.549843,-8.827133,-169.60199,-0.6360245,2.007102,2.1160886,-38.334755,22.4535,56.305267,-4.199878,-0.30926,0.282614,16.682844,-35.160432,-20.436846
632,2861559894,40.203026,-8.638031,-176.96451,-0.8267431,2.0638864,2.067667,-39.450577,19.968586,56.864075,-4.213657,-0.274862,0.317075,16.025334,-34.827622,-19.489111
633,2861576561,34.412617,-8.06237,-169.54428,-1.0331774,2.274921,1.3262987,-27.358706,23.74124,60.09736,-4.230877,-0.236947,0.33918,15.569356,-34.431935,-18.487488
634,2861593228,29.344704,-7.620575,-161.31052,-1.121973,2.12954,0.93666124,-21.053684,24.599258,60.000435,-4.249577,-0.201455,0.354791,15.218461,-34.021947,-17.487481
635,2861609895,24.870117,-7.3545,-153.1638,-1.0808191,1.6129745,0.9500811,-21.400024,21.682808,55.951027,-4.267591,-0.174572,0.370626,14.861794,-33.660567,-16.554964
636,2861626562,21.56478,-6.8344803,-131.8062,-0.9954071,1.0383849,0.55364513,-13.545897,23.27263,53.029465,-4.284181,-0.157266,0.379853,14.636029,-33.27269,-15.67114
637,2861643229,19.493244,-6.176811,-99.97733,-0.8314657,0.28995264,-0.029663682,-1.4974308,27.355896,49.834995,-4.298039,-0.152433,0.379359,14.611072,-32.816758,-14.840557
638,2861659896,16.699192,-5.6536407,-82.22295,-0.77738,-0.17850363,-0.2973249,4.897515,28.319742,46.253048,-4.310995,-0.155408,0.374404,14.692697,-32.344762,-14.069673
639,2861676563,13.173809,-5.240608,-78.9403,-0.8564863,-0.29909074,-0.29629087,6.4701242,26.723602,42.87053,-4.32527,-0.160393,0.369466,14.800532,-31.899369,-13.355164
640,2861693230,9.961812,-4.8906174,-80.0814,-0.95139027,-0.37476468,-0.11175251,5.179453,23.898,38.74097,-4.341127,-0.166639,0.367603,14.886856,-31.501069,-12.709481
641,2861709897,6.6194677,-4.666649,-91.85543,-1.1146288,-0.27591288,0.37207532,-1.2477245,18.630638,34.005066,-4.359704,-0.171238,0.373804,14.866061,-31.190558,-12.14273
642,2861726564,4.4667835,-4.3087463,-96.315865,-1.2512455,-0.19122827,0.6538584,-3.1902246,16.220655,29.8671,-4.380558,-0.174425,0.384702,14.812891,-30.920214,-11.644945
643,2861743231,3.6794434,-3.811737,-92.354164,-1.3495474,-0.14813852,0.7219534,-0.36600494,16.921347,26.292555,-4.40305,-0.176894,0.396735,14.806791,-30.638192,-11.206736
644,2861759898,3.2795906,-3.357811,-94.101425,-1.5016928,0.05948007,0.9219613,0.56655884,17.165031,22.855783,-4.428078,-0.175903,0.412101,14.816234,-30.352108,-10.825806
645,2861776565,3.6169338,-2.892662,-97.62733,-1.6862593,0.39019072,1.1473987,1.6794062,18.160828,19.837843,-4.456182,-0.1694,0.431224,14.844224,-30.049428,-10.495175
646,2861793232,3.0400848,-2.3772736,-98.14278,-1.5764809,0.5866783,1.1843281,2.0911484,19.158852,19.835468,-4.482457,-0.159622,0.450963,14.879076,-29.730114,-10.164584
647,2861809899,1.3120861,-1.8275833,-96.82932,-1.1518421,0.6554287,1.0464845,1.0364923,19.781588,23.155159,-4.501654,-0.148698,0.468404,14.896351,-29.400421,-9.778665
648,2861826566,-0.5009613,-1.2245331,-93.221245,-0.55139446,0.6932829,0.7588036,0.40754414,21.304531,28.837444,-4.510844,-0.137143,0.481051,14.903143,-29.045345,-9.298041
649,2861843233,-2.8719864,-0.56181335,-86.419205,0.31496334,0.6397644,0.26672864,-0.18953896,23.488768,37.70029,-4.505595,-0.12648,0.485496,14.899984,-28.653866,-8.669703
650,2861859900,-5.0001545,0.08834839,-82.714516,1.2379456,0.69442594,-0.21560502,-1.9707966,25.95582,48.187103,-4.484963,-0.114906,0.481903,14.867137,-28.221269,-7.866585
651,2861876567,-6.7843647,0.726738,-82.16541,2.2093067,0.8708012,-0.6896409,-4.790043,28.871187,60.348907,-4.448141,-0.100393,0.470409,14.787303,-27.740083,-6.86077
652,2861893234,-9.032742,1.3940125,-80.96141,3.4139128,1.021476,-1.3116016,-8.405281,32.247902,75.768425,-4.391242,-0.083368,0.448549,14.647215,-27.202618,-5.597963
653,2861909901,-11.567728,2.0748367,-80.46832,4.8114824,1.1922352,-2.0407841,-13.06773,36.06446,94.238304,-4.311051,-0.063497,0.414536,14.42942,-26.601544,-4.027325
654,2861926568,-13.699743,3.351097,-79.303764,5.6078367,1.3187587,-2.436047,-15.945124,41.743454,107.81177,-4.217587,-0.041518,0.373935,14.163668,-25.90582,-2.230462
655,2861943235,-15.478769,5.2853928,-77.03735,5.749775,1.3797767,-2.4726925,-16.814545,49.430313,115.99926,-4.121757,-0.018522,0.332723,13.883426,-25.081981,-0.297141
656,2861959902,-17.119253,7.594082,-75.34833,5.58698,1.4393849,-2.3327074,-17.22494,58.46835,122.510445,-4.028641,0.005468,0.293845,13.596344,-24.107509,1.7447
657,2861976569,-18.47003,10.446331,-73.838844,4.900299,1.4760991,-1.895022,-16.42504,69.27129,125.20748,-3.946969,0.03007,0.262261,13.322593,-22.952987,3.831491
658,2861993236,-20.127542,13.520042,-72.337074,4.200033,1.493282,-1.4614452,-15.958143,81.12701,129.26149,-3.876968,0.054958,0.237904,13.056624,-21.60087,5.985849
659,2862009903,-22.129477,16.801796,-71.05003,3.5094404,1.4960417,-1.0439465,-15.979219,94.02047,135.00433,-3.818477,0.079892,0.220505,12.790304,-20.033862,8.235921
660,2862026570,-24.06413,20.606865,-69.759766,2.3792915,1.4633366,-0.38435984,-15.086208,108.69125,138.01099,-3.778822,0.104281,0.214099,12.538867,-18.222341,10.536104
661,2862043237,-26.071096,24.8774,-68.49538,0.9097872,1.3958699,0.4579029,-13.6218815,125.02601,139.36864,-3.763659,0.127545,0.221731,12.311836,-16.138574,12.858915
662,2862059904,-27.227705,27.868923,-67.69856,-0.37599182,1.3423593,0.82644916,-9.872862,126.49958,135.0719,-3.769926,0.149918,0.235505,12.147288,-14.030248,15.110113
663,2862076571,-27.404745,29.456776,-67.37971,-1.4920979,1.3025484,0.69175744,-3.4718065,111.55329,124.10161,-3.794794,0.171627,0.247034,12.089425,-12.171026,17.178473
664,2862093238,-27.141886,30.432133,-67.37364,-2.6275024,1.2524685,0.32689762,4.557543,87.882835,109.0101,-3.838586,0.192501,0.252482,12.165384,-10.706312,18.995308
665,2862109905,-26.16839,30.312931,-67.794624,-3.658216,1.2032155,-0.44386554,14.78456,50.746983,88.404366,-3.899556,0.212555,0.245084,12.411793,-9.860529,20.468714
666,2862126572,-24.92441,30.198353,-68.44202,-5.016236,1.1213328,-1.1687174,26.575535,9.858724,63.383667,-3.98316,0.231244,0.225605,12.854719,-9.696217,21.525108
667,2862143239,-23.44641,30.142986,-69.31446,-6.7290115,1.0029644,-1.8260772,39.91946,-34.397495,33.93631,-4.09531,0.24796,0.19517,13.520043,-10.269509,22.090713
668,2862159906,-21.271582,29.171242,-70.61472,-8.482418,0.8729853,-2.7946634,55.686607,-91.17798,-1.8717971,-4.236684,0.26251,0.148592,14.448153,-11.789142,22.059516
669,2862176573,-18.484201,27.500237,-72.31184,-10.375351,0.7228748,-3.982393,73.80856,-158.69724,-44.001884,-4.409607,0.274558,0.082219,15.678296,-14.434096,21.326151
670,2862193240,-17.836115,25.535782,-71.237114,-11.19702,0.6022564,-4.2977324,91.87642,-205.04337,-74.23094,-4.596224,0.284596,0.01059,17.20957,-17.851485,20.088969
671,2862209907,-19.530397,23.172115,-67.10359,-10.792277,0.51818436,-3.6811361,109.847015,-228.46614,-91.204666,-4.776095,0.293232,-0.050762,19.040354,-21.659254,18.568891
672,2862226574,-22.318735,20.34032,-61.385197,-9.800826,0.44052148,-2.5869436,128.88843,-243.05928,-103.67002,-4.939442,0.300574,-0.093878,21.188494,-25.710242,16.841057
673,2862243241,-26.964872,17.0969,-53.179024,-7.8646646,0.38372803,-0.71729124,148.41681,-240.23427,-106.637314,-5.07052,0.306969,-0.105833,23.662107,-29.714146,15.063768
674,2862259908,-31.756468,12.923794,-44.370678,-5.605003,0.3236537,1.1964393,170.15105,-241.13734,-111.36792,-5.163937,0.312363,-0.085892,26.497958,-33.733102,13.207636
675,2862276575,-36.611748,7.7756805,-35.039875,-3.0540528,0.2579242,3.1240366,194.26102,-246.92285,-118.56847,-5.214838,0.316662,-0.033825,29.735642,-37.848483,11.231495
676,2862293242,-43.06453,1.9296646,-23.429115,0.4258871,0.21140027,5.694291,219.43364,-239.56677,-118.26146,-5.20774,0.320185,0.06108,33.392869,-41.841263,9.260471
677,2862309909,-50.780457,-4.7543945,-9.890781,4.72416,0.1791724,8.763071,246.08633,-223.41362,-112.754875,-5.129004,0.323171,0.207131,37.494308,-45.564823,7.381223
678,2862326576,-56.028053,-9.634277,-0.15474653,7.302083,0.003911257,10.561083,258.55176,-208.45976,-107.6322,-5.007303,0.323236,0.383149,41.803504,-49.039152,5.587353
679,2862343243,-58.659348,-12.4422,5.4779625,8.012774,-0.32650673,10.999146,255.0945,-193.2051,-102.015915,-4.873757,0.317794,0.566468,46.055079,-52.259237,3.887088
680,2862359910,-60.23735,-14.542564,9.515585,8.0001745,-0.7410979,10.822535,243.36078,-175.61584,-94.65888,-4.740421,0.305442,0.746844,50.111092,-55.186168,2.30944
681,2862376577,-59.77559,-15.187767,10.419822,6.5804605,-1.2838631,9.553767,218.76869,-157.63326,-86.60588,-4.630747,0.284044,0.906073,53.757237,-57.813389,0.866009
682,2862393244,-59.864418,-15.865868,12.014771,5.410466,-1.8578377,8.390472,190.02034,-128.51384,-71.87719,-4.540573,0.25308,1.045914,56.924243,-59.955286,-0.331944
683,2862409911,-60.639847,-16.674362,14.507017,4.585108,-2.4587646,7.3887205,157.465,-87.61901,-50.062664,-4.464155,0.212101,1.169059,59.54866,-61.415603,-1.166322
684,2862426578,-59.958244,-16.206932,14.651207,2.6835146,-3.1744347,5.5323133,112.56052,-41.617714,-24.809427,-4.41943,0.159194,1.261264,61.424669,-62.109232,-1.579812
685,2862443245,-58.358376,-14.757774,13.2339115,0.047240257,-3.98626,3.062885,56.859093,12.094584,5.3716927,-4.418643,0.092756,1.312312,62.372321,-61.907656,-1.490284
686,2862459912,-56.35385,-14.169823,11.938697,-1.4778156,-4.399949,1.4699786,20.954216,48.269897,25.177536,-4.443273,0.019424,1.336812,62.721558,-61.103158,-1.070658
687,2862476579,-53.709267,-14.41024,10.485881,-1.9013796,-4.378471,0.762022,6.498172,63.95204,32.87724,-4.474963,-0.053551,1.349512,62.829861,-60.037291,-0.522704
688,2862493246,-50.52327,-14.773842,8.568308,-1.8785534,-4.1431956,0.3860979,-0.17290401,73.094505,36.88595,-4.506272,-0.122604,1.355947,62.826979,-58.819049,0.092062
689,2862509913,-46.84069,-15.700241,6.503666,-0.9483938,-3.556169,0.71938324,9.136983,68.47934,32.855045,-4.522079,-0.181873,1.367937,62.979262,-57.677727,0.639646
690,2862526580,-41.78015,-15.725876,2.425371,-0.5609722,-2.9267945,0.61898947,14.168062,63.316803,28.935484,-4.531429,-0.230653,1.378253,63.215396,-56.622447,1.121904
691,2862543247,-35.293343,-14.751335,-3.7766137,-0.78701305,-2.2686837,0.027558208,13.749487,58.631264,25.768913,-4.544546,-0.268464,1.378712,63.444554,-55.645259,1.551386
692,2862559914,-27.813269,-13.856743,-10.963022,-0.51700497,-1.3040946,-0.16674471,25.085567,41.42547,15.445602,-4.553163,-0.290199,1.375933,63.862647,-54.954835,1.808813
693,2862576581,-19.111582,-12.70594,-19.588743,-0.06296635,-0.09271574,-0.20871222,43.968773,14.322382,-0.39443305,-4.554212,-0.291744,1.372454,64.59546,-54.716129,1.802239
694,2862593248,-13.041189,-11.8424225,-25.460247,0.12910557,0.672106,-0.35680866,52.747147,0.1627649,-8.109156,-4.55206,-0.280542,1.366507,65.474579,-54.713416,1.667086
695,2862609915,-9.987791,-11.429062,-28.090557,0.14357376,0.9623072,-0.5305507,51.980057,-0.8080559,-7.5500402,-4.549667,-0.264504,1.357664,66.340913,-54.726884,1.541252
696,2862626582,-7.941944,-10.9616165,-29.818981,-0.024276733,1.0703572,-0.7742461,47.317635,2.0912294,-4.2141986,-4.550072,-0.246665,1.34476,67.12954,-54.69203,1.471015
697,2862643249,-7.9879284,-10.618187,-29.452229,-0.46638107,0.81296194,-1.1303735,34.51139,14.574219,5.322497,-4.557845,-0.233116,1.32592,67.70473,-54.449126,1.559723
698,2862659916,-7.968195,-10.332359,-29.184067,-0.63990784,0.6704604,-1.2188249,28.382057,19.824087,11.006711,-4.56851,-0.221942,1.305606,68.177764,-54.118725,1.743168
699,2862676583,-7.732687,-10.064796,-29.194046,-0.53885746,0.6685715,-1.0334389,29.644016,16.763702,12.220129,-4.577491,-0.210799,1.288382,68.671831,-53.83933,1.946837
700,2862693250,-9.316017,-10.009254,-27.333725,-0.5066614,0.40962303,-0.79149187,27.424015,18.505045,16.821619,-4.585935,-0.203972,1.27519,69.128898,-53.530913,2.227197
701,2862709917,-12.286203,-10.152779,-24.045343,-0.42708588,-0.0062327385,-0.40707886,24.97556,21.325169,22.602642,-4.593053,-0.204076,1.268405,69.545157,-53.175494,2.603908
702,2862726584,-13.830893,-9.931778,-22.26117,-0.39422703,-0.25585282,-0.1684308,23.39735,22.51761,26.634676,-4.599623,-0.20834,1.265598,69.935113,-52.8002,3.047819
703,2862743251,-13.97851,-9.333443,-21.940361,-0.44761562,-0.359313,-0.11693525,21.638405,23.311914,29.534508,-4.607083,-0.214329,1.263649,70.295753,-52.411668,3.540061
704,2862759918,-13.8086605,-8.626312,-21.948496,-0.45784473,-0.40449226,-0.049283385,21.501514,22.368109,31.14075,-4.614714,-0.221071,1.262828,70.654112,-52.038866,4.059074
705,2862776585,-12.639284,-7.6718903,-22.989054,-0.45520878,-0.3165611,-0.045117855,23.03094,19.318459,30.864847,-4.622301,-0.226347,1.262076,71.037961,-51.716892,4.573488
706,2862793252,-12.662474,-6.8458405,-22.775501,-0.47551918,-0.38898408,0.011329651,22.88859,18.93811,32.344986,-4.630226,-0.23283,1.262265,71.419437,-51.401257,5.112571
707,2862809919,-14.019243,-6.1826553,-21.153347,-0.50522804,-0.6348846,0.14172435,21.213875,21.189228,35.60304,-4.638646,-0.243411,1.264627,71.773002,-51.048103,5.705955
708,2862826586,-15.064276,-5.3841705,-19.82647,-0.55135536,-0.8478708,0.22196388,19.674221,23.462255,38.36005,-4.647835,-0.257542,1.268326,72.100906,-50.657065,6.345289
709,2862843253,-16.292646,-4.5384445,-18.27259,-0.6183481,-1.0931273,0.28046703,17.585678,26.790646,41.388206,-4.658141,-0.275761,1.273,72.394001,-50.210554,7.035092
