PacketCounter,SampleTimeFine,Euler_X,Euler_Y,Euler_Z,Acc_X,Acc_Y,Acc_Z,Gyr_X,Gyr_Y,Gyr_Z,
0,2283354212,-100.7790756,-0.216473103,101.25457,0,0,0,0,0,0, 
1,2283370879,-100.6366882,-0.174752384,101.2166367,0.115151674,-9.687962532,-1.596551538,1.444511414,0.298932195,3.855908632, 
2,2283387546,-100.3978271,-0.186915293,101.2316284,0.138241366,-9.860592842,-1.500597358,0.625263751,0.46368596,3.77615118, 
3,2283404213,-100.102829,-0.211157486,101.184021,0.114267707,-10.08483791,-1.32220006,1.379621744,0.598088562,4.035031319, 
4,2283420880,-99.73230743,-0.210921854,101.1759491,0.059014775,-10.21778202,-1.17753613,3.302315712,0.325121194,4.35148859, 
5,2283437547,-99.32926941,-0.171374813,101.0809174,0.108628169,-10.08642197,-1.057677984,4.457846165,0.122652814,4.916978836, 
6,2283454214,-98.93802643,-0.123001553,100.9591141,0.190453082,-10.02872181,-0.934867263,4.611458778,-0.144391626,5.222705841, 
7,2283470881,-98.58235168,-0.074512266,100.8527908,0.382251561,-9.758526802,-0.886254907,3.587769985,-0.264476776,5.871193409, 
8,2283487548,-98.29129028,-0.043866899,100.7335129,0.542722881,-9.803242683,-0.854807019,1.557438135,0.136253178,6.580601692, 
9,2283504215,-98.07065582,-0.036638845,100.6149673,0.680368841,-9.769386292,-0.868759632,-0.980044544,0.727458417,6.971784592, 
10,2283520882,-97.89387512,-0.051381808,100.468689,0.77112633,-9.73626709,-0.944231808,-1.90340817,1.476015329,7.176661015, 
11,2283537549,-97.7495575,-0.082397722,100.3237305,0.837116539,-9.71423912,-1.070238113,-2.042267323,2.506465435,7.309628487, 
12,2283554216,-97.61952209,-0.126179323,100.1647339,0.868555784,-9.68776226,-1.13706398,-1.007578254,3.719471455,7.285106182, 
13,2283570883,-97.50192261,-0.182354406,100.0048218,0.862313807,-9.597340584,-1.166553378,-0.108585075,4.659585476,6.903860569, 
14,2283587550,-97.40302277,-0.243413344,99.82566833,0.824647605,-9.434630394,-1.174741268,0.116973236,5.418239594,6.643743992, 
15,2283604217,-97.3353653,-0.303447932,99.64967346,0.743746579,-9.342123032,-1.08457303,-0.66473937,5.760029316,6.441288471, 
16,2283620884,-97.30686188,-0.355511934,99.55778503,0.67331326,-9.239964485,-0.97130239,-2.320709705,5.794311047,6.410552502, 
17,2283637551,-97.31892395,-0.396340251,99.50170898,0.601801455,-9.201746941,-0.956181765,-4.372857094,5.506872654,6.445616245, 
18,2283654218,-97.37451172,-0.426188946,99.38816071,0.530394077,-9.302014351,-0.958416522,-6.687555313,5.258269787,6.425786495, 
19,2283670885,-97.45696259,-0.447163403,99.15803528,0.493017226,-9.370601654,-0.909070432,-8.084070206,5.232126236,6.302034378, 
20,2283687552,-97.55741119,-0.463827848,99.07357025,0.507208109,-9.459226608,-0.858124018,-9.059387207,5.107199192,5.944863319, 
21,2283704219,-97.65885925,-0.477512628,98.98758698,0.5670771,-9.476881027,-0.946241081,-9.101456642,5.010998249,5.625921249, 
22,2283720886,-97.76296997,-0.493015975,98.86965179,0.588362515,-9.481111526,-0.982879579,-9.155243874,5.176495075,5.185267448, 
23,2283737553,-97.88008881,-0.513287067,98.79046631,0.600491047,-9.512346268,-1.000625253,-9.820541382,5.444110394,4.647836685, 
24,2283754220,-98.016716,-0.547386467,98.66969299,0.589660108,-9.497896194,-1.040093064,-10.88921928,5.639874458,3.593623877, 
25,2283770887,-98.16007233,-0.591655195,98.57103729,0.634982944,-9.536679268,-1.07451117,-11.18476391,5.713830471,2.75937891, 
26,2283787554,-98.30255127,-0.642565191,98.46057892,0.66338855,-9.570013046,-1.194846511,-11.0296669,5.732009411,2.186249971, 
27,2283804221,-98.45738983,-0.699239194,98.36685181,0.641323745,-9.564214706,-1.243975878,-11.61686993,5.644888401,1.680270791, 
28,2283820888,-98.63259125,-0.757105827,98.2631073,0.607597947,-9.606239319,-1.313631296,-12.69374561,5.903129101,1.496986389, 
29,2283837555,-98.82717896,-0.813548982,98.14703369,0.593055904,-9.641670227,-1.453547478,-13.71847916,6.674271584,1.543428898, 
30,2283854222,-99.03569031,-0.875705361,98.00797272,0.516977251,-9.859045982,-1.594872713,-14.39573193,8.277090073,1.294780612, 
31,2283870889,-99.2793808,-0.956813872,97.83509064,0.445446759,-10.06816006,-1.720584631,-16.35054016,10.46825027,0.323354334, 
32,2283887556,-99.53582764,-1.0564152,97.62304688,0.422439426,-10.38391399,-1.790882587,-16.9806881,12.96096611,-0.568762898, 
33,2283904223,-99.75551605,-1.144735694,97.39077759,0.454740107,-10.75741482,-1.78139925,-14.66550064,14.0844183,0.140012026, 
34,2283920890,-99.90354919,-1.190140247,97.16862488,0.3908104,-11.11243343,-1.903309703,-10.28787994,13.08398819,2.434156179, 
35,2283937557,-100.0122375,-1.181096673,96.96237946,0.313840687,-11.19476891,-2.305534124,-7.82601738,11.60281754,5.316188335, 
36,2283954224,-100.1695633,-1.124090791,96.77106476,0.087031476,-11.09483433,-2.609286785,-10.51108932,10.25473213,7.815723419, 
37,2283970891,-100.412323,-1.038626313,96.59200287,-0.228301436,-11.2174139,-2.968946218,-15.31806183,9.249181747,9.141812325, 
38,2283987558,-100.6952133,-0.954330802,96.40751648,-0.468259484,-11.61166763,-3.529548407,-17.36371994,9.608377457,8.848230362, 
39,2284004225,-100.9502869,-0.896198332,96.19857788,-0.712207854,-11.80501747,-3.793910742,-15.25999355,11.37900352,7.26559782, 
40,2284020892,-101.1651688,-0.894856095,95.95775604,-0.970311582,-11.64647579,-3.635917187,-12.43268871,13.96022511,3.949463844, 
41,2284037559,-101.3194046,-0.952950895,95.68885803,-0.949955642,-10.95163059,-3.113259077,-8.493533134,16.38255501,0.41710332, 
42,2284054226,-101.3816147,-1.068467498,95.39844513,-0.691412568,-10.06807137,-2.649634123,-2.842270374,18.39873123,-3.026746035, 
43,2284070893,-101.3578796,-1.233513117,95.08513641,-0.300078005,-9.476802826,-2.419654369,2.320507526,20.38501549,-5.906027794, 
44,2284087560,-101.3187027,-1.430077672,94.74598694,0.058035616,-9.025690079,-2.375669479,3.189857006,22.30168152,-7.58536911, 
45,2284104227,-101.2674332,-1.638553381,94.37863922,0.333412558,-8.994852066,-2.671247959,3.842842579,24.10102463,-7.994356632, 
46,2284120894,-101.1462479,-1.838278174,93.98742676,0.436792791,-9.129554749,-2.964667082,8.026432037,25.39025879,-7.201041222, 
47,2284137561,-100.978447,-2.021569729,93.58152771,0.447269917,-9.375366211,-3.306403875,10.87679291,26.045681,-6.076990128, 
48,2284154228,-100.7392044,-2.179089069,93.17098999,0.398487151,-9.697809219,-3.715244293,15.29054356,26.00679016,-4.55812788, 
49,2284170895,-100.4613266,-2.320901155,92.76714325,0.167914212,-9.75908947,-4.134771347,17.82995796,25.42293167,-3.803735733, 
50,2284187562,-100.1507339,-2.458331585,92.36859131,-0.02512064,-10.0031929,-4.464225769,20.0773983,25.06711578,-3.762449026, 
51,2284204229,-99.83407593,-2.613549471,91.9832077,-0.291113198,-9.746816635,-4.398196697,20.78234863,24.48996735,-5.156450748, 
52,2284220896,-99.59069061,-2.797089815,91.6236496,-0.394260854,-9.306844711,-4.024169922,16.73000908,23.2595253,-7.326412678, 
53,2284237563,-99.41816711,-3.009289265,91.30123901,-0.28137967,-8.794668198,-3.543152332,12.78154945,21.36577034,-9.598081589, 
54,2284254230,-99.28970337,-3.233987808,91.01835632,0.038753398,-8.445830345,-3.148583412,10.37215424,19.15379333,-10.8742342, 
55,2284270897,-99.19307709,-3.448225737,90.76430511,0.374471873,-8.367444038,-2.821733236,8.609596252,17.35201836,-10.60484791, 
56,2284287564,-99.11003113,-3.630882978,90.53459167,0.606017947,-8.368804932,-2.536897421,7.88646841,15.60482597,-8.978434563, 
57,2284304231,-99.07790375,-3.76590085,90.32304382,0.736699998,-8.04432869,-2.445133686,4.870489597,14.07017136,-6.29914856, 
58,2284320898,-99.14189148,-3.855788708,90.12345886,0.907330811,-8.430900574,-2.496550083,-0.872093797,12.93075848,-3.675290585, 
59,2284337565,-99.2133255,-3.911009073,89.9323349,1.053846121,-8.680549622,-2.528870821,-1.302957058,12.09534073,-1.614100337, 
60,2284354232,-99.28244019,-3.935599327,89.75158691,1.005560875,-9.014436722,-2.418879271,-1.130007029,11.17588139,0.200054467, 
61,2284370899,-99.35556793,-3.940741301,89.5891571,0.985484719,-9.204964638,-2.416714668,-1.323370337,9.890982628,1.254043102, 
62,2284387566,-99.42357635,-3.936524153,89.43893433,0.981513321,-9.509746552,-2.551636219,-0.998312831,9.062569618,1.755853295, 
63,2284404233,-99.4600296,-3.927464247,89.28988647,0.919060707,-9.488433838,-2.539180994,0.881704569,8.936849594,2.087986231, 
64,2284420900,-99.46271515,-3.91130352,89.14599609,0.892438829,-9.369387627,-2.405554771,2.914393187,8.551430702,2.497264385, 
65,2284437567,-99.47173309,-3.896283627,89.01343536,0.994722366,-9.232133865,-2.36518836,2.551038265,7.883206367,2.350298882, 
66,2284454234,-99.45791626,-3.880512238,88.89045715,1.100344062,-9.232508659,-2.355420828,3.930974483,7.301785469,2.344292641, 
67,2284470901,-99.44147491,-3.862144947,88.78099823,1.179705381,-9.073919296,-2.309661627,4.117357731,6.464850903,2.415572643, 
68,2284487568,-99.40070343,-3.834346533,88.68596649,1.265992045,-9.008416176,-2.296950102,5.60896349,5.50799799,2.889048576, 
69,2284504235,-99.32598114,-3.78790307,88.60778809,1.385497332,-9.331315994,-2.188486576,7.692405224,4.316201687,3.890646935, 
70,2284520902,-99.18733978,-3.723958015,88.55749512,1.391019702,-9.470540047,-2.070527315,11.60353184,2.49045229,4.725161552, 
71,2284537569,-98.9881897,-3.645533323,88.53913116,1.322609782,-9.68947506,-2.153446674,15.30944061,0.459287316,5.341660976, 
72,2284554236,-98.75979614,-3.533368826,88.55149841,1.364667535,-9.664532661,-2.130475283,17.14708328,-1.665717483,7.112399101, 
73,2284570903,-98.50473022,-3.396786213,88.58849335,1.260729671,-9.997361183,-2.271887779,18.8020916,-3.3329916,8.404947281, 
74,2284587570,-98.21097565,-3.233146191,88.64709473,0.974791288,-10.1945858,-2.196274996,21.17926979,-4.827471256,9.881090164, 
75,2284604237,-97.91504669,-3.052800179,88.72427368,0.802086413,-9.998747826,-2.202368021,21.34403038,-6.028877735,10.75479603, 
76,2284620904,-97.62397003,-2.862662554,88.81755066,0.684991241,-10.357234,-2.272772551,21.08184624,-7.018964767,11.23303795, 
77,2284637571,-97.25743866,-2.658944607,88.94007111,0.559334338,-10.7253561,-2.043154955,25.67738533,-8.814476013,11.83955765, 
78,2284654238,-96.80760193,-2.432269335,89.12610626,0.443463564,-11.2783947,-1.838412404,30.7997303,-12.68485546,12.77555752, 
79,2284670905,-96.18022156,-2.148071766,89.40787506,0.347209364,-12.41446114,-1.947436333,41.59814835,-18.66799927,15.63647652, 
80,2284687572,-95.24110413,-1.785827041,89.8092804,-0.097099893,-13.19266033,-1.692125916,60.43156815,-26.07538223,19.78323174, 
81,2284704239,-94.14052582,-1.372573972,90.35166931,-0.703154624,-12.78802395,-1.426758528,70.15272522,-34.4145813,22.50922012, 
82,2284720906,-92.97662354,-0.940368056,91.03188324,-0.797356427,-12.65398598,-1.228344321,73.84607697,-42.30312729,23.66265869, 
83,2284737573,-91.72432709,-0.526428819,91.8024292,-1.398816943,-12.29172039,-0.877879798,78.89124298,-47.18292999,23.08909225, 
84,2284754240,-90.27377319,-0.207757711,92.61819458,-1.746904731,-12.49397182,-0.992185235,90.47394562,-49.25613403,18.2476387, 
85,2284770907,-88.31692505,0.01837321,93.3895874,-1.337765455,-11.03617096,-0.646748602,120.6162415,-46.11284637,13.91521931, 
86,2284787574,-85.93593597,0.156411529,94.07868958,-1.129917145,-9.970015526,-0.463816881,145.9276886,-40.90431976,9.973294258, 
87,2284804241,-82.79320526,0.238398209,94.64938354,-0.751383185,-9.929628372,-0.644828916,191.5993347,-33.65222549,7.769088268, 
88,2284820908,-78.78829193,0.361310869,95.12824249,-0.81492871,-9.089208603,-0.460549742,243.3753815,-27.29041862,11.31888199, 
89,2284837575,-74.09624481,0.605676651,95.57165527,-1.348591805,-8.591324806,0.246802926,284.6313171,-22.60712814,19.87227821, 
90,2284854242,-69.06438446,0.980630875,96.04864502,-1.948019981,-8.277915001,1.32869482,304.9360962,-20.32599449,29.68051147, 
91,2284870909,-64.13008881,1.469623446,96.59126282,-2.32068038,-7.666226864,2.568221092,298.8304443,-18.62943649,39.02684784, 
92,2284887576,-59.77738571,2.010706425,97.18082428,-2.470010042,-7.272840977,3.933436155,263.5440674,-16.53599358,44.33348846, 
93,2284904243,-56.38272858,2.501002073,97.75666809,-2.315881491,-6.721068382,4.805691719,205.7066803,-14.50683403,42.16159058, 
94,2284920910,-53.98755646,2.911382914,98.27185059,-1.797098398,-6.292479515,5.043413639,145.528717,-12.19428921,36.69018936, 
95,2284937577,-52.3429985,3.240411758,98.70378113,-1.405045152,-6.406192303,5.028316498,100.4564056,-9.875919342,30.10946846, 
96,2284954244,-50.91490936,3.534444809,99.08560944,-0.990858316,-6.941871643,4.798875809,87.43399048,-8.040967941,26.80036163, 
97,2284970911,-49.07702637,3.891626596,99.48752594,-0.37362653,-7.026425838,4.635753155,111.8050308,-5.767351151,30.67754555, 
98,2284987578,-46.93625259,4.26956892,99.8795166,-0.430503309,-5.741179943,5.085897923,129.8938446,-3.394644976,31.40746117, 
99,2285004245,-44.92750168,4.619494438,100.2622299,-0.845572352,-5.732745647,5.366309643,121.8228302,-2.993989706,29.93003654, 
100,2285020912,-43.11981964,4.936211586,100.6603546,-1.142971873,-4.351182938,6.352222443,109.5105591,-4.061455727,29.28850365, 
101,2285037579,-41.84309006,5.22441864,101.0933151,-1.455553293,-3.766470909,6.945690632,77.19574738,-5.928068638,29.73056984, 
102,2285054246,-40.90401077,5.497638702,101.5922012,-1.624452949,-4.32030201,6.953633308,56.24863052,-8.638109207,32.15396118, 
103,2285070913,-40.01135254,5.780231953,102.123764,-1.74018991,-4.781157494,6.892430305,52.97746658,-8.971776009,34.08282852, 
104,2285087580,-38.92175293,6.097878456,102.6655426,-1.925566912,-5.482208729,6.890137672,64.46073151,-7.154810429,35.98246002, 
105,2285104247,-37.54839706,6.448564529,103.1895599,-2.092654705,-5.582743645,7.088520527,81.36367798,-4.189861774,36.47009659, 
106,2285120914,-36.08430099,6.828691006,103.6624374,-2.05561614,-4.808684826,7.194839001,86.92835999,-0.063028403,35.12031555, 
107,2285137581,-34.71613693,7.223937511,104.0859222,-2.133567333,-3.892073631,7.732055664,81.27747345,3.234626293,33.17874908, 
108,2285154248,-33.65708923,7.61680603,104.4649048,-2.238023281,-3.173891783,8.299333572,62.77457428,5.296926022,30.7693634, 
109,2285170915,-32.88661575,7.982271194,104.8329315,-2.31656456,-3.025865316,8.599843979,45.2215271,4.764279842,29.1648407, 
110,2285187582,-32.34562302,8.305702209,105.1903229,-2.134454489,-2.892699957,8.739364624,31.22801399,3.311345339,27.14615631, 
111,2285204249,-32.03269196,8.582209587,105.5349197,-2.117383957,-2.864262819,8.724197388,17.35896111,1.548292756,24.91576958, 
112,2285220916,-32.13433456,8.772841454,105.8400879,-1.960750461,-2.496679306,8.881838799,-7.420951843,-1.513924241,20.14038658, 
113,2285237583,-32.54014969,8.937872887,106.1204453,-1.452102184,-3.52850914,7.850969791,-25.69875145,-2.086936235,18.01828766, 
114,2285254250,-32.97714996,9.103777885,106.3538208,-1.158156872,-3.539974689,7.482924461,-27.27355385,-0.626021326,15.67556477, 
115,2285270917,-33.51760483,9.278253555,106.5410233,-1.175391316,-3.742161274,7.793725967,-33.16337204,1.221244454,13.66624165, 
116,2285287584,-34.21287918,9.458907127,106.6777267,-1.102380276,-3.77341485,7.984361649,-42.07704926,3.10509944,11.40301609, 
117,2285304251,-35.09365463,9.655899048,106.7745438,-1.112700224,-4.234332561,7.851551056,-52.93287277,5.153546333,10.06884003, 
118,2285320918,-36.04887009,9.864296913,106.8224258,-1.207126498,-4.732468605,7.627200603,-56.99018097,7.288974762,8.20603466, 
119,2285337585,-36.95809555,10.07298088,106.8205566,-1.341114521,-5.267495155,7.405786991,-53.76163483,8.959467888,5.992052555, 
120,2285354252,-37.78775406,10.266119,106.7469711,-1.440716624,-5.141710758,7.198369503,-48.2354126,10.73554134,2.209985256, 
121,2285370919,-38.59925842,10.45073986,106.5831909,-1.311378479,-5.105172634,7.025840282,-46.17011642,13.61912632,-2.117732763, 
122,2285387586,-39.39412689,10.66590214,106.3348846,-1.044030547,-5.395464897,7.206427574,-44.22244644,18.23811913,-4.623942852, 
123,2285404253,-40.14758301,10.97273731,106.0183029,-1.107751012,-6.164246082,7.874054909,-40.91559219,25.13999367,-3.908037186, 
124,2285420920,-40.8616066,11.37752438,105.6631241,-1.656596661,-7.185768127,8.804883957,-37.99392319,31.16912842,-1.436365962, 
125,2285437587,-41.64411545,11.86573982,105.2842026,-2.152418375,-7.708331585,9.119515419,-41.65885544,35.88592911,1.281148195, 
126,2285454254,-42.51535034,12.41625214,104.8801498,-2.749131918,-8.085097313,8.755907059,-46.46550751,39.62218094,3.258938313, 
127,2285470921,-43.36775589,12.97594452,104.4554977,-3.4852314,-8.575460434,8.052110672,-44.81141663,40.75823593,3.388706446, 
128,2285487588,-43.97164536,13.49497032,104.0364227,-4.036002636,-8.982300758,7.339934826,-29.67681122,38.65354919,2.473720789, 
129,2285504255,-44.27755737,13.92491627,103.6138306,-4.282421589,-8.465158463,6.969182968,-11.43488789,34.84654999,-1.082071185, 
130,2285520922,-44.46754456,14.22706509,103.1972809,-4.078766346,-7.538617611,6.744087696,-4.315990448,29.03290367,-6.060809612, 
131,2285537589,-44.68550873,14.41336441,102.7916565,-3.534752607,-6.376617432,6.280874252,-5.995441914,23.58556366,-10.41381073, 
132,2285554256,-44.95495224,14.5312376,102.4087906,-2.953519344,-5.591844559,5.895277977,-9.343385696,19.73849487,-12.29821491, 
133,2285570923,-45.33061981,14.63482952,102.0641251,-2.696816921,-5.701106071,5.72621727,-16.25581169,17.60615921,-11.24928474, 
134,2285587590,-45.79522324,14.75514984,101.7569962,-2.82093358,-6.546161652,5.758839607,-22.1183548,16.81615829,-8.885296822, 
135,2285604257,-46.21496582,14.91613483,101.5197678,-3.096916676,-7.78608799,5.556132317,-20.42118645,15.64009857,-4.180623055, 
136,2285620924,-46.416008,15.13745117,101.3942871,-3.69406271,-8.358551979,5.638175488,-8.895421028,13.44483566,3.009648561, 
137,2285637591,-46.55993271,15.3766222,101.3827896,-4.363534927,-8.360890388,5.696123123,-7.129268169,9.338909149,8.361618042, 
138,2285654258,-46.72667694,15.5910387,101.4791031,-4.792229652,-8.991930962,5.4018116,-10.12041187,3.699462652,11.5472641, 
139,2285670925,-46.91669464,15.76786709,101.6886749,-4.861803532,-8.42898941,4.835595608,-13.2362833,-2.731617451,14.34196663, 
140,2285687592,-47.02664185,15.91803455,102.0139008,-4.805569172,-7.919290066,4.450113773,-10.23151588,-8.825261116,17.65426254, 
141,2285704259,-47.10690308,16.07029533,102.4602737,-4.569487095,-6.807454109,4.35692358,-10.38302803,-13.96778011,22.4138031, 
142,2285720926,-47.25461197,16.26309395,103.0305252,-4.356261253,-6.09046793,4.353721619,-16.5073719,-17.66291809,28.93074226, 
143,2285737593,-47.50498962,16.5201416,103.7213821,-4.182317734,-5.936846256,4.250311852,-24.81014442,-20.31168747,36.30187225, 
144,2285754260,-47.78388977,16.85616493,104.5322189,-4.233560085,-6.28256321,4.194722176,-28.77322006,-22.40854836,44.23776627, 
145,2285770927,-48.06896591,17.26628876,105.4571457,-4.344537258,-6.679576874,4.308020115,-31.42432404,-24.50875664,51.67809677, 
146,2285787594,-48.37131882,17.73604584,106.4876709,-4.424685001,-6.804077625,4.33706522,-34.74155045,-26.87898445,58.09724045, 
147,2285804261,-48.646698,18.26229286,107.619072,-4.503914356,-7.044975281,4.280196667,-35.47603607,-29.18686676,64.13471985, 
148,2285820928,-48.81450272,18.83859444,108.853363,-4.745124817,-7.119066715,4.44338131,-31.572752,-31.7760067,69.94192505, 
149,2285837595,-48.88010025,19.44660187,110.1831818,-4.837515831,-7.374745369,4.560283661,-28.0246048,-34.63366318,74.63896179, 
150,2285854262,-48.81579971,20.07132912,111.6040039,-4.876964569,-7.353408337,4.6366539,-22.8694706,-37.69911194,78.51864624, 
151,2285870929,-48.64928818,20.70914841,113.1143188,-4.951989174,-7.154213905,4.688511848,-19.48248863,-40.63108826,82.2274704, 
152,2285887596,-48.37479019,21.36259842,114.7160645,-5.066222668,-7.01921463,4.755536079,-15.93769836,-43.32274628,86.17033386, 
153,2285904263,-47.96941376,22.02590942,116.4159698,-5.17625618,-6.964212418,5.022740364,-11.30993748,-46.2516861,90.1745224, 
154,2285920930,-47.47197723,22.6840744,118.2335434,-5.217007637,-6.570121765,5.396646023,-9.598421097,-50.29860687,94.32730103, 
155,2285937597,-47.01308823,23.34705162,120.1745453,-5.061419487,-5.901011944,5.342657566,-16.03888893,-53.99926376,99.17354584, 
156,2285954264,-46.53577423,24.03608131,122.2306747,-4.866605282,-6.936208248,5.053896427,-19.0702858,-56.35072708,104.6233902, 
157,2285970931,-45.97789001,24.79137802,124.4083557,-4.601951122,-6.622262955,5.234354496,-18.71698761,-57.01214981,112.1040955, 
158,2285987598,-45.40074921,25.63701057,126.7129059,-4.557073116,-7.198813915,5.626430511,-22.52939224,-56.48695755,120.7755051, 
159,2286004265,-44.83765793,26.56642914,129.1510925,-4.570351601,-7.187118053,6.078557014,-28.89549446,-56.15951538,129.2987518, 
160,2286020932,-44.38047791,27.54064751,131.708252,-4.70051384,-6.933193207,6.338346004,-40.7497673,-56.74919891,135.416153, 
161,2286037599,-44.15148926,28.49674225,134.3504486,-4.71511364,-6.068358421,6.291593075,-59.22336197,-58.97294617,137.3474274, 
162,2286054266,-44.30184555,29.37141228,137.0043793,-4.643869877,-5.728978634,6.028998375,-84.66912079,-61.90182114,133.5239868, 
163,2286070933,-44.86326981,30.15631676,139.5792847,-4.332717419,-5.775411606,5.375092506,-109.1048431,-62.82001495,125.5939407, 
164,2286087600,-45.6119957,30.89092827,142.0035706,-3.794428349,-5.934565067,5.093577385,-117.608757,-60.0562439,116.5159912, 
165,2286104267,-46.23023224,31.62542915,144.2909698,-3.476742744,-5.394120693,5.522000313,-107.1815872,-55.63933563,110.259903, 
166,2286120934,-46.87026978,32.38640976,146.4598694,-3.320797682,-4.327341557,6.167628765,-106.3414154,-50.58843613,106.0354614, 
167,2286137601,-47.68011856,33.18493652,148.5355835,-3.284141779,-4.164656162,6.509311676,-115.1423874,-46.10737991,103.2180023, 
168,2286154268,-48.66542816,34.01914597,150.5343781,-3.270109653,-4.466490746,6.734117031,-124.7536545,-42.54597855,100.8838654, 
169,2286170935,-49.6872139,34.87666321,152.4898987,-3.445602655,-4.96505928,6.505792618,-127.0947952,-40.85967636,99.17230988, 
170,2286187602,-50.47986603,35.74522018,154.4304962,-3.560510397,-5.492041588,6.038033485,-114.3994141,-40.50058365,97.95013428, 
171,2286204269,-50.84608459,36.60565948,156.3750916,-3.773765326,-5.656014919,6.084550381,-90.47344971,-41.0021553,96.69979095, 
172,2286220936,-50.81098938,37.4330864,158.3498993,-3.960918665,-5.394278049,6.427789211,-68.94877625,-42.69849396,95.38132477, 
173,2286237603,-50.56104279,38.21414185,160.3547363,-4.068330288,-5.208127975,6.465945244,-58.57992935,-44.36730957,93.65736389, 
174,2286254270,-50.22780609,38.94721603,162.383728,-4.172663212,-5.397960186,6.12514925,-55.82500076,-45.65842438,91.82030487, 
175,2286270937,-49.65145111,39.64549255,164.4259949,-4.284072399,-6.261623859,5.720635891,-42.99433899,-45.8418541,90.43266296, 
176,2286287604,-48.57792282,40.31835938,166.484024,-4.419213295,-6.599225998,5.915095329,-14.92677212,-45.21285248,89.89378357, 
177,2286304271,-47.17322922,40.96117783,168.5432129,-4.527077198,-5.813085079,6.845642567,3.80795908,-43.6533432,89.04640961, 
178,2286320938,-45.75904465,41.55746841,170.6072693,-4.611413002,-5.049455166,7.31778574,3.125251293,-42.69762802,87.70412445, 
179,2286337605,-44.47047424,42.1051178,172.6728668,-4.522255898,-4.599382877,6.747863293,-5.46437788,-41.93486023,86.15658569, 
180,2286354272,-43.14395523,42.63722229,174.7210846,-4.332412243,-5.087964058,6.063599586,-3.398732185,-39.36933136,85.38470459, 
181,2286370939,-41.77224731,43.16591644,176.7333069,-4.317511559,-4.826637268,5.794610977,-0.056311194,-35.74339294,84.50401306, 
182,2286387606,-40.35343552,43.69824982,178.6765747,-4.270660877,-4.811692715,5.77545929,4.808276176,-30.87998962,82.73516846, 
183,2286404273,-39.13392258,44.2284584,-179.5107574,-4.333590984,-5.055771828,5.534957409,-2.472049475,-24.83522415,78.52012634, 
184,2286420940,-37.92142487,44.77068329,-177.7874756,-4.472220421,-4.699269772,5.56398344,0.179126307,-19.64081383,76.03019714, 
185,2286437607,-36.8235321,45.30788422,-176.1486206,-4.660485268,-4.37594986,5.902508736,-3.76390481,-15.63498306,72.9228363, 
186,2286454274,-35.90129089,45.82672501,-174.579071,-4.725720406,-4.206587315,5.857949257,-11.94441319,-13.00841045,69.74352264, 
187,2286470941,-35.08662033,46.32566452,-173.0711975,-4.831979752,-4.573006153,5.477807999,-16.28750229,-10.97414589,66.73009491, 
188,2286487608,-34.18117142,46.81378937,-171.6173248,-4.860705853,-4.79585886,5.268238544,-8.973885536,-8.83015728,64.30381775, 
189,2286504275,-33.27104187,47.30100632,-170.2190857,-4.95578289,-4.621683598,5.322410583,-6.694490433,-6.211915493,62.15675735, 
190,2286520942,-32.48403549,47.79122162,-168.8915863,-5.115958214,-4.252702713,5.307713509,-11.37125206,-3.222093821,59.57846451, 
191,2286537609,-31.78799057,48.30117035,-167.6030731,-5.297680378,-4.269646168,5.220819473,-15.50443745,-0.278951496,58.55678177, 
192,2286554276,-31.17004013,48.83625793,-166.3198547,-5.447320938,-4.186760902,5.258490086,-20.363657,2.115227938,58.78931808, 
193,2286570943,-30.55815697,49.38551331,-164.9999695,-5.533543587,-4.394790649,4.932264805,-22.81142426,3.066870928,60.03375626, 
194,2286587610,-29.62763977,49.94489288,-163.6270599,-5.439221859,-4.878622532,4.318063259,-6.549134731,3.698626041,61.65120697, 
195,2286604277,-28.34601021,50.5137825,-162.2634125,-5.84423399,-4.518075466,4.42458868,14.5181427,5.892086029,61.09708023, 
196,2286620944,-27.22465324,51.04186249,-160.9493103,-5.84222126,-3.629071474,4.644997597,6.791090965,6.186278343,57.70889664, 
197,2286637611,-26.16444397,51.54299164,-159.6580353,-6.437093735,-3.590313196,4.537590981,3.802336931,6.493518353,55.65967178, 
198,2286654278,-25.20645905,52.01618195,-158.3568268,-6.938407421,-4.075323582,4.332319736,-3.145061493,6.026783466,54.73110962, 
199,2286670945,-24.13964844,52.46683502,-157.008606,-7.519515514,-4.321419716,4.300671577,0.838863432,5.232232094,55.25019836, 
200,2286687612,-22.95492172,52.89018631,-155.6314697,-8.000396729,-4.172116756,4.509693623,6.242484093,4.562426567,55.08277893, 
201,2286704279,-21.80394936,53.30289841,-154.2201996,-8.33242321,-3.450546503,4.374133587,2.295857906,4.776334286,55.50683975, 
202,2286720946,-20.72018814,53.72650909,-152.7796478,-8.64751339,-3.389876842,4.082448959,-3.455045223,6.217720032,56.20830917, 
203,2286737613,-19.50440598,54.17370224,-151.2970428,-9.063174248,-3.707784176,4.101738453,2.103096485,8.277981758,57.51466751, 
204,2286754280,-18.06120682,54.62770844,-149.7948303,-9.39963913,-3.848465443,4.186672688,14.45484066,9.890675545,57.62162781, 
205,2286770947,-16.47530746,55.07557297,-148.3099365,-9.668720245,-3.391543388,4.33085537,23.5295372,11.34221172,56.18873215, 
206,2286787614,-14.8033762,55.50095367,-146.8209381,-9.906984329,-2.897009373,4.279135704,28.16329765,11.6869812,55.14675522, 
207,2286804281,-13.1570282,55.89731216,-145.3243561,-9.825910568,-2.388637304,3.975393295,25.94070435,11.58148479,54.15701294, 
208,2286820948,-11.5993557,56.28286362,-143.8589478,-9.970977783,-2.729767561,3.916924953,21.86911774,12.70917702,52.20544815, 
209,2286837615,-10.16279697,56.63788986,-142.4927673,-10.20920277,-2.582977057,4.263197899,19.29893303,12.89989567,47.87888336, 
210,2286854282,-8.826229095,56.94870758,-141.2332764,-10.36019802,-2.337990761,4.387155056,18.43520546,12.01194954,43.32799911, 
211,2286870949,-7.56075573,57.21725845,-140.1052094,-10.34979057,-2.395705938,4.337449551,20.61729813,11.0685482,38.17932892, 
212,2286887616,-6.324176311,57.43978882,-139.1223907,-10.4816761,-2.445157766,4.188903809,26.0993576,9.691203117,32.74419403, 
213,2286904283,-5.147603989,57.62630844,-138.2896881,-10.47131062,-2.207824945,4.075231075,30.02197456,8.661557198,27.3985157, 
214,2286920950,-4.082643509,57.78533936,-137.5966187,-10.25758934,-2.006355047,4.01785326,30.36016655,7.853106499,22.56596184, 
215,2286937617,-3.0721457,57.91041565,-137.0008392,-10.02516651,-1.85755384,4.277537346,32.0096817,6.360958099,19.16516876, 
216,2286954284,-2.126873493,58.00335312,-136.4737396,-9.847847939,-1.699968338,4.460465431,31.57605743,4.81597805,16.78110886, 
217,2286970951,-1.326601744,58.08924484,-136.0400391,-9.725037575,-1.752519488,4.439020634,27.62443733,4.699766636,13.73764801, 
218,2286987618,-0.673956513,58.20237732,-135.7130585,-9.681775093,-1.622739673,4.530517578,24.20666313,6.536045074,10.34286976, 
219,2287004285,-0.172282517,58.35157776,-135.4358673,-9.70955658,-1.179456711,4.803594589,17.68075562,8.783185005,8.73788929, 
220,2287020952,0.186756507,58.51369858,-135.1533051,-9.578665733,-1.22383678,4.726309776,8.83149147,9.598220825,8.84026432, 
221,2287037619,0.603522897,58.66164017,-134.8012848,-9.396682739,-1.624544621,4.587312698,8.721376419,8.799328804,10.9552927, 
222,2287054286,1.086201072,58.79113388,-134.4418182,-9.156869888,-1.436860323,4.572542191,12.28428936,7.759249687,11.14547062, 
223,2287070953,1.527824163,58.91669464,-134.1107941,-8.767341614,-0.820139706,4.780914307,11.26861477,7.576308727,10.21289539, 
224,2287087620,1.804213643,59.0500946,-133.8207245,-8.624835014,-0.682157218,4.970952511,3.43261528,8.070923805,8.874816895, 
225,2287104287,1.96977818,59.19739914,-133.5780792,-8.622376442,-1.129689813,5.108403206,-0.796407998,8.887418747,7.336734772, 
226,2287120954,2.126382589,59.33864975,-133.3534851,-8.548490524,-0.945296943,5.264117718,-0.420989692,8.538841248,6.776366711, 
227,2287137621,2.264650822,59.45903778,-133.106842,-8.387233734,-0.815268099,5.042729855,-2.67574048,7.346569538,7.475453377, 
228,2287154288,2.466814518,59.56430435,-132.838028,-8.328865051,-1.148663402,4.522545338,-0.005429894,6.501933575,8.161764145, 
229,2287170955,2.76590848,59.66588211,-132.5879211,-8.45644474,-1.149069428,4.782214165,6.767696857,6.288406849,7.588840485, 
230,2287187622,3.055756092,59.77085114,-132.3990784,-8.605664253,-0.828167975,5.077103615,9.377338409,6.448525906,5.708177567, 
231,2287204289,3.258539915,59.85081863,-132.2872009,-8.806556702,-1.426722288,5.435829163,8.137131691,4.858961105,3.45103097, 
232,2287220956,3.345667362,59.84120178,-132.2622375,-9.349197388,-0.952797651,6.630552769,5.713643074,-0.618079424,1.172344685, 
233,2287237623,3.225245953,59.76587677,-132.2887878,-8.537137985,-0.777855158,6.016067505,-4.06078434,-4.594771385,-0.134780422, 
234,2287254290,3.130666733,59.67214584,-132.311264,-8.105419159,-1.205412149,5.35220623,-2.722675323,-5.646070957,0.051481534, 
235,2287270957,3.126079798,59.60728073,-132.3275757,-8.035218239,-1.160814047,5.081474781,2.366024494,-3.872416258,0.166098356, 
236,2287287624,3.192154169,59.5879631,-132.3608093,-8.354728699,-1.092845082,5.000015736,7.485920906,-1.148268819,-0.467098862, 
237,2287304291,3.358603239,59.5945816,-132.3565216,-8.424657822,-0.60282886,5.249581337,11.57229614,0.488293499,0.61218226, 
238,2287320958,3.525156498,59.61614609,-132.2707825,-8.349064827,-0.741806507,5.066943645,7.355469227,1.552437186,3.038063765, 
239,2287337625,3.692765236,59.65354919,-132.1517487,-8.251561165,-1.131068468,4.874169827,5.692987442,2.590661049,3.99677372, 
240,2287354292,3.889327526,59.71716309,-132.044342,-8.297470093,-1.026479244,5.141196728,8.030967712,4.162743568,3.561203957, 
241,2287370959,4.046610832,59.76177216,-131.940979,-8.327297211,-0.619398892,5.40144062,5.880306244,3.045568466,3.527586937, 
242,2287387626,4.121703625,59.75359726,-131.8139801,-8.117870331,-0.459995717,4.819770336,-0.279901981,-0.029217688,4.469006538, 
243,2287404293,4.315997124,59.75604248,-131.6322937,-8.035360336,-0.871020079,4.449730873,4.0329566,0.741993546,6.079565048, 
244,2287420960,4.650754452,59.79408646,-131.4356232,-8.006968498,-0.926524937,4.422198772,11.6767168,2.942612886,6.385205746, 
245,2287437627,5.114360809,59.84904861,-131.230072,-8.034876823,-0.712698936,4.715637207,18.9414959,4.022231102,6.566625595, 
246,2287454294,5.60959053,59.90299988,-131.0084534,-8.159761429,-0.307343602,5.277864933,19.99472237,4.072777748,7.031036854, 
247,2287470961,6.012582779,59.93896866,-130.7785034,-8.170348167,-0.241063356,5.560006142,14.01661491,3.103878021,7.351953506, 
248,2287487628,6.307172298,59.956604,-130.5407562,-8.196937561,-0.322501481,5.61380434,7.096641541,2.107990265,7.680778503, 
249,2287504295,6.519927025,59.95360565,-130.291275,-8.12402153,-0.44331795,5.213131905,1.571313739,0.979301751,8.16160202, 
250,2287520962,6.649269581,59.94728088,-130.0869446,-8.053955078,-0.478078216,5.26177597,-1.089967966,0.668863058,6.845789909, 
251,2287537629,6.778941154,59.93104553,-129.8747406,-7.91803503,-0.291752368,5.083721161,-1.479588151,0.140805826,7.16214323, 
252,2287554296,6.946984768,59.89295197,-129.6495667,-8.041205406,-0.274559975,5.351658821,0.146748006,-1.077392101,7.717812538, 
253,2287570963,6.970967293,59.84857178,-129.4615021,-7.976490021,-0.199896649,5.323675156,-6.568563938,-1.554659128,6.668843746, 
254,2287587630,6.835072517,59.79513931,-129.3309784,-8.08056736,-0.217132002,5.27320528,-13.17407894,-2.288496017,5.018588066, 
255,2287604297,6.637465,59.71702194,-129.2123108,-8.120641708,-0.164659813,5.014862537,-16.2640934,-3.797445297,4.840939522, 
256,2287620964,6.415421486,59.62721252,-129.0846863,-8.113300323,-0.231763959,5.022045612,-18.19267082,-4.475235462,5.188184738, 
257,2287637631,6.125712872,59.55187225,-128.9680481,-8.062809944,-0.264713079,5.004122734,-21.68333626,-3.666009665,4.755428791, 
258,2287654298,5.734666824,59.49609756,-128.8796539,-8.020148277,-0.296164244,5.213319778,-26.30151176,-2.610126257,3.76867485, 
259,2287670965,5.250065327,59.41954422,-128.7812042,-8.032504082,-0.0988933,5.36562252,-32.43512726,-3.839018822,4.18061018, 
260,2287687632,4.736789703,59.33036423,-128.6668701,-8.017349243,-0.44974643,5.171944618,-34.97832108,-4.575671196,4.69701767, 
261,2287704299,4.275982857,59.24149704,-128.5408478,-7.974048138,-0.429478884,5.124274731,-32.42798615,-4.562900543,5.027497768, 
262,2287720966,3.812472105,59.18486023,-128.4163971,-8.015745163,-0.630933404,4.90349102,-32.50693512,-2.669346094,4.817779541, 
263,2287737633,3.445596933,59.16888428,-128.2852325,-8.063503265,-1.033462644,4.702223778,-27.05566788,-0.25660792,4.864133358, 
264,2287754300,3.34152317,59.18449783,-128.1338806,-8.166210175,-1.153517365,4.968628407,-12.32483959,1.648607373,5.394787312, 
265,2287770967,3.381780624,59.19755936,-127.9611664,-8.236841202,-0.689317763,5.603681087,-4.768311024,1.540591478,6.085771084, 
266,2287787634,3.386894941,59.15777206,-127.742363,-8.155207634,-0.403798848,5.692732334,-9.25042057,-1.515369534,7.694942474, 
267,2287804301,3.378150463,59.07963943,-127.4624939,-7.934749603,-0.832128942,5.189047813,-13.22062683,-3.685305357,9.71279335, 
268,2287820968,3.43206358,59.00824356,-127.1563873,-7.803719997,-0.67462647,4.966884613,-10.79934025,-3.213788033,10.53073311, 
269,2287837635,3.522094965,58.97521973,-126.8511047,-7.764764309,-0.697165847,4.755148411,-8.579070091,-0.899915755,10.3907671, 
270,2287854302,3.684400797,58.98623276,-126.5744324,-8.009016991,-0.922636449,4.939866543,-2.775469542,1.708053589,9.361231804, 
271,2287870969,3.826815128,59.02163315,-126.3528442,-8.223259926,-0.915246606,5.202814579,-1.139682293,3.088008642,7.575470448, 
272,2287887636,3.892826557,59.07034683,-126.1954803,-8.22281456,-1.018575191,5.171341896,-2.422865868,3.774966717,5.546802521, 
273,2287904303,3.944483757,59.13336563,-126.0990067,-8.157940865,-1.315880656,5.037974834,-0.154489413,4.52125597,3.625131845, 
274,2287920970,4.014440536,59.20598602,-126.0369873,-8.076377869,-0.928797424,5.176927567,2.718724489,5.040272713,2.54836154, 
275,2287937637,4.110503674,59.2820549,-125.9653549,-8.063721657,-0.867968619,5.072521687,3.782036304,5.289573669,2.834058523, 
276,2287954304,4.263991833,59.35756302,-125.8873291,-8.007897377,-0.973656714,4.903132439,6.895343304,5.289259911,3.029259443, 
277,2287970971,4.436748505,59.4370575,-125.825325,-8.094908714,-0.900142908,5.011730194,8.871328354,5.515524864,2.523639917, 
278,2287987638,4.583239079,59.51262665,-125.8075333,-8.115483284,-0.714748085,4.94939518,9.57868576,5.19308567,1.194775224, 
279,2288004305,4.770288944,59.5961113,-125.7999268,-8.177731514,-0.811270416,4.94449234,12.53393936,5.659769535,0.84346509, 
280,2288020972,4.994693279,59.67934036,-125.795105,-8.143399239,-0.549592257,5.040230751,14.9108448,5.656083584,0.757547557, 
281,2288037639,5.197799206,59.7522583,-125.7768173,-8.152833939,-0.29617089,5.108383179,12.93356991,5.09345293,1.203740001, 
282,2288054306,5.33863306,59.80438614,-125.7569427,-8.115263939,-0.161002532,5.021193027,9.10590744,3.876982689,1.348521948, 
283,2288070973,5.443642139,59.8391304,-125.728447,-8.107946396,-0.20396018,4.999285221,6.499901772,2.877254248,1.693793535, 
284,2288087640,5.534148693,59.86032486,-125.7017517,-8.188862801,-0.327584893,4.97743988,5.715654373,2.076614141,1.709058762, 
285,2288104307,5.621312618,59.87424469,-125.6800003,-8.160251617,-0.426681578,4.94978857,5.762396812,1.645372629,1.603713632, 
286,2288120974,5.679090977,59.88667679,-125.6673126,-8.121588707,-0.423343271,5.01448822,4.467264652,1.541948557,1.342950702, 
287,2288137641,5.682890415,59.89170837,-125.6743469,-8.090665817,-0.414331913,5.0201478,2.251894236,1.054487705,0.797617853, 
288,2288154308,5.647256374,59.88727188,-125.6940308,-8.13537693,-0.271203935,5.173037529,0.536131382,0.467924803,0.479271233, 
289,2288170975,5.491939545,59.84918594,-125.7386627,-8.124288559,-0.179989427,5.118862629,-5.350493431,-1.601933599,-0.077299133, 
290,2288187642,5.160223961,59.74377441,-125.8105164,-8.250600815,0.339721948,5.431351185,-14.52964687,-5.68295002,-0.536535263, 
291,2288204309,4.537207127,59.55724335,-125.9069061,-8.200771332,0.224097177,5.23005724,-30.74712181,-10.57719994,-0.94969672, 
292,2288220976,3.792350769,59.38062668,-126.0276871,-8.371501923,-0.197326705,5.166731358,-36.81163025,-10.01938057,-1.899575472, 
293,2288237643,3.108581066,59.20283127,-126.178688,-8.518750191,-1.024701595,4.563200951,-31.59848785,-10.11671066,-2.976066589, 
294,2288254310,2.690519094,59.06301498,-126.3360977,-8.313762665,-0.237722665,4.401390076,-15.33888245,-7.82835722,-3.389095545, 
295,2288270977,2.257063389,58.93786621,-126.5026169,-8.477736473,0.925178051,4.978911877,-15.8191061,-6.946716309,-3.785849333, 
296,2288287644,1.373707652,58.77318573,-126.7790909,-8.772702217,1.488227248,5.871629238,-37.19836044,-9.388635635,-7.263333321, 
297,2288304311,-0.116770446,58.5206871,-127.2382736,-9.037382126,-0.751314402,6.259592056,-64.31765747,-14.56029034,-13.22149277, 
298,2288320978,-1.831826687,58.18519211,-127.8640137,-9.04467392,-1.676444292,5.993328094,-69.34811401,-19.04526901,-19.09305, 
299,2288337645,-3.742045164,57.73929977,-128.5659637,-8.597738266,-0.233878359,5.652600765,-77.30071259,-24.89480972,-22.64590836, 
300,2288354312,-5.968467236,57.19613647,-129.1886139,-8.42202282,1.886208534,6.530276775,-100.4794769,-30.05992317,-21.82456779, 
301,2288370979,-9.127591133,56.58500671,-129.7200012,-8.316008568,3.496122599,7.355518341,-161.2552185,-33.38122177,-21.21055412, 
302,2288387646,-12.93626308,56.03099823,-130.0839691,-7.845690727,1.7973876,5.124789715,-208.8188019,-29.66492653,-17.50538826, 
303,2288404313,-16.74752235,55.69610214,-130.3860931,-7.555929184,-2.201442242,2.788915396,-212.1681213,-16.25472832,-14.31319237, 
304,2288420980,-19.8882637,55.42153168,-130.7619324,-7.819095135,-5.616814137,2.686591864,-168.3546143,-11.18235016,-16.57413864, 
305,2288437647,-22.22184944,55.08647537,-131.2194672,-8.248354912,-5.548748493,4.547751427,-115.92733,-12.77777672,-21.0078907, 
306,2288454314,-24.48697662,54.64219284,-131.7114716,-7.985470295,-2.963559628,5.880420208,-110.1943054,-17.40806389,-25.27709579, 
307,2288470981,-27.06354141,54.20384979,-132.1398926,-7.144146442,-2.295964241,5.347667694,-132.1109161,-16.86188889,-24.02647972, 
308,2288487648,-29.90604591,53.85512924,-132.634491,-7.124081135,-4.752510071,4.029644012,-144.9652557,-9.778535843,-24.44638634, 
309,2288504315,-32.84751892,53.48526382,-133.2792816,-7.004061699,-6.018815994,3.725624561,-143.7223816,-6.751925945,-30.24059868, 
310,2288520982,-35.63141632,53.0653801,-133.8856049,-7.172314167,-5.809496403,4.665647984,-136.2466278,-8.362451553,-31.21253014, 
311,2288537649,-38.38035583,52.55871964,-134.3352814,-7.342760563,-5.099165916,4.57738018,-141.780304,-14.24797249,-30.34517097, 
312,2288554316,-41.02160645,52.01263046,-134.5005035,-6.66592598,-4.330227375,4.311532021,-148.9494324,-21.1466713,-24.61622047, 
313,2288570983,-43.69380951,51.48376846,-134.3970184,-6.42152071,-4.08620882,4.027956009,-163.5158539,-25.87949371,-17.56964111, 
314,2288587650,-46.10721207,51.03770828,-134.1641388,-6.275619507,-6.560389042,2.281830072,-154.0063477,-25.00490189,-11.75115967, 
315,2288604317,-47.82795715,50.67155075,-133.9767914,-6.043354034,-8.221481323,1.407511115,-110.2281265,-20.09937286,-10.22664642, 
316,2288620984,-49.22676468,50.35042953,-133.9898682,-6.287046909,-7.222864151,2.275428295,-81.52169037,-12.33447075,-13.70277309, 
317,2288637651,-50.3182869,50.06071091,-133.9260559,-6.620298386,-7.021944523,2.673125267,-66.5941925,-13.05713463,-10.57653046, 
318,2288654318,-51.27046204,49.81285858,-133.853302,-6.093503475,-6.267558098,2.976101637,-58.59899902,-11.53796482,-8.59975338, 
319,2288670985,-52.08840942,49.62002563,-133.7105865,-6.362206459,-6.108462334,3.007192612,-53.71598053,-11.46612167,-4.479324818, 
320,2288687652,-52.73891068,49.50069809,-133.559433,-6.175762653,-6.505763054,2.510786295,-44.02695084,-8.967773438,-0.908130229, 
321,2288704319,-53.22332001,49.42939758,-133.4341888,-6.380441189,-6.578473091,2.453095913,-32.84942627,-6.406682968,0.728242278, 
322,2288720986,-53.57130432,49.39907455,-133.326416,-6.490468979,-6.663832664,2.607236862,-23.8440876,-4.383213043,2.277774096, 
323,2288737653,-53.76600266,49.37719345,-133.2150726,-6.582664967,-6.474808693,2.629355907,-14.79268932,-4.186104774,2.771238565, 
324,2288754320,-53.84649658,49.37773132,-133.122467,-6.413634777,-6.512115955,2.507811308,-7.074780464,-2.787559032,3.435785055, 
325,2288770987,-53.70677185,49.39762878,-133.076767,-6.508108139,-7.135599136,2.368607283,8.287151337,-0.597185791,3.317671299, 
326,2288787654,-53.26269531,49.43178558,-133.1143341,-6.484195232,-7.8148489,2.357347727,30.35995483,2.570338964,2.111076117, 
327,2288804321,-52.58224106,49.48570633,-133.2219086,-6.511907578,-7.803346157,2.39050293,47.76514435,5.525402546,1.442794323, 
328,2288820988,-51.71886826,49.55215073,-133.418396,-6.598464966,-7.941152096,2.401618004,62.82630157,8.779709816,-0.101895161, 
329,2288837655,-50.57297134,49.63237762,-133.6869202,-6.458889961,-8.215428352,2.324725628,83.10565186,11.51673603,-1.301311016, 
330,2288854322,-48.83810425,49.77682495,-134.043396,-6.205109119,-8.800000191,1.704725742,122.5154953,16.61295128,-0.764016747, 
331,2288870989,-46.4224205,49.98880768,-134.5252228,-5.817034721,-8.460635185,1.631519556,169.1975098,22.9079628,-1.501519561, 
332,2288887656,-43.39209366,50.29523849,-134.9799194,-5.935460091,-6.921345711,1.939521909,204.9488068,26.08525276,2.327744246, 
333,2288904323,-40.40922165,50.69296265,-135.4624023,-5.947163105,-4.363551617,3.532474041,203.4982147,30.91282463,4.010619164, 
334,2288920990,-37.85231781,51.19263458,-135.8071594,-5.833365917,-3.236101151,3.001035452,171.6403351,32.46499634,10.58591747, 
335,2288937657,-34.79759216,51.79351807,-135.8871765,-6.130616188,-3.774370193,1.812596798,189.1712036,31.90203476,20.6966877, 
336,2288954324,-31.00267029,52.47298431,-135.7691498,-6.399027824,-2.862317562,2.171603918,224.2058868,33.03063965,27.54437637, 
337,2288970991,-26.89988708,53.15787506,-135.4559937,-7.035037518,-3.146435499,3.182333946,233.2602539,31.70218086,31.55732536, 
338,2288987658,-22.67598534,53.78052521,-135.0149536,-7.128365517,-1.324047327,4.199126244,234.2020264,28.6485672,31.66746902, 
339,2289004325,-18.89354897,54.36125946,-134.5119171,-7.37452507,0.328501076,5.459887028,204.4981842,27.71999359,30.55537033, 
340,2289020992,-16.01286697,54.89623642,-134.0178528,-7.749830246,0.076562092,6.096274376,150.616272,26.98097992,27.52503777, 
341,2289037659,-13.9655323,55.37740707,-133.5585022,-7.899999142,-0.897770703,5.971374512,102.1325531,25.37994385,24.12729073, 
342,2289054326,-12.46640205,55.79853439,-133.1461487,-7.775516033,-0.285509467,5.909983635,71.42362976,23.01370049,20.77607727, 
343,2289070993,-11.52208233,56.19487381,-132.7657013,-7.620961666,-0.128040969,5.434154034,39.59828186,22.24868011,18.76627159, 
344,2289087660,-10.86959171,56.55676651,-132.4193115,-7.914256573,-1.533252597,5.325287819,23.67955017,20.7138176,16.80080605, 
345,2289104327,-10.08225536,56.83361816,-132.0788727,-8.334458351,-1.923198581,5.8881073,31.99237823,15.95207119,15.33596706, 
346,2289120994,-9.172755241,57.06407547,-131.7433472,-8.23568821,-1.052465558,6.280822277,39.51626205,13.48145199,14.41644764, 
347,2289137661,-8.45907402,57.26173782,-131.4157867,-8.156542778,-0.575876236,6.265772343,28.12382126,11.80416489,13.59835243, 
348,2289154328,-7.91279459,57.44734192,-131.1209717,-8.077591896,-1.186782479,5.637657642,19.69249725,11.40803814,12.24255371, 
349,2289170995,-7.308068752,57.6351738,-130.8685303,-8.117745399,-1.776405811,5.395068169,25.30762863,11.85251808,10.74764729, 
350,2289187662,-6.541363239,57.80941772,-130.6418152,-8.211900711,-1.365831375,5.719251633,36.30442047,11.27932262,9.667557716, 
351,2289204329,-5.711210728,57.96232605,-130.3968964,-8.294746399,-0.999996424,5.738082409,39.16093063,10.09450626,9.930506706, 
352,2289220996,-4.909553051,58.08737183,-130.1283264,-8.236642838,-0.558329642,5.637311935,36.22840118,8.507757187,10.35113811, 
353,2289237663,-4.152844906,58.20581436,-129.8466034,-8.115267754,-0.453057766,5.528608799,32.83408737,8.223736763,10.59043694, 
354,2289254330,-3.503787518,58.33172226,-129.6194458,-8.334747314,-0.582883358,5.36016798,29.13263512,8.919775963,8.769211769, 
355,2289270997,-2.863347769,58.43951035,-129.4103851,-8.197524071,-1.160436273,5.413551331,29.5197773,7.96133852,8.017238617, 
356,2289287664,-2.232676744,58.56535339,-129.2261353,-8.129768372,-0.259478807,5.725711823,30.18964386,9.170915604,7.192892075, 
357,2289304331,-1.705790401,58.67993927,-129.0362701,-8.462802887,-0.690472305,5.533517838,23.65649605,8.572756767,7.225872517, 
358,2289320998,-1.227373719,58.73439026,-128.9137268,-8.697711945,-1.129588962,5.994771004,24.1873436,5.088831902,4.952073097, 
359,2289337665,-0.879132628,58.77586746,-128.8358154,-8.173930168,-0.812653065,5.409781933,18.66758347,4.384579182,3.515065432, 
360,2289354332,-0.512048781,58.83413696,-128.8117371,-8.382055283,-0.43832159,5.730986595,22.56037521,5.443234444,1.826854706, 
361,2289370999,-0.300632864,58.92928696,-128.82164,-8.238115311,-0.190023601,5.631548405,14.959342,7.686186314,0.75583142, 
362,2289387666,-0.112261273,59.04141998,-128.8190002,-8.157247543,-0.647403717,5.415389538,12.93004417,8.714165688,1.108403325, 
363,2289404333,0.145139962,59.14127731,-128.7769775,-8.177230835,-0.50298214,5.216971874,15.04247761,7.992266655,2.289553881, 
364,2289421000,0.503901005,59.204319,-128.7003021,-8.103510857,-0.604921103,5.097420692,19.331007,5.805971146,3.326300144, 
365,2289437667,0.937940359,59.24185181,-128.6050262,-8.008323669,-0.411421716,5.197999477,22.88678551,4.304581165,3.878026009, 
366,2289454334,1.291420817,59.26562881,-128.5349884,-7.991156578,-0.289308548,5.294084549,19.34749985,3.498827457,3.092506886, 
367,2289471001,1.520748258,59.27839279,-128.4707184,-8.09265995,0.105500489,5.494071484,12.19359779,2.855369091,2.909373522, 
368,2289487668,1.626728654,59.25095749,-128.4332733,-8.305422783,-0.235400602,5.779383659,6.179859161,0.437196076,2.129837751, 
369,2289504335,1.609045625,59.22150421,-128.4481354,-8.048140526,-0.218835711,5.357701778,1.458297491,0.289666831,0.517824769, 
370,2289521002,1.454069376,59.19968796,-128.5053864,-8.07177639,-0.124370217,5.345582485,-4.593491554,0.719383955,-0.807037115, 
371,2289537669,1.302817464,59.17182159,-128.5624847,-8.070886612,-0.539973974,5.155683994,-4.378330708,0.36582616,-0.808765769, 
372,2289554336,1.175100088,59.13301086,-128.6114044,-8.077533722,-0.490193546,5.192928791,-3.393893957,-0.273165852,-0.543571889, 
373,2289571003,1.126150489,59.11233139,-128.6571808,-7.953984261,-0.883489966,4.917577744,1.169360518,0.8187356,-0.476069629, 
374,2289587670,1.111469269,59.10450363,-128.6956482,-7.802114487,-0.528103769,4.844349384,2.846518517,1.598398805,-0.257734179, 
375,2289604337,1.187710643,59.10519409,-128.6945801,-7.808273315,-0.407214642,5.096823215,6.264751434,2.132628679,0.949526846, 
376,2289621004,1.270519257,59.09778214,-128.6575165,-7.903011799,-0.318234563,5.447823048,4.804136753,1.677337527,2.064115047, 
377,2289637671,1.236494184,59.08155441,-128.6235046,-7.871949196,-0.248094082,5.480375767,-2.046870947,1.161331058,1.973471284, 
378,2289654338,1.100503087,59.05572128,-128.5898285,-7.899907112,-0.362579405,5.381904602,-8.139698029,0.591730297,1.96378994, 
379,2289671005,0.931987107,59.02927399,-128.5604858,-7.935279369,-0.527448952,5.239581585,-9.865330696,0.556666613,1.823240638, 
380,2289687672,0.763800383,59.01210403,-128.5327148,-7.94324255,-0.483045548,5.119571686,-9.765126228,1.116131306,1.765336633, 
381,2289704339,0.627761543,59.00521088,-128.5088806,-8.016888618,-0.627003491,5.108883381,-7.630709648,1.726962209,1.634116173, 
382,2289721006,0.487964034,59.00290298,-128.4957733,-8.112323761,-0.419375896,5.351373672,-7.304647446,1.998482227,1.304211736, 
383,2289737673,0.244284898,58.98793411,-128.5009613,-8.154314995,-0.550944269,5.443228722,-12.60055161,1.237631917,0.744804919, 
384,2289754340,-0.0634204,58.95528412,-128.5274658,-8.120788574,-0.673871577,5.36014843,-15.34094524,0.180973098,0.083247751, 
385,2289771007,-0.308897972,58.90682983,-128.5516968,-8.057284355,-0.862776995,5.048838615,-11.72079849,-0.761107266,0.142169744, 
386,2289787674,-0.427473783,58.86973572,-128.5674438,-7.943042755,-0.804350972,4.869044304,-4.54714489,-0.076895736,0.410187483, 
387,2289804341,-0.487349272,58.84644318,-128.5842896,-7.992816925,-0.54512465,5.072638512,-0.969677687,0.747980475,0.385266244, 
388,2289821008,-0.553847492,58.82719803,-128.5944824,-8.030085564,-0.519056678,5.210658073,-1.713137388,0.991787672,0.592959583, 
389,2289837675,-0.653556287,58.79584122,-128.5949249,-7.998220921,-0.400528342,5.219184875,-4.20552206,0.263170511,0.883586943, 
390,2289854342,-0.796659172,58.75730515,-128.5895233,-7.976206779,-0.599868596,5.108751774,-7.110822201,-0.168397114,1.051644683, 
391,2289871009,-0.962949753,58.71854401,-128.5965424,-7.99763155,-0.596508384,5.207508564,-7.865289688,-0.177483231,0.660365939, 
392,2289887676,-1.201358318,58.67881775,-128.6346283,-8.160368919,-0.575340807,5.289989948,-10.599576,-0.212611079,-0.316739559, 
393,2289904343,-1.516097546,58.60713577,-128.7008667,-8.173370361,-0.531505585,5.179961681,-13.74211407,-2.101299286,-1.251968861, 
394,2289921010,-1.843683839,58.52141571,-128.7760162,-8.114422798,-0.681520045,4.876841545,-14.05859947,-2.929077148,-1.583500028, 
395,2289937677,-2.09691,58.44282913,-128.8535767,-8.142762184,-0.994647324,4.974223614,-9.485915184,-2.49222517,-1.667982817, 
396,2289954344,-2.267960072,58.3778038,-128.963501,-7.96975565,-1.013504744,4.998709679,-2.905447006,-1.638463497,-2.66703105, 
397,2289971011,-2.328130007,58.33362198,-129.0854187,-7.882430553,-1.254235506,4.782425404,4.353608608,-0.364411116,-3.000637054, 
398,2289987678,-2.242141724,58.31843567,-129.2131348,-7.791749477,-1.390152216,4.789323807,13.41431522,1.379821062,-3.107456446, 
399,2290004345,-2.061563015,58.32759476,-129.3591614,-7.826442719,-0.985995591,5.122363567,20.02092552,2.857446194,-3.616486073, 
400,2290021012,-1.963342428,58.3384819,-129.5346832,-7.952852726,-0.779656291,5.407649994,16.58614731,2.991028547,-4.544574738, 
401,2290037679,-1.980079174,58.34538269,-129.7397308,-7.881528378,-0.719184041,5.242980957,11.20188713,2.793796301,-5.490180969, 
402,2290054346,-2.059465408,58.350811,-129.9587097,-7.905758381,-0.970098197,5.32002449,8.150670052,2.738331795,-5.932781696, 
403,2290071013,-2.188313723,58.34264374,-130.1727295,-7.890968323,-0.739479363,5.450120926,4.930957794,1.941109896,-5.807097912, 
404,2290087680,-2.363668442,58.33380508,-130.3515015,-7.755830765,-0.635105729,5.318195343,0.342108816,1.885261178,-4.707108498, 
405,2290104347,-2.504375219,58.32134628,-130.4795685,-7.730369568,-0.627425194,5.248310089,-0.167167678,1.624690175,-3.129647493, 
406,2290121014,-2.57795167,58.31742096,-130.5530396,-7.777582169,-0.512255549,5.273067474,1.072935224,2.074609518,-1.39530313, 
407,2290137681,-2.594681978,58.3249588,-130.5837402,-7.765444756,-0.508458495,5.31792593,2.297823906,2.713069916,-0.024677835, 
408,2290154348,-2.555407524,58.34146881,-130.5664825,-7.848268032,-0.526935279,5.379101753,3.211538553,3.186079979,1.49857378, 
409,2290171015,-2.448713779,58.36199188,-130.5028076,-7.960274696,-0.440635502,5.326303482,4.888133049,3.372962236,2.959419727, 
410,2290187682,-2.267267704,58.38130951,-130.4166565,-8.040769577,-0.417329848,5.086587906,8.223331451,3.28133297,3.650066376, 
411,2290204349,-1.974829912,58.41194153,-130.3159332,-8.094779015,-0.30682379,5.192042351,14.1331501,3.95103097,4.119792938, 
412,2290221016,-1.681417704,58.45572281,-130.224884,-8.186830521,-0.474455953,5.377151012,14.67915726,4.769646168,3.818799257, 
413,2290237683,-1.363888502,58.50179291,-130.1517639,-8.197151184,-0.775572598,5.311207771,17.04354668,4.940137863,3.231794834, 
414,2290254350,-1.026122332,58.53058243,-130.0935059,-8.210109711,-0.406029105,5.456995964,19.01419258,3.932598114,2.725341797, 
415,2290271017,-0.841574967,58.54517365,-130.0608368,-8.200407982,-0.343944371,5.661612034,11.13036919,3.110657215,1.891889453, 
416,2290287684,-0.936222672,58.55778122,-130.1020203,-8.069537163,-0.304393113,5.220434666,-1.836770058,3.037461519,-0.434436232, 
417,2290304351,-1.076290607,58.55505371,-130.1569061,-8.203224182,-0.774044275,5.221838474,-3.86256814,2.124944925,-0.881595552, 
418,2290321018,-1.160560846,58.54447556,-130.2071075,-8.068602562,-0.57027638,5.133718967,-0.758910537,1.659011245,-0.73683244, 
419,2290337685,-1.191324592,58.53650284,-130.2615509,-8.077254295,-0.767534673,5.107592106,2.66866374,1.81456995,-0.869096518, 
420,2290354352,-1.203141332,58.53287125,-130.3305359,-8.084506989,-0.64972806,5.180486679,4.547702312,2.087871075,-1.317011714, 
421,2290371019,-1.195884705,58.52752304,-130.4011993,-8.160114288,-0.648819208,5.290874481,5.776062012,1.986303568,-1.371054411, 
422,2290387686,-1.17145443,58.51759338,-130.4619904,-8.087617874,-0.48769328,5.298867702,6.300794601,1.705901742,-1.069919348, 
423,2290404353,-1.076566219,58.51198578,-130.5337067,-8.043034554,-0.876190305,5.010828018,11.08449745,1.978012323,-1.411478281, 
424,2290421020,-0.904927909,58.51589966,-130.6319733,-8.063548088,-0.741852641,5.167766094,17.04338074,2.560306072,-2.228935242, 
425,2290437687,-0.681687474,58.52190018,-130.7323151,-8.053079605,-0.55265075,5.236300468,20.24492645,2.676908493,-2.29516983, 
426,2290454354,-0.363829702,58.51479721,-130.8228302,-8.125717163,-0.686634421,5.510776997,25.42181396,1.881128907,-2.00627923, 
427,2290471021,-0.080749236,58.51815796,-130.9444427,-7.921702385,-0.4701747,5.068217754,24.92737198,2.51162529,-2.98386693, 
428,2290487688,0.171301126,58.54487991,-131.073349,-7.977464199,-0.573707223,4.803977966,23.43528175,3.90148735,-3.217723608, 
429,2290504355,0.378365904,58.56756973,-131.2160797,-8.145379066,-0.373248279,5.205699444,21.44238663,3.637906075,-3.656468868, 
430,2290521022,0.634702444,58.60858536,-131.3603516,-7.912766457,-0.731554329,4.976427078,24.47280693,4.725040436,-3.720822096, 
431,2290537689,0.973980844,58.67045975,-131.4654846,-7.90648222,-0.255838066,4.713323593,27.4479866,5.970067501,-2.522915363, 
432,2290554356,1.108729243,58.69676971,-131.555481,-8.121354103,0.745217085,5.95455265,14.39373207,3.831201315,-2.02656126, 
433,2290571023,1.010456085,58.688797,-131.5880432,-7.852776527,0.181497723,5.5883255,-2.527224541,1.820474029,-0.227946624, 
434,2290587690,0.776783586,58.66592407,-131.5897675,-7.81108284,-0.038223863,5.423208714,-12.22677231,0.950603008,0.732254684, 
435,2290604357,0.447398365,58.6526947,-131.5661774,-7.807889938,-0.177171856,5.25857687,-19.26416206,1.547482729,1.50546515, 
436,2290621024,0.065071747,58.63136292,-131.5367432,-7.862512112,-0.068359278,5.27133131,-22.73769569,1.055962324,1.685562134, 
437,2290637691,-0.292410821,58.59513474,-131.4624176,-8.030639648,0.165977985,5.466130733,-23.54389763,0.150590152,3.077947855, 
438,2290654358,-0.614985466,58.57350922,-131.4046783,-8.11832428,-1.674319148,4.632562637,-20.59738731,1.018285751,2.548685074, 
439,2290671025,-0.617565572,58.55177689,-131.3531647,-8.085885048,-1.313858151,4.942103386,-1.07965219,0.994393885,2.382615089, 
440,2290687692,-0.559787631,58.52024078,-131.319458,-8.042313576,-0.848439395,5.095597744,3.454782009,0.409623951,1.836648583, 
441,2290704359,-0.504239082,58.47338104,-131.286972,-7.948456764,-0.258537412,4.911129951,3.384385824,-0.511530459,1.798306465, 
442,2290721026,-0.411448538,58.41875076,-131.2256927,-8.031551361,-0.420836806,5.034068584,4.144556999,-0.990974545,2.700666904, 
443,2290737693,-0.37342447,58.35051346,-131.1496277,-8.102669716,-0.111034013,5.227244377,0.102796577,-1.811695099,3.167817354, 
444,2290754360,-0.393413693,58.27669144,-131.0576324,-8.069701195,-0.172753379,5.155509472,-4.193164349,-2.153048515,3.667239189, 
445,2290771027,-0.539750397,58.21066284,-130.9803162,-8.095212936,0.090974264,5.175549507,-11.02069569,-1.692917109,3.204137325, 
446,2290787694,-0.75738138,58.15717697,-130.9200287,-8.069973946,-0.11063233,5.251248837,-14.43304157,-0.948304415,2.66049552, 
447,2290804361,-0.993114412,58.11984253,-130.8661346,-8.059634209,0.029088397,5.299274921,-15.19515133,0.010296315,2.461587667, 
448,2290821028,-1.187804222,58.09539032,-130.8020782,-8.033103943,0.125992045,5.235077858,-13.25055981,0.763854504,2.784505844, 
449,2290837695,-1.386566997,58.09209061,-130.7355652,-7.965988636,0.115072213,5.28046608,-13.62474918,2.021054745,2.880873203, 
450,2290854362,-1.561341047,58.09886551,-130.6681671,-8.036045074,-0.350616902,5.338019371,-12.233881,2.61183095,2.916212559, 
451,2290871029,-1.707208157,58.10694122,-130.6009521,-8.166089058,-0.20419541,5.529388905,-10.4914341,2.679819584,2.912472486, 
452,2290887696,-1.870693803,58.10880661,-130.5445862,-8.131993294,-0.457114011,5.312641144,-10.992342,2.315196991,2.552345037, 
453,2290904363,-1.961263061,58.10851669,-130.4963989,-8.104441643,-0.757398963,5.12506485,-6.204902649,2.191141605,2.292029858, 
454,2290921030,-1.981801391,58.11433029,-130.4763031,-8.034459114,-0.670593917,5.178112507,-0.572053194,2.578007698,1.418431282, 
455,2290937697,-2.062976599,58.10355759,-130.494278,-8.065924644,-0.511005819,5.332064152,-2.271244764,1.623364806,0.179769129, 
456,2290954364,-2.264994144,58.04832458,-130.5654297,-8.144909859,-0.537796855,5.440573692,-6.813894749,-0.975491762,-1.610738158, 
457,2290971031,-2.591982603,57.95495605,-130.6435699,-8.03026104,-0.324069977,5.337484837,-13.95917034,-3.23876071,-1.948993683, 
458,2290987698,-2.986033916,57.83720398,-130.7326355,-8.149687767,-0.348982424,5.211614609,-17.43388176,-4.66836834,-2.413346529, 
459,2291004365,-3.405287027,57.70410156,-130.8114319,-8.144592285,-0.283416986,5.212230682,-19.47871971,-5.589511395,-2.195196867, 
460,2291021032,-3.890895844,57.57404709,-130.8676605,-7.980178356,0.16372633,5.072813988,-24.6127739,-5.440488815,-1.532865763, 
461,2291037699,-4.421374321,57.43362808,-130.901123,-7.981973171,-0.314293534,4.724776745,-28.47240067,-6.102845192,-0.925492048, 
462,2291054366,-4.89149332,57.3194313,-130.9063416,-7.93312788,-0.489998907,4.62783432,-26.29133034,-4.613582611,0.039699782, 
463,2291071033,-5.2857337,57.23212433,-130.8631134,-7.938960075,-0.46207568,4.679228306,-24.19360924,-3.161183834,1.703119993, 
464,2291087700,-5.563959122,57.1664772,-130.7556915,-7.98140192,-0.963500202,4.83341074,-20.48934746,-2.094007969,3.884536505, 
465,2291104367,-5.73810482,57.10494614,-130.5919037,-7.94870615,-0.477341622,5.251699924,-17.02665138,-2.048928738,5.696290016, 
466,2291121034,-6.072747707,57.03422928,-130.4175262,-8.032678604,-0.49466601,5.325220585,-27.23137856,-2.671603918,6.000206947, 
467,2291137701,-6.360543251,56.97372055,-130.219162,-7.739938736,-1.116523385,5.212848663,-25.72352028,-2.202089548,6.890218735, 
468,2291154368,-6.753203869,56.93434906,-129.9856262,-7.721960545,-0.580453396,5.327754498,-33.6759491,-1.097835183,8.107873917, 
469,2291171035,-7.112714767,56.90301514,-129.7082062,-7.766071796,-1.167871714,5.379380226,-33.92166519,-0.857651412,9.597849846, 
470,2291187702,-7.424238205,56.87622833,-129.4072571,-7.825447559,-1.274777174,5.602504253,-32.18379974,-0.73113662,10.37591267, 
471,2291204369,-7.740533829,56.84491348,-129.0931702,-7.867777348,-1.223126054,5.593391895,-33.12651443,-1.114419818,10.76880455, 
472,2291221036,-8.041801453,56.79296494,-128.7776794,-7.866786003,-1.149364471,5.476201057,-32.27334595,-2.400681734,10.63978958, 
473,2291237703,-8.271842003,56.74611664,-128.472168,-7.893954754,-1.548802853,5.302584648,-27.48602104,-2.10002327,10.35469341, 
474,2291254370,-8.371356964,56.71076202,-128.2076111,-7.89489603,-2.134560108,5.277611732,-17.58446884,-1.258539557,9.126317978, 
475,2291271037,-8.375390053,56.69009781,-127.997818,-7.869821072,-1.714485407,5.444449902,-9.096910477,-0.128812715,7.489348412, 
476,2291287704,-8.345355034,56.6934433,-127.8359528,-7.873897552,-1.631315112,5.465706348,-4.635828972,1.529449821,6.142041683, 
477,2291304371,-8.311787605,56.72858047,-127.7256851,-7.890019894,-1.743373394,5.329509735,-1.833952546,3.671158075,4.740373135, 
478,2291321038,-8.22088623,56.79430008,-127.6622467,-7.88196516,-1.863032222,5.258529186,3.961709499,5.715973854,3.479114532, 
479,2291337705,-8.095640182,56.88450623,-127.6390228,-7.871110439,-1.74205184,5.187662601,8.042749405,7.368814468,2.37934351, 
480,2291354372,-7.867293835,56.98498535,-127.6336975,-8.03526783,-1.597799659,5.007437229,15.13261223,8.06637001,1.872187734, 
481,2291371039,-7.651351452,57.0427475,-127.6594849,-8.262881279,-2.044392824,5.511394501,15.95454311,5.664491177,0.500581503, 
482,2291387706,-7.251730442,57.09110641,-127.6839371,-8.007622719,-1.319701791,5.298063755,26.91400146,5.109663486,0.460383087, 
483,2291404373,-6.945064545,57.12926865,-127.6925354,-7.950491428,-0.677086771,5.330945969,20.53852844,4.43914175,0.877998233, 
484,2291421040,-6.731130123,57.16077423,-127.6877899,-7.918671131,-0.852878213,5.447148323,14.3001976,3.994688272,1.241025925, 
485,2291437707,-6.584149837,57.18283844,-127.6853027,-8.008831024,-0.869293332,5.524356365,10.39696598,3.445843935,1.08809185, 
486,2291454374,-6.543676853,57.18889618,-127.7048645,-8.118273735,-0.686897933,5.375333786,5.118807316,2.578821421,0.257644564, 
487,2291471041,-6.538323879,57.18404007,-127.7157288,-8.133307457,-0.848652184,5.175975323,2.567282438,1.896063328,0.459523827, 
488,2291487708,-6.54638958,57.17713928,-127.7197876,-8.094397545,-0.803463578,5.090760231,1.412226677,1.744961143,0.665526807, 
489,2291504375,-6.585409164,57.16469574,-127.7114944,-8.038310051,-0.738146722,5.095087051,-1.074638128,1.357344747,1.024751067, 
490,2291521042,-6.648649216,57.14924622,-127.6942139,-8.027206421,-0.644104958,5.1546731,-2.981913567,1.140277386,1.288894892, 
491,2291537709,-6.735885143,57.13752747,-127.6852951,-8.025319099,-0.924889863,5.111347198,-4.011044979,1.384199977,1.042782664, 
492,2291554376,-6.923518181,57.12310028,-127.7002335,-8.02954483,-0.512257099,5.491702557,-8.836773872,1.309257388,0.251824111, 
493,2291571043,-7.090501785,57.10382462,-127.729187,-7.971720219,-1.392535925,5.094461918,-6.894485474,1.078871131,-0.247143388, 
494,2291587710,-7.278310299,57.09516525,-127.7691422,-7.868883133,-0.731164336,5.09197998,-7.57839632,1.756506681,-0.527231157, 
495,2291604377,-7.493748188,57.09684753,-127.7894516,-7.883051395,-0.642971098,5.093250275,-10.23914814,2.286023855,0.188970566, 
496,2291621044,-7.708864212,57.10797882,-127.795311,-7.938751698,-0.744972527,5.107805252,-10.9801569,2.779356956,0.745067358, 
497,2291637711,-7.944516659,57.12040329,-127.7930298,-7.928500175,-0.647513628,5.287210941,-12.61102295,2.813601732,1.008315086, 
498,2291654378,-8.244193077,57.12751007,-127.7919693,-7.942620277,-0.70108217,5.231914043,-16.41503906,2.495274544,0.935703158, 
499,2291671045,-8.572071075,57.12781906,-127.7934723,-7.974412441,-0.969941378,5.076507092,-17.98373032,2.100321054,0.794161141, 
500,2291687712,-8.905858994,57.11324692,-127.8059692,-8.08665657,-1.070193768,5.252401352,-17.76675987,1.266229153,0.292471677, 
501,2291704379,-9.380454063,57.05883026,-127.8555527,-8.156664848,-0.833247066,5.078846931,-24.3472538,-0.903163195,-1.287123919, 
502,2291721046,-9.950119019,56.95610046,-127.9029007,-8.200535774,-0.797691286,4.991890907,-30.16903496,-3.761883497,-1.733901978, 
503,2291737713,-10.61796188,56.8078537,-127.9264526,-8.131536484,-0.557173312,4.802110672,-37.28474426,-6.581286907,-1.511585832, 
504,2291754380,-11.2623806,56.68182373,-127.9284744,-8.20404911,-1.240549207,4.662391663,-36.97245026,-5.401028156,-0.668507576, 
505,2291771047,-11.86795425,56.57753372,-127.9436798,-8.263367653,-1.239812136,4.532689571,-33.98936462,-4.040400028,-0.908223629, 
506,2291787714,-12.43922234,56.49990082,-127.9213715,-8.585042953,-0.799364746,4.736534119,-33.82606888,-2.747402191,0.587455273, 
507,2291804381,-13.05605125,56.42876053,-127.8396378,-8.738004684,-0.810133517,4.707970619,-39.54938126,-2.830750227,2.5491817, 
508,2291821048,-13.71298313,56.34471512,-127.6975632,-8.868905067,-1.24823451,4.610422611,-44.99131775,-4.103843212,4.274546623, 
509,2291837715,-14.43305397,56.2324028,-127.4983368,-8.971036911,-0.890814304,4.460062027,-51.64456177,-6.292160034,5.65796423, 
510,2291854382,-15.37905407,56.12294388,-127.2730255,-9.074537277,-1.158518314,4.348278046,-66.51085663,-6.47218132,6.445729733, 
511,2291871049,-16.52858353,56.03035355,-127.0586472,-9.133317947,-1.537950516,4.201537132,-78.19705963,-5.558019638,6.248930931, 
512,2291887716,-17.72869301,55.96762085,-126.8775024,-8.815721512,-1.933384657,4.239818096,-79.59625244,-3.686883688,5.586228848, 
513,2291904383,-18.88858414,55.90854645,-126.7310715,-8.670562744,-1.886105061,4.506246567,-75.46550751,-3.255388498,4.453312397, 
514,2291921050,-19.88850784,55.86242676,-126.6208878,-8.451658249,-2.203334808,4.185251236,-64.08139038,-2.224034548,3.482859612, 
515,2291937717,-20.63778114,55.81906891,-126.5388031,-8.367105484,-2.388707638,4.288250923,-47.65443802,-1.814418197,2.603033304, 
516,2291954384,-21.26220894,55.77392578,-126.4877548,-8.320729256,-2.466990471,4.3214674,-38.63490677,-1.59163928,1.557990432, 
517,2291971051,-21.8214283,55.75666809,-126.453125,-8.103186607,-2.613237619,4.170968533,-33.91257095,0.137310237,1.630421281, 
518,2291987718,-22.35324478,55.80254745,-126.4241409,-7.808145046,-2.519506931,4.392239094,-31.99640656,3.692289352,2.874421597, 
519,2292004385,-22.96800613,55.91566467,-126.3840027,-7.434810638,-2.418529272,4.787950039,-37.52860641,7.236804008,4.797424793, 
520,2292021052,-23.71885681,56.08334351,-126.3072205,-7.319491386,-2.576621056,4.581368446,-47.52213287,9.707520485,7.290070057, 
521,2292037719,-24.48603249,56.31976318,-126.1983719,-7.287401676,-2.922998905,4.222549438,-50.10118484,12.95362854,10.0461359, 
522,2292054386,-25.12998581,56.62127686,-126.0688477,-7.489397049,-3.622712374,3.80406785,-43.75389099,16.10298729,12.43297768, 
523,2292071053,-25.58050919,57.00137329,-125.9737701,-7.755076408,-3.552628994,3.738723278,-30.43657303,20.74215889,13.55097103, 
524,2292087720,-25.93717575,57.45103073,-125.9762268,-8.061030388,-3.677981138,3.577395439,-19.90504646,25.79233742,12.63406277, 
525,2292104387,-26.18523598,57.9732666,-126.1443176,-8.036649704,-3.796466351,3.621225119,-4.985263348,31.9599781,9.926184654, 
526,2292121054,-26.30797195,58.53903198,-126.5056915,-8.102341652,-3.955160618,3.583518505,12.44924831,36.93017578,5.801897049, 
527,2292137721,-26.28196907,59.13501358,-127.1184692,-8.205768585,-4.098487377,3.854529858,34.39966583,41.92724228,-0.173021987, 
528,2292154388,-26.15307808,59.69926834,-127.9610443,-8.470420837,-3.611027479,4.281332493,52.64209366,43.19264221,-7.046957016, 
529,2292171055,-25.97456741,60.22821426,-128.9985657,-8.629556656,-3.552303553,4.002301216,65.99349976,43.6799469,-12.96081924, 
530,2292187722,-25.76704597,60.72870255,-130.1896973,-8.960946083,-3.180144072,3.896988392,76.02927399,43.8850441,-17.48062325, 
531,2292204389,-25.59979248,61.20533371,-131.482666,-9.366200447,-2.819519997,3.930241585,79.24663544,43.60653687,-20.41675758, 
532,2292221056,-25.59305191,61.64990234,-132.8773804,-9.435222626,-2.36857295,4.463384628,75.26573944,42.87244034,-23.44563484, 
533,2292237723,-25.76199341,62.0214653,-134.235611,-9.325624466,-1.789169312,4.898419857,63.06040573,38.30396271,-23.87562752, 
534,2292254390,-26.02038193,62.33086014,-135.4545288,-9.028392792,-1.878518343,5.015806198,50.51790237,33.17220688,-21.48427582, 
535,2292271057,-26.23130608,62.55721283,-136.390152,-8.695226669,-1.577372313,4.934292316,38.45437241,25.22527313,-16.22898865, 
536,2292287724,-26.44533348,62.71344376,-137.0447235,-8.448786736,-1.131037116,4.882409096,23.37341881,18.0306797,-10.92491722, 
537,2292304391,-26.82914162,62.83067703,-137.4585419,-8.553896904,-0.574204326,4.884006023,0.382807702,13.02223682,-5.92558527, 
538,2292321058,-27.48443604,62.95961761,-137.6659546,-8.191402435,-0.263961464,4.897043705,-26.91350365,11.11902332,-0.466485381, 
539,2292337725,-28.22426987,63.12007523,-137.6096649,-7.8364048,-0.662284076,4.491488934,-46.08011246,9.452116013,6.869553566, 
540,2292354392,-29.0032444,63.32616806,-137.3390656,-7.556776524,-0.625208974,4.654195309,-59.92197418,9.008043289,13.34138489, 
541,2292371059,-29.7244339,63.56644821,-136.8078613,-7.52718544,-0.631364465,4.889287949,-70.4642868,7.240675926,20.46066666, 
542,2292387726,-30.25026894,63.79332733,-135.9472198,-7.57904911,-0.623131633,4.483834267,-76.51885223,2.017130375,27.58496284, 
543,2292404393,-30.39066124,64.03154755,-134.7348022,-7.504638195,-1.266307712,4.039968491,-72.44845581,-2.143403292,35.7592392, 
544,2292421060,-30.11387444,64.24343109,-133.2197571,-7.815562248,-1.686796546,4.676587582,-63.87038422,-7.329743385,41.57112885, 
545,2292437727,-29.55571365,64.39025879,-131.4624329,-7.881570339,-1.773002625,5.179513931,-60.195961,-13.41560745,44.92079163, 
546,2292454394,-28.87360001,64.45069122,-129.5215454,-7.800160408,-1.991834641,5.014652252,-62.76424789,-19.68058205,46.54271317, 
547,2292471061,-28.1158123,64.42868042,-127.502861,-7.424106121,-2.622750282,4.865467548,-62.42012405,-24.37375641,46.17485428, 
548,2292487728,-27.22140694,64.31433868,-125.4995804,-7.238394737,-3.032585144,4.736009121,-53.29125214,-28.47363663,43.73063278, 
549,2292504395,-26.23447418,64.12129974,-123.5835724,-6.954506397,-2.840764284,4.988640308,-42.84105301,-31.06266594,40.32400894, 
550,2292521062,-25.21324539,63.85097885,-121.7468643,-6.965404034,-3.14074564,5.024931908,-36.25793839,-33.78190231,37.3756218, 
551,2292537729,-24.05267906,63.50296783,-119.9505157,-7.22587204,-3.567610979,5.089866638,-25.4163475,-37.05721283,35.6127739, 
552,2292554396,-22.79162788,63.09727478,-118.1708221,-8.050886154,-3.713018417,4.958283424,-18.12311935,-39.52358627,35.22496796, 
553,2292571063,-21.50258064,62.67691803,-116.4345932,-8.827781677,-3.684590101,4.692846298,-13.71965981,-39.34875488,35.34096146, 
554,2292587730,-20.38293076,62.2857666,-114.8599854,-9.097111702,-3.102224588,4.849061489,-14.9059782,-35.60055923,33.26198959, 
555,2292604397,-19.58951569,61.90670395,-113.4547729,-8.570221901,-2.579581261,4.791353703,-25.1714859,-32.93823624,30.18573761, 
556,2292621064,-19.03769112,61.4724617,-112.1614304,-7.984270096,-1.945356846,3.87932229,-33.45379639,-34.83075333,26.99155998, 
557,2292637731,-18.56492233,61.0428772,-110.8907013,-7.805241585,-1.900216937,3.035204887,-36.72278214,-34.30558395,27.27259445, 
558,2292654398,-17.96269798,60.66701126,-109.6272278,-8.140836716,-2.134892702,3.073160172,-28.31671524,-31.10341454,28.86300278, 
559,2292671065,-17.24616051,60.34972,-108.3921585,-8.651602745,-2.181774616,3.743910551,-19.75399971,-27.32637024,29.88803673, 
560,2292687732,-16.54267311,60.06656265,-107.2532349,-9.007557869,-2.01086998,4.581311226,-15.33488464,-24.29245377,28.42121315, 
561,2292704399,-15.92502022,59.78221512,-106.2675247,-9.247600555,-2.011953354,4.647485256,-12.36071777,-22.8504982,24.55429459, 
562,2292721066,-15.45515442,59.47251511,-105.4515686,-9.160428047,-1.41548264,4.073675632,-12.28232002,-22.78149033,19.66874695, 
563,2292737733,-14.95622253,59.13087463,-104.7789612,-8.890189171,-1.748453021,3.500855923,-3.019501925,-23.40657425,15.36200714, 
564,2292754400,-14.41992474,58.77879715,-104.2090302,-8.73670578,-1.435059786,3.513146639,4.615195751,-23.15629387,12.55826378, 
565,2292771067,-13.84945965,58.43532944,-103.7285614,-8.507916451,-1.131281018,3.878955841,11.33627415,-21.93056679,10.38210773, 
566,2292787734,-13.33084583,58.1174736,-103.338974,-8.313755989,-1.294563651,4.363441467,12.93070126,-19.7227993,8.313669205, 
567,2292804401,-12.86731911,57.83710861,-103.0591202,-8.243411064,-1.326193333,5.015035152,15.26287937,-16.71046829,5.700283527, 
568,2292821068,-12.37284946,57.58699799,-102.8546829,-8.13538456,-2.156391621,4.782362938,20.98350716,-14.38246059,3.948782921, 
569,2292837735,-11.71970749,57.35389328,-102.7021027,-8.12475872,-2.297515154,4.906506538,33.16533661,-13.0050087,2.727873564, 
570,2292854402,-11.031003,57.12597656,-102.5921478,-8.219299316,-1.751374125,5.043328285,37.48270416,-12.39973927,1.636577129, 
571,2292871069,-10.46323776,56.90016556,-102.5536804,-8.329441071,-1.567067146,4.649927616,33.84910202,-11.82762146,-0.463982552, 
572,2292887736,-9.917606354,56.68802643,-102.5907593,-8.494727135,-1.901175499,4.882338047,36.31272125,-10.59646988,-2.624015331, 
573,2292904403,-9.462701797,56.53951263,-102.7532272,-8.28126049,-1.211299658,4.605187893,37.1507225,-6.161576271,-5.958082199, 
574,2292921070,-9.11367321,56.41825485,-102.8856506,-8.498952866,-0.880222559,5.066954136,29.2721386,-4.75823307,-4.676093102, 
575,2292937737,-8.732644081,56.26116943,-102.919426,-8.422949791,-0.497518629,5.406158447,26.24223518,-7.426465511,-1.746835232, 
576,2292954404,-8.512975693,56.0774498,-102.9240112,-8.217887878,-1.084221005,4.904213428,15.08837509,-9.16782093,-0.988766611, 
577,2292971071,-8.350318909,55.91279984,-102.9506454,-7.982701302,-0.920868874,4.68719244,12.75559521,-7.938066483,-1.518648624, 
578,2292987738,-8.280176163,55.77282333,-103.0139084,-7.872597218,-0.764122128,4.958257675,9.010878563,-6.305427074,-2.511915684, 
579,2293004405,-8.248521805,55.68226242,-103.0862732,-7.848229408,-0.78581816,4.977715492,7.138549805,-3.334351778,-2.391676188, 
580,2293021072,-8.172815323,55.63205719,-103.1321564,-7.886580467,-0.800353348,4.96878767,8.455836296,-1.074120045,-1.161792397, 
581,2293037739,-8.120344162,55.59424973,-103.1368103,-8.05610466,-0.717069566,5.110255718,5.009530544,-0.539147317,0.326081693, 
582,2293054406,-8.041508675,55.56792068,-103.0655746,-8.191224098,-0.798231781,4.821069717,2.826341867,-0.228875086,2.969222307, 
583,2293071073,-7.843012333,55.53853607,-102.902092,-8.502435684,-0.611825526,5.043829441,5.425584316,-0.847870171,6.053761482, 
584,2293087740,-7.64448452,55.51094818,-102.7133942,-8.304140091,-0.386942476,5.24714756,4.165989399,-0.851840138,6.929344177, 
585,2293104407,-7.479679585,55.5281868,-102.5468369,-8.043167114,-0.538315952,4.854718208,3.221552849,1.921964407,6.540985107, 
586,2293121074,-7.257611275,55.56568527,-102.3799515,-8.052270889,-0.611302912,4.992484093,6.622101307,3.135008097,6.703140259, 
587,2293137741,-6.965821743,55.59584045,-102.1995239,-8.149893761,-0.694618821,5.358618736,10.11991024,2.659054518,7.091244698, 
588,2293154408,-6.663685799,55.60237503,-102.0469208,-8.246470451,-0.891052306,5.44160223,12.10620117,1.39474678,5.977232456, 
589,2293171075,-6.33262682,55.57709122,-101.9449615,-8.111769676,-1.261828184,5.291179657,16.34704781,-0.279089034,4.055282116, 
590,2293187742,-5.951039314,55.53533173,-101.8926926,-7.945898056,-0.846158743,5.507797718,21.84102821,-1.058715463,2.290284872, 
591,2293204409,-5.639072895,55.48139572,-101.8580856,-7.813180923,-0.612611592,5.785232544,18.53998375,-1.712889433,1.632907271, 
592,2293221076,-5.384192944,55.42834854,-101.8160019,-7.814987183,-0.655047894,5.635481358,14.74436378,-1.670820117,1.904375911, 
593,2293237743,-5.154129982,55.3787117,-101.7778168,-7.854161263,-0.667996705,5.388534546,13.44978142,-1.444710851,1.801425457, 
594,2293254410,-4.918531418,55.33201599,-101.7265091,-7.908817291,-0.759837031,5.245669365,13.13228512,-1.303187728,2.273596048, 
595,2293271077,-4.679104805,55.2883873,-101.6642761,-8.07137394,-0.598147929,5.243267059,12.8259306,-1.143300414,2.672513962, 
596,2293287744,-4.500275612,55.25027084,-101.5997849,-8.093267441,-0.543592215,5.508106232,9.069766045,-0.818127453,2.788532019, 
597,2293304411,-4.431286812,55.20050812,-101.538208,-8.102892876,-0.469737917,5.688242912,2.613417864,-1.503113508,2.645138979, 
598,2293321078,-4.424703121,55.1249733,-101.4864883,-8.125387192,-0.66921705,5.774842262,-0.642597079,-3.017112017,2.18720293, 
599,2293337745,-4.40307045,55.03503036,-101.4620819,-8.00414753,-0.975797415,5.370992661,1.614771843,-3.804446459,1.182058215, 
600,2293354412,-4.389022827,54.96524048,-101.4700394,-7.860550404,-0.555096805,5.060655117,2.753896713,-2.511158705,0.167282969, 
601,2293371079,-4.353167534,54.91127396,-101.4999008,-7.869958401,-0.612847447,5.277470112,5.136781216,-1.51256454,-0.515846252, 
602,2293387746,-4.347917557,54.87259293,-101.5231094,-7.802043915,-0.286246657,5.398892879,2.941906691,-0.619648039,-0.200713947, 
603,2293404413,-4.421195984,54.83834839,-101.5183792,-7.798668385,-0.347767115,5.369036198,-3.140053034,-0.429038376,0.770039499, 
604,2293421080,-4.522963047,54.81529999,-101.4820023,-7.729206562,-0.507247925,5.381859779,-6.40845108,0.152209878,1.907179236, 
605,2293437747,-4.62131691,54.80821991,-101.4485474,-7.700364113,-0.939994335,5.300031662,-6.048478127,1.114043713,1.868901372, 
606,2293454414,-4.689497948,54.80490494,-101.4478989,-7.78395319,-0.659157336,5.622311115,-2.580607891,1.435406208,0.7258448, 
607,2293471081,-4.794140339,54.77777481,-101.4501114,-7.999814987,-0.781867743,5.792118549,-4.407267094,0.048235118,0.36429584, 
608,2293487748,-4.901865005,54.70848846,-101.4340897,-8.022891998,-0.450135231,5.754328728,-5.740972519,-2.551217556,0.939787805, 
609,2293504415,-5.004283905,54.61231995,-101.3720474,-7.932252407,-0.389463186,5.531126499,-7.800214291,-4.3096385,2.460484505, 
610,2293521082,-5.122750282,54.52485657,-101.2926712,-7.747398853,-0.384320259,5.279585361,-9.641245842,-3.854424715,3.115427732, 
611,2293537749,-5.234106064,54.46710205,-101.2443466,-7.665753841,-0.755797565,5.153226376,-7.725337505,-1.994852185,2.204140186, 
612,2293554416,-5.299207211,54.43825531,-101.2250519,-7.691588402,-0.828353405,5.144157887,-3.088436842,-0.125009179,1.06001997, 
613,2293571083,-5.34781599,54.42169952,-101.2179947,-7.824669838,-0.641916335,5.36713028,-1.010036826,0.705918074,0.379791528, 
614,2293587750,-5.432225704,54.39946747,-101.2586823,-7.93346405,-0.470000058,5.458422184,-2.467104912,0.318461925,-0.244434804, 
615,2293604417,-5.633390903,54.36727142,-101.298233,-7.936924458,-0.522718906,5.463716507,-8.652376175,-0.169754624,-0.847057045, 
616,2293621084,-5.896665573,54.33569717,-101.3960648,-7.90851593,-0.641874313,5.285162926,-12.6657629,-0.327221632,-0.834609509, 
617,2293637751,-6.128537178,54.3140831,-101.4640274,-7.856600761,-1.008523464,5.171701908,-10.37624073,0.405577302,-0.966668546, 
618,2293654418,-6.24318552,54.31265259,-101.5061722,-7.775667191,-1.099699974,5.091255665,-2.75120759,1.763895512,-1.153141499, 
619,2293671085,-6.246212006,54.33259583,-101.5356369,-7.763080597,-1.169554234,5.213758945,5.022894382,3.218902111,-1.681313753, 
620,2293687752,-6.195000648,54.36244202,-101.6422272,-7.826849461,-0.710093856,5.429854393,8.325371742,3.596587181,-1.863330722, 
621,2293704419,-6.176259041,54.38254166,-101.6945953,-7.804776669,-0.522285998,5.567574978,5.463823318,3.044537067,-1.174675226, 
622,2293721086,-6.2446208,54.39842987,-101.7770157,-7.751298904,-0.521997154,5.522795677,-0.831823647,2.569434166,-0.590872228, 
623,2293737753,-6.372710705,54.4001236,-101.8262634,-7.647595882,-0.630383849,5.410603523,-4.665148735,1.781779647,-0.434237748, 
624,2293754420,-6.476023674,54.39510727,-101.8462296,-7.542313099,-0.698454976,5.290975094,-2.872329712,1.509382129,-0.598626435, 
625,2293771087,-6.511764526,54.39393997,-101.8474808,-7.554577827,-0.650331616,5.432619572,0.568819702,1.701746345,-0.130285412, 
626,2293787754,-6.544696808,54.38788223,-101.9052277,-7.747344494,-0.62277174,5.926071644,0.756996155,1.260413885,-0.335852951, 
627,2293804421,-6.615314007,54.35514069,-101.8682175,-7.996439457,-0.571856022,5.907628059,-2.198920727,-0.162173212,0.189572394, 
628,2293821088,-6.702672958,54.30221939,-101.9677658,-7.930203915,-0.996895134,5.492104053,-1.601696491,-1.507505774,-1.389956355, 
629,2293837755,-6.70290041,54.24307632,-102.0295868,-7.797715664,-0.520105004,5.210539341,5.623563766,-1.490294337,-2.637884378, 
630,2293854422,-6.607671261,54.19535065,-102.1622391,-7.705788136,-0.182712257,5.087185383,10.64007092,-1.113519073,-2.308736324, 
631,2293871089,-6.507828712,54.1686821,-102.2957001,-7.74444294,-0.984535754,5.104892731,10.56529522,0.079745173,-1.946610808, 
632,2293887756,-6.235955238,54.11960983,-102.3079758,-7.935498238,-1.215522289,5.796521187,22.56900406,-0.712271214,-2.882080793, 
633,2293904423,-5.993085384,54.02462387,-102.4782867,-7.953951836,-0.424922287,6.121151447,22.43165398,-3.683593273,-4.670016289, 
634,2293921090,-5.718601227,53.91654587,-102.8341141,-7.756415367,-0.301741242,5.881597996,22.89746094,-5.181062698,-4.297768593, 
635,2293937757,-5.469127178,53.7737236,-102.7715759,-7.570086479,0.004073866,5.984589577,20.41561699,-6.219670296,-2.697943449, 
636,2293954424,-5.354410172,53.68147278,-102.8324203,-7.509545803,-0.480336964,5.494303226,10.56129265,-3.769473791,-1.542589545, 
637,2293971091,-5.112006664,53.62729645,-102.9096069,-7.610479832,-1.270640492,5.656049252,19.53056335,-1.377657771,-2.254215479, 
638,2293987758,-4.758802891,53.58756638,-102.9979095,-7.650568485,-0.911664784,5.926760674,26.82845879,-0.47532177,-2.63186574, 
639,2294004425,-4.409483433,53.53193283,-103.0758362,-7.703766823,-0.348297089,5.83967638,26.08212471,-1.469102979,-2.322058916, 
640,2294021092,-4.126002312,53.48265457,-103.1204834,-7.540770531,-0.511244357,5.428694248,20.49086571,-1.194469094,-1.080249071, 
641,2294037759,-3.786456347,53.46443176,-103.1590881,-7.679856777,-1.414752722,5.432507038,23.57759857,0.643315375,-0.734989762, 
642,2294054426,-3.407670736,53.43947601,-103.2458496,-7.8291502,-1.177785754,6.10495472,28.26082611,0.342852592,-2.466106653, 
643,2294071093,-3.174876928,53.40841293,-103.3521423,-7.759980202,-0.429881066,6.119091988,20.45014572,0.011205574,-3.178342104, 
644,2294087760,-3.046494007,53.39003754,-103.4165649,-7.732672215,-0.31379348,5.537299633,12.16674328,0.682809293,-1.641512275, 
645,2294104427,-2.924324512,53.40859222,-103.453331,-7.775200367,-0.755575478,5.304074287,10.45870686,2.838144779,-0.537578821, 
646,2294121094,-2.816156864,53.43419647,-103.4724808,-7.727159023,-0.140954524,5.36186409,8.768509865,3.223551035,0.115398049, 
647,2294137761,-2.77953124,53.48983383,-103.4580002,-7.747264862,-0.265169263,5.054593086,2.847601175,4.956678867,1.39918983, 
648,2294154428,-2.794643879,53.57291031,-103.4191818,-7.786950111,-0.096738085,5.120667458,-1.442142606,6.551550388,2.348236799, 
649,2294171095,-2.889041424,53.66271591,-103.3571014,-7.940359116,-0.531578064,5.227183342,-7.336677551,6.902304649,3.199104071, 
650,2294187762,-2.985890388,53.74001694,-103.2814026,-7.879434109,-0.456836492,5.428331852,-8.149489403,6.116309166,3.650650024, 
651,2294204429,-3.094616652,53.78910065,-103.1983185,-7.906891346,-0.518323481,5.571492672,-9.224142075,4.40126276,3.825181723, 
652,2294221096,-3.236906528,53.82151413,-103.1214905,-7.773994446,-0.406531543,5.597143173,-10.9397459,3.405696392,3.552585363, 
653,2294237763,-3.343810797,53.84031677,-103.0568085,-7.798346996,-0.404931545,5.509187698,-8.233920097,2.608058453,3.080830574, 
654,2294254430,-3.420667171,53.86058807,-102.9923325,-7.681419373,-0.16883561,5.519392014,-6.424114227,2.687931299,3.077116489, 
655,2294271097,-3.490586996,53.89823914,-102.9307861,-7.828947067,-0.232712612,5.548193932,-5.873748302,3.729523182,3.033536673, 
656,2294287764,-3.57638669,53.93358231,-102.88134,-8.018663406,-0.536038756,5.627904892,-6.250370502,3.613382816,2.600540876, 
657,2294304431,-3.59229064,53.94045258,-102.8432541,-8.149085045,-0.772082925,5.919046879,-1.507364869,1.928175211,2.094222307, 
658,2294321098,-3.557552099,53.92274857,-102.8325958,-7.932404518,-0.622154057,5.66004324,2.865798712,0.518433094,1.03427279, 
659,2294337765,-3.513750792,53.89757538,-102.8438416,-7.877237797,-0.229179397,5.436279774,4.472700596,0.120142765,0.23491326, 
660,2294354432,-3.484008789,53.87808228,-102.8607635,-7.921136856,0.030451138,5.358241081,3.898739815,0.46896854,0.053107936, 
661,2294371099,-3.492434263,53.8655014,-102.8669128,-7.944722652,-0.113179915,5.346264839,1.080087543,0.853325486,0.454638213, 
662,2294387766,-3.503423929,53.84654999,-102.8620071,-7.911300659,-0.14085336,5.480270386,0.378088236,0.439136118,0.821892321, 
663,2294404433,-3.527807236,53.82222366,-102.8507843,-7.882106781,-0.092454672,5.544912338,-0.744689167,0.099050716,1.026486635, 
664,2294421100,-3.600048542,53.78937531,-102.8459396,-7.859286308,-0.110662527,5.565387726,-3.321409941,-0.400332868,0.771159887, 
665,2294437767,-3.673438311,53.74685669,-102.8498077,-7.883327484,-0.102377735,5.620149612,-2.965304136,-0.964260638,0.413107306, 
666,2294454434,-3.764580965,53.69471359,-102.8659134,-7.918923855,0.045269109,5.641427994,-3.452201605,-1.514498353,-0.058890004, 
667,2294471101,-3.87038064,53.6399231,-102.8740158,-7.837965488,0.04418201,5.565238476,-4.713012218,-1.692788243,0.193632007, 
668,2294487768,-3.999068975,53.57447433,-102.8513718,-7.778443336,-0.046928741,5.708636761,-7.590388298,-2.411269665,1.238585591, 
669,2294504435,-4.250779152,53.49344254,-102.7999878,-7.731534481,0.284077495,5.850300312,-16.36515999,-3.420079708,2.177421093, 
670,2294521102,-4.447034836,53.40917969,-102.6765213,-7.760206699,-0.169724524,5.688996315,-16.50213242,-3.818031311,4.694236279, 
671,2294537769,-4.636788845,53.33161163,-102.5175934,-7.765590668,0.227527186,5.670294762,-17.7752285,-3.529312611,5.949081898, 
672,2294554436,-4.830303669,53.25295639,-102.362381,-7.945657253,-0.512367904,5.628651142,-17.85132027,-3.610319376,5.816043377, 
673,2294571103,-4.90203476,53.16954422,-102.185936,-8.035083771,-0.338259459,5.554327488,-11.69757652,-3.992733955,6.644412518, 
674,2294587770,-4.898358822,53.07523346,-101.9848099,-8.093029022,0.148078874,5.57760334,-8.261911392,-4.719507217,7.417684555, 
675,2294604437,-5.001144886,52.96826935,-101.8185577,-8.123953819,-0.462838113,5.450051308,-13.08257389,-5.396491051,6.178543568, 
676,2294621104,-4.888639927,52.84775543,-101.5830841,-8.093322754,0.297665358,5.546103001,-3.371932507,-6.419307232,8.551392555, 
677,2294637771,-5.019486904,52.75174332,-101.3927078,-8.133508682,0.449568093,5.126452923,-16.09077072,-4.862929821,7.253065109, 
678,2294654438,-5.314594746,52.66249466,-101.2490616,-8.3491745,-0.376010925,5.078307152,-23.64052391,-4.337167263,5.527782917, 
679,2294671105,-5.673852921,52.57675552,-101.14431,-8.474819183,0.263795525,4.988048077,-28.26519394,-4.3722229,5.96000433, 
680,2294687772,-6.14653492,52.49270248,-100.9648895,-8.637709618,0.069584936,4.763836861,-34.81233978,-4.105458736,5.957373619, 
681,2294704439,-6.711695194,52.41331482,-100.831337,-8.657036781,-0.352160007,4.590452671,-39.88673401,-3.951857328,5.475008488, 
682,2294721106,-7.283369064,52.3394928,-100.6476288,-8.615668297,-0.283887386,4.371001244,-40.88148117,-3.656606197,6.035918713, 
683,2294737773,-7.915275574,52.28506088,-100.480835,-8.717568398,-0.277586162,4.212571144,-44.63527679,-2.651944876,6.186644554, 
684,2294754440,-8.658967972,52.24449158,-100.3196793,-9.058279991,-0.791281581,4.00442028,-51.293293,-1.931382179,6.202064991, 
685,2294771107,-9.431962967,52.20280838,-100.1411285,-9.171758652,-0.70880723,3.971583843,-53.859478,-2.2033813,6.767465591, 
686,2294787774,-10.47724438,52.16999435,-100.0021362,-9.01017189,-0.337831348,3.880817413,-68.36158752,-1.56833005,5.394079208, 
687,2294804441,-11.77304459,52.15631104,-99.93987274,-8.90362072,-1.129413962,3.866066456,-79.77771759,-0.033380501,2.781524897, 
688,2294821108,-13.1287241,52.16128922,-99.95304108,-8.742387772,-1.435076714,4.005539417,-79.81098175,1.574307203,0.283359647, 
689,2294837775,-14.37222385,52.21240234,-99.98361969,-8.449659348,-1.789727688,3.894257545,-72.26934814,4.392364025,0.328975588, 
690,2294854442,-15.38343525,52.32053375,-100.0311356,-8.058110237,-1.993096113,3.811342716,-57.53138733,7.836202621,0.670721352, 
691,2294871109,-16.13978195,52.50588608,-100.0653152,-7.933068275,-1.754557371,3.8400774,-42.87172318,12.13842106,2.509607077, 
692,2294887776,-16.75265694,52.75694275,-100.0761948,-7.880096436,-1.423490167,4.192762852,-35.3733902,15.63430023,4.57621336, 
693,2294904443,-17.34674454,53.08349609,-100.0697937,-7.399487019,-1.454817057,4.155306816,-35.08409882,19.72223473,6.657054901, 
694,2294921110,-17.87335205,53.50764847,-100.053978,-7.128108025,-1.952891231,4.739942074,-31.49685097,25.13010406,8.925848961, 
695,2294937777,-18.40709496,54.01327133,-100.0510559,-6.967808723,-2.084868193,5.399178505,-31.3048687,29.84491158,10.22899628, 
696,2294954444,-18.85819817,54.5972023,-100.031517,-6.406687737,-2.572088957,5.737658024,-27.14768982,34.04026794,12.51797581, 
697,2294971111,-19.13261986,55.22248459,-99.98101807,-6.189678192,-2.586692095,6.356899738,-18.0551548,35.99341202,14.53298092, 
698,2294987778,-19.21533585,55.84349823,-99.84212494,-6.176713467,-2.559312344,6.768447876,-10.92009068,34.76867676,17.3624649, 
699,2295004445,-19.12509346,56.42316055,-99.60598755,-6.245830536,-2.855648994,6.930336475,-5.41261673,31.42590141,19.54483223, 
700,2295021112,-19.02002144,56.94737625,-99.32032013,-6.574246883,-3.104668617,7.109046459,-7.05142355,27.86526871,19.83960915, 
701,2295037779,-18.99192429,57.38686752,-99.01328278,-6.888716698,-3.108671427,7.346698284,-12.78741837,22.94233513,18.69295502, 
702,2295054446,-19.01737595,57.72245026,-98.69805908,-7.009921074,-3.351511002,7.281394958,-16.4480629,17.04562759,16.81173134, 
703,2295071113,-19.03510475,57.9474678,-98.39995575,-7.127316475,-3.404798985,7.025089264,-15.1231451,11.02084637,14.06438446, 
704,2295087780,-18.99056053,58.05970383,-98.14337158,-7.227952003,-3.467260838,6.641961575,-9.26362133,5.117900848,10.57051659, 
705,2295104447,-18.91554642,58.05488586,-97.9684906,-7.429877281,-3.242807627,6.601489544,-3.244501352,-0.626601934,5.826524258, 
706,2295121114,-18.87519646,57.94309235,-97.9082489,-7.530092239,-3.368279934,6.51284647,0.550116062,-5.478608131,0.312007517, 
707,2295137781,-18.86494255,57.72405243,-97.95716858,-7.632433891,-3.175718546,6.557677746,4.328362942,-10.40625381,-5.054783821, 
708,2295154448,-18.95273399,57.41067886,-98.10961914,-7.668609142,-2.972169638,6.581120014,3.718199253,-14.63712788,-10.05821228, 
709,2295171115,-19.12521935,57.01049042,-98.34886169,-7.53983736,-3.013815403,6.497862339,3.009261131,-18.56645012,-14.50489712, 
710,2295187782,-19.32695198,56.52436829,-98.65257263,-7.433474541,-2.939984798,6.539185047,4.459216118,-22.62403297,-18.36108208, 
711,2295204449,-19.54086494,55.96441269,-98.99156189,-7.245474815,-2.903358459,6.383236885,5.423754215,-26.26169777,-21.16607094, 
712,2295221116,-19.74796486,55.34152985,-99.34438324,-7.134486198,-2.880246401,6.417462349,6.425118446,-29.48833466,-23.14652252, 
713,2295237783,-19.98997307,54.68107605,-99.70785522,-6.969731808,-2.990263939,6.316792965,4.743876457,-31.2945652,-24.56887627, 
714,2295254450,-20.27236176,53.98942566,-100.0827103,-6.904556274,-2.907610893,6.404302597,2.748816729,-32.69353104,-25.93743706, 
715,2295271117,-20.62897491,53.27811813,-100.453392,-6.795492172,-2.830804825,6.112313271,-2.04659605,-33.59387589,-26.61868286, 
716,2295287784,-21.05886269,52.57286453,-100.8346634,-6.643118382,-2.975227594,5.940989971,-6.084105968,-32.82618332,-27.29957962, 
717,2295304451,-21.64620781,51.88538742,-101.2585297,-6.621132851,-2.807494402,6.225701809,-13.66091061,-30.91063309,-28.88649559, 
718,2295321118,-22.42393494,51.20104218,-101.6632614,-6.73600769,-2.642414808,6.388622761,-26.15821838,-30.53510475,-28.76834106, 
719,2295337785,-23.3565979,50.54688263,-102.0018234,-6.655990601,-2.219325066,5.98535347,-38.70360947,-29.29199028,-26.44785118, 
720,2295354452,-24.52315331,49.93068314,-102.2698059,-6.879818439,-2.140986681,5.60387373,-56.13760376,-27.72729492,-23.77775383, 
721,2295371119,-25.87255669,49.35161591,-102.4619293,-6.962943077,-2.482403517,5.21442318,-70.69198608,-26.36653709,-20.92597771, 
722,2295387786,-27.19740486,48.82741165,-102.5524292,-7.011415482,-2.447908401,5.162261486,-73.90260315,-24.66255951,-16.61297417, 
723,2295404453,-28.53761673,48.3686676,-102.5638962,-6.945221424,-1.87187314,5.154433727,-78.42298126,-22.24048615,-12.6479311, 
724,2295421120,-29.90748024,48.00304794,-102.5111313,-6.959786892,-2.049031734,5.002679825,-83.09551239,-18.30814743,-8.248988152, 
725,2295437787,-31.14578629,47.68850327,-102.3772736,-7.307311535,-2.624318361,5.074377537,-78.81748199,-17.14467812,-4.328005791, 
726,2295454454,-32.2082634,47.43853378,-102.151062,-7.307489395,-2.14669013,4.428345203,-72.34488678,-15.73833561,0.532799363, 
727,2295471121,-33.0613327,47.26067352,-101.8426895,-7.694624901,-2.365667105,4.480797768,-63.39056396,-13.93935585,5.412152767, 
728,2295487788,-33.77294159,47.13401413,-101.5244675,-7.872384071,-2.82427597,4.577340126,-55.33211136,-11.71214294,7.25351572, 
729,2295504455,-34.5646286,47.02577209,-101.2863617,-7.838263988,-2.921101093,4.891361713,-56.60243225,-9.08535099,5.006642818, 
730,2295521122,-35.72410965,46.95569229,-101.1969223,-7.799900532,-2.99248457,4.933758259,-72.15419769,-3.818488598,1.177584767, 
731,2295537789,-37.12571716,46.92331696,-101.2555695,-7.847539902,-4.354415894,4.119065762,-80.20207977,1.569767475,-2.488535166, 
732,2295554456,-38.3841629,46.92295837,-101.3439636,-7.761713028,-3.886225462,4.271380424,-70.30825043,3.888248682,-2.274921417, 
733,2295571123,-39.44270706,46.8854866,-101.3677673,-7.950620174,-3.313292503,4.09388876,-61.15175629,0.531412959,-1.568862796, 
734,2295587790,-40.63249207,46.79807663,-101.4339905,-7.954446316,-2.744470596,4.073858738,-67.18889618,-0.627149761,-4.854964733, 
735,2295604457,-42.00678635,46.64796066,-101.5305405,-8.088986397,-3.638077736,4.985085964,-76.96590424,-2.534622431,-8.340849876, 
736,2295621124,-43.44187927,46.43546677,-101.6405106,-8.060667038,-4.323070049,4.446810722,-80.06278229,-4.698194981,-11.40238667, 
737,2295637791,-44.90376282,46.19374466,-101.8490295,-7.547560215,-5.635185242,3.701349497,-77.41840363,-2.808033466,-15.72772312, 
738,2295654458,-46.18784332,45.93562317,-102.1003799,-7.145848751,-5.402513027,3.944959164,-64.92597198,-1.80977118,-17.8034668, 
739,2295671125,-47.44798279,45.64076614,-102.3320084,-7.401219368,-4.604028225,4.413902283,-64.37641907,-3.475032568,-18.95216179, 
740,2295687792,-48.86185074,45.30734253,-102.5645981,-7.422338009,-4.370148659,4.759960175,-73.61859894,-4.499220371,-20.85577774, 
741,2295704459,-50.34647751,44.9593811,-102.7901535,-7.165196896,-5.318120956,4.024125099,-78.2377243,-4.710976601,-21.52130127, 
742,2295721126,-51.71010208,44.62744141,-103.0087585,-6.881510735,-6.368554115,3.588038206,-71.32806396,-3.746531725,-20.77546501, 
743,2295737793,-52.7647438,44.32495117,-103.3281403,-6.863975048,-6.85620451,3.306085587,-48.58864975,1.243464231,-22.1527729, 
744,2295754460,-53.2983284,44.08073425,-103.5615387,-6.096562386,-6.366580486,3.662124872,-20.96258163,0.764707506,-17.16988182, 
745,2295771127,-53.7041626,43.86674881,-103.8345947,-6.514345169,-5.966441631,3.910549641,-11.67016125,3.41222477,-16.75208664, 
746,2295787794,-54.15625381,43.65346909,-104.1412125,-6.41627121,-5.648384094,3.780210257,-13.09077549,4.781457424,-17.58243179, 
747,2295804461,-54.55524445,43.49172211,-104.4102478,-6.282551289,-6.770340919,3.615743399,-11.50082111,5.427228928,-14.11682892, 
748,2295821128,-54.61230087,43.38391495,-104.7147903,-6.177984715,-6.865653992,3.331834078,10.46899223,8.656621933,-12.36633778, 
749,2295837795,-54.15283966,43.37605286,-104.8982162,-6.126214027,-6.268612862,3.934079409,36.47587967,7.834725857,-4.440956593, 
750,2295854462,-53.40463257,43.42216492,-105.0632172,-6.428792953,-5.513419151,4.180241108,53.05160141,9.056967735,-1.411146283, 
751,2295871129,-52.57106018,43.52617645,-105.1437302,-6.191454887,-5.624044418,4.043381214,54.69178772,8.178459167,3.480732918, 
752,2295887796,-51.65781403,43.69909668,-105.2088165,-6.461250305,-4.932317257,3.98481226,58.8425293,10.23171902,7.060647011, 
753,2295904463,-50.78576279,43.94154358,-105.2092819,-6.369298935,-5.444010258,3.791265249,53.69057465,10.75193787,11.93534756, 
754,2295921130,-49.5785141,44.22909546,-105.174614,-6.826720715,-5.490296364,4.148230553,72.33890533,11.52730465,14.81664276, 
755,2295937797,-47.85792542,44.59585953,-104.9745483,-6.579360962,-4.973065853,3.807903528,96.18452454,9.701755524,22.80287743, 
756,2295954464,-45.95447159,44.99818039,-104.7561493,-7.117300987,-3.658469677,4.355397224,106.324234,11.32507038,24.5899868, 
757,2295971131,-44.53208923,45.36800385,-104.5634079,-7.358699799,-2.958933115,5.014984608,78.46662903,11.44071007,22.10052299, 
758,2295987798,-43.61317444,45.68813324,-104.3765793,-7.526930332,-3.863199711,5.430208206,48.43085861,9.923520088,19.59871292, 
759,2296004465,-42.8275528,45.98348618,-104.1617661,-7.304868698,-4.460323811,4.937057018,39.16424942,8.339905739,19.26885605, 
760,2296021132,-41.93507385,46.28227234,-103.9235458,-7.254693508,-4.477163315,4.586956978,44.51037216,8.136949539,19.98748398, 
761,2296037799,-40.92570114,46.57534027,-103.7001266,-7.12113142,-4.422272682,4.472439766,52.11397552,8.635577202,19.15232086, 
762,2296054466,-40.22016907,46.8117485,-103.5205612,-7.621635437,-3.142985344,5.445529461,35.75402832,7.527465343,15.4291296, 
763,2296071133,-39.96673965,46.98207474,-103.3557129,-7.601189613,-3.77536273,5.341129303,9.223301888,5.014195919,12.33619404, 
764,2296087800,-39.716362,47.13392639,-103.1592331,-7.299063683,-4.846860409,4.626889229,7.618074417,3.39127183,12.58348465, 
765,2296104467,-39.26428986,47.31717682,-102.9422302,-7.329717636,-4.146018028,4.533603191,18.80027771,4.403888702,14.39833069, 
766,2296121134,-38.60971069,47.52561951,-102.7134857,-7.552754879,-4.133624554,4.702771664,30.39505959,5.425170422,15.67038345, 
767,2296137801,-37.86620712,47.75468826,-102.4643097,-7.783949852,-3.557606936,5.106956005,34.79175949,6.089151859,17.00233459, 
768,2296154468,-37.30869293,47.97203445,-102.1798248,-7.768936634,-3.126820326,5.43321085,22.0074482,4.866253853,17.61411476, 
769,2296171135,-36.98080063,48.15334702,-101.8460617,-7.784338474,-3.451901197,5.635414124,5.971282005,2.096715689,17.81536293, 
770,2296187802,-36.76974487,48.31136703,-101.4853363,-7.67046833,-3.343414068,5.191878319,-2.296833992,0.435448378,17.79647064, 
771,2296204469,-36.57239151,48.46654892,-101.1619797,-7.670279026,-3.85888648,4.954295635,-1.493618727,1.268681407,16.46544075, 
772,2296221136,-36.33709335,48.63591385,-100.902359,-7.796852112,-3.873736143,5.094963074,3.60693121,3.535625219,14.90365219, 
773,2296237803,-36.20335388,48.73490524,-100.6307373,-8.011512756,-2.937920809,5.462738514,-3.05336833,-0.092436284,12.76120758, 
774,2296254470,-36.40699387,48.79763031,-100.4023895,-7.429736137,-3.494917631,4.96400404,-21.37851524,-0.840482354,10.06784058, 
775,2296271137,-36.57377243,48.84851456,-100.2145615,-7.426423073,-4.128000259,4.476681232,-17.35208702,-0.488831788,8.344558716, 
776,2296287804,-36.57130051,48.91145706,-100.0927811,-7.207238674,-4.209123135,4.352390289,-4.213033676,1.635697722,6.673780441, 
777,2296304471,-36.49093628,48.98390961,-100.080574,-7.373253822,-3.781703711,4.528807163,5.419948578,4.67196846,3.541090965, 
778,2296321138,-36.49201584,49.04240417,-100.1833496,-7.653030396,-3.683932781,5.013348103,5.741734028,6.688815117,-0.595059991, 
779,2296337805,-36.65073395,49.08543015,-100.3482285,-7.541355133,-4.175789356,4.926766396,-0.903091133,7.393868446,-3.099572659, 
780,2296354472,-36.80241394,49.12250137,-100.4672012,-7.411539078,-4.442158222,4.833798409,-2.552024126,6.037304878,-1.84593308, 
781,2296371139,-36.87935257,49.16326904,-100.5205994,-7.445673943,-3.623788595,4.783934116,-1.03043735,4.677999973,0.359378248, 
782,2296387806,-37.06642914,49.17567062,-100.5688248,-7.633340836,-3.357591152,5.143743038,-7.875535011,3.19406414,-0.49406904, 
783,2296404473,-37.46551132,49.16139221,-100.6220779,-7.791169167,-3.122184515,5.19302845,-20.37780952,2.038984776,-1.614024878, 
784,2296421140,-38.08853149,49.11575317,-100.6778107,-7.760306835,-3.468187094,5.006759167,-33.71722412,0.624753952,-2.844417334, 
785,2296437807,-38.74150467,49.03772736,-100.7116547,-7.550340652,-4.353888035,4.632770538,-36.5163765,-1.399625182,-3.394031525, 
786,2296454474,-39.25210953,48.96033478,-100.7194366,-7.319326878,-4.118600845,4.564038754,-29.15307808,-1.974565625,-2.60333395, 
787,2296471141,-39.64527893,48.89196396,-100.711998,-7.384271145,-3.921269894,4.762392521,-22.79293823,-1.912388563,-1.821540236, 
788,2296487808,-40.08763885,48.81251526,-100.6981506,-7.414220333,-3.29087925,4.929434299,-26.03372955,-2.568370581,-2.082022667, 
789,2296504475,-40.74875259,48.72694016,-100.6899033,-7.284678936,-3.620428801,4.850824833,-38.91654968,-2.685352087,-2.534223557, 
790,2296521142,-41.53535461,48.63597488,-100.6902466,-7.304210186,-4.161690235,4.733809471,-46.07071304,-2.669541836,-3.055938005, 
791,2296537809,-42.27698135,48.55922318,-100.7049561,-7.265877247,-4.793926716,4.37181282,-42.72285461,-1.60471034,-2.97157979, 
792,2296554476,-42.73748016,48.51978683,-100.7348862,-7.063830853,-5.048967838,4.140103817,-25.16443253,0.494332641,-1.932828307, 
793,2296571143,-42.95819855,48.52248383,-100.7913437,-7.037667274,-4.655468464,4.183615208,-9.571943283,3.083507299,-0.991416693, 
794,2296587810,-43.01644135,48.54803848,-100.8521347,-7.162913322,-4.435364246,4.343412399,0.381738037,4.211630344,-0.176369041, 
795,2296604477,-43.05171967,48.58319473,-100.9027863,-7.265873432,-4.138933182,4.415369034,1.307048082,4.357597351,0.51639694, 
796,2296621144,-43.15118408,48.6089592,-100.9342804,-7.326873779,-4.4534688,4.486392021,-3.407090664,3.423899174,0.689282537, 
797,2296637811,-43.30584335,48.61839676,-100.9356995,-7.446382523,-4.274038315,4.548986435,-8.071792603,1.892490864,0.890752316, 
798,2296654478,-43.53734207,48.61008072,-100.9109268,-7.578473091,-4.100034714,4.436086178,-13.86298466,0.403048098,0.914201081, 
799,2296671145,-43.81261444,48.58005524,-100.8691788,-7.615781784,-4.002961636,4.2491045,-17.25922394,-1.011177659,0.493922204, 
800,2296687812,-44.10829163,48.5423851,-100.8410187,-7.619848251,-3.82700634,3.944357634,-17.87709236,-0.976229131,-0.226595804, 
801,2296704479,-44.4449234,48.48755646,-100.8226395,-7.83081007,-3.799644947,4.025691986,-19.90091133,-1.448880434,-1.239483476, 
802,2296721146,-44.8976326,48.40255356,-100.8269653,-8.142499924,-4.314096451,4.075870991,-25.85740852,-2.103800535,-3.178460598, 
803,2296737813,-45.26689911,48.30370331,-100.8125229,-8.160964966,-4.674485683,3.544934034,-21.69747734,-3.204128742,-3.267046452, 
804,2296754480,-45.45221329,48.22081757,-100.774353,-8.267746925,-3.837917328,3.491557598,-11.71980095,-3.200231552,-1.942929029, 
805,2296771147,-45.5114975,48.16669083,-100.7418747,-8.350319862,-3.518761158,3.545024395,-3.91118741,-1.843640566,-0.886148214, 
806,2296787814,-45.518116,48.09891129,-100.710556,-8.585403442,-3.122095585,4.124650478,-0.714479029,-2.408144474,-1.508050084, 
807,2296804481,-45.65151978,48.02290726,-100.665802,-8.54852581,-2.652580976,4.031792164,-8.945282936,-3.162074327,-1.495634675, 
808,2296821148,-45.92947006,47.95384979,-100.6186371,-8.428243637,-2.847365141,4.09118557,-17.75618172,-2.96574235,-1.156318545, 
809,2296837815,-46.31878662,47.91148758,-100.5523758,-8.479589462,-3.350422144,3.828258038,-25.3153801,-2.425822735,0.496048689, 
810,2296854482,-46.67368317,47.92635727,-100.4613266,-8.42310524,-3.633123875,3.36235857,-24.37588882,-0.808453739,3.642421722, 
811,2296871149,-46.93331146,48.02035141,-100.3349075,-8.539148331,-3.309102058,3.433778048,-20.25237846,1.368315935,8.051397324, 
812,2296887816,-47.14063644,48.16576385,-100.1134033,-8.286103249,-3.045673847,3.788362503,-21.39181137,0.633460999,12.89008617, 
813,2296904483,-47.3767395,48.34616089,-99.7995224,-8.223182678,-3.227399826,4.294378281,-27.3057785,-0.701790571,16.90441322, 
814,2296921150,-47.67982101,48.59088135,-99.42300415,-8.173977852,-3.950624466,4.039749622,-34.21024704,0.010802219,21.37691116, 
815,2296937817,-48.00027847,48.9405365,-99.00187683,-7.506244659,-4.244929314,3.811655998,-37.36037064,2.868419647,27.15405083, 
816,2296954484,-48.3703537,49.41146088,-98.56890869,-7.19556427,-4.525639057,3.486404181,-40.99863815,7.313899994,32.79736328, 
817,2296971151,-48.56664276,50.01796722,-98.18047333,-6.64085722,-5.693598747,3.309715986,-28.69300079,13.97905254,37.64775848, 
818,2296987818,-48.52824402,50.72093964,-97.85958099,-6.388836861,-5.598388195,4.291669369,-11.63881874,19.86635208,40.16044235, 
819,2297004485,-48.31323624,51.48787308,-97.55992126,-6.441747665,-6.077435017,4.852035522,-0.19456847,23.26473808,42.33999252, 
820,2297021152,-47.94934082,52.28742599,-97.29668427,-6.558614731,-6.56560564,5.392771244,10.32665539,25.96326256,42.6656189, 
821,2297037819,-47.52792358,53.04332352,-97.01363373,-6.821074486,-6.731154919,5.268249512,12.7256813,24.11931992,40.94180679, 
822,2297054486,-47.10153198,53.70874786,-96.69194794,-7.04486227,-6.926468372,4.761547565,11.06476879,19.88215446,37.61733246, 
823,2297071153,-46.73799515,54.27220535,-96.38059998,-7.500109196,-6.473535538,4.444382668,7.710375309,16.3829422,32.67499161, 
824,2297087820,-46.48332596,54.75004959,-96.1295929,-7.811168671,-6.256620407,4.109430313,4.057161331,14.67973328,27.33382034, 
825,2297104487,-46.33906174,55.14520645,-95.98208618,-8.138906479,-5.984572887,3.903693676,2.483636856,14.02410507,21.18293381, 
826,2297121154,-46.25076294,55.49055862,-95.99247742,-8.386407852,-5.77742815,3.52989459,6.907969952,15.94701481,15.24995136, 
827,2297137821,-46.07582092,55.81521606,-96.18422699,-8.64248085,-5.531489372,3.13530612,21.1200161,19.55808258,10.08057117, 
828,2297154488,-45.74153137,56.13349152,-96.55168152,-8.861164093,-4.987556934,3.233828545,39.47968674,23.53751373,5.667320251, 
829,2297171155,-45.34720993,56.42187881,-97.04728699,-9.175001144,-4.184446812,3.435942888,49.55843735,25.29348755,1.334660172, 
830,2297187822,-45.02432251,56.68682861,-97.65543365,-9.095417976,-3.865392447,3.33455658,50.9851265,26.85619545,-2.347187996, 
831,2297204489,-44.78529739,56.92978287,-98.38291168,-9.082195282,-3.846613646,3.181513309,52.03364563,28.57160568,-6.080404282, 
832,2297221156,-44.62287521,57.16255569,-99.22544861,-9.093512535,-3.618386745,3.17184639,53.32904434,30.6414814,-9.164604187, 
833,2297237823,-44.59505844,57.42075348,-100.2115936,-9.03276825,-3.610122442,3.065277338,52.61699677,34.84566498,-11.32109165, 
834,2297254490,-44.85599518,57.58066177,-101.5246429,-7.91551733,-3.879992723,2.859036922,51.95280838,37.96080017,-22.7583313, 
835,2297271157,-45.06043243,57.87058258,-102.8559265,-10.43030739,-3.409718513,2.956627369,56.44050217,43.80412292,-17.31666565, 
836,2297287824,-45.41231537,58.15627289,-104.3324127,-8.930932045,-3.276919365,3.155118704,55.18772888,46.72719955,-20.30119705, 
837,2297304491,-45.87765503,58.52466202,-105.9684143,-10.25428009,-3.262883186,3.655951738,56.78620529,53.62098312,-19.63747787, 
838,2297321158,-46.43774033,58.7541008,-107.7362671,-10.56439686,-3.545262814,3.235747814,58.11085892,50.67007828,-27.72768211, 
839,2297337825,-47.1517334,58.99480438,-109.5738754,-9.337200165,-3.136767387,3.048110485,52.67585754,52.73601151,-27.91366386, 
840,2297354492,-48.04336166,59.20412064,-111.5356369,-9.264820099,-3.449011564,2.596735001,48.62376022,54.40216446,-30.90298653, 
841,2297371159,-49.06517792,59.39274216,-113.6138687,-9.459347725,-3.541803598,2.189176321,47.02591705,56.49899292,-33.07064438, 
842,2297387826,-50.13882065,59.58734894,-115.8130569,-9.561020851,-3.685699463,2.200646162,50.37918472,59.85697174,-33.92963028, 
843,2297404493,-51.23832321,59.76272964,-118.1313858,-9.501896858,-3.791625977,2.305790424,55.21540833,62.26864243,-35.75582886, 
844,2297421160,-52.38043976,59.88750076,-120.5455017,-9.281638145,-3.699028015,2.452693939,57.81065369,63.10345078,-38.52809143, 
845,2297437827,-53.5322113,59.9655838,-122.9758606,-9.027908325,-3.434230089,2.807550907,58.19779587,62.39305496,-39.66850662, 
846,2297454494,-54.6517868,60.00664139,-125.3583832,-8.785482407,-3.256001234,3.095471144,57.71514511,60.60460281,-39.3283844, 
847,2297471161,-55.67563248,59.99959183,-127.5853424,-8.653925896,-2.868061781,3.31170702,55.38712311,55.83433151,-37.89145279, 
848,2297487828,-56.70923233,59.95107269,-129.6364746,-8.217173576,-2.776670933,3.072729349,45.62253571,50.79259109,-36.07186127, 
849,2297504495,-57.81291962,59.87800217,-131.5665283,-7.935263634,-2.892977715,3.312783003,35.05551529,47.70719528,-34.47351456, 
850,2297521162,-58.9734993,59.77616882,-133.30896,-7.928024769,-2.765785217,3.596258879,21.81030273,42.80257797,-32.14049149, 
851,2297537829,-60.2595787,59.66048813,-134.8669434,-7.789872169,-2.759687424,3.59181118,4.611361504,38.41286087,-29.23596191, 
852,2297554496,-61.63661957,59.54684067,-136.284256,-7.737865925,-2.964969397,3.417287111,-8.234631538,35.57119751,-26.27347755, 
853,2297571163,-62.96569061,59.4563942,-137.5570221,-7.702135086,-2.885306358,3.274545193,-12.91600037,33.06922913,-22.2484417, 
854,2297587830,-64.21723175,59.39870071,-138.7133331,-7.827144623,-2.783100605,3.270217896,-14.34316158,31.34786034,-18.23560715, 
855,2297604497,-65.30427551,59.36271667,-139.7352753,-8.300530434,-2.829378128,3.475771666,-11.4569273,28.61647606,-14.72422504, 
856,2297621164,-66.13889313,59.34481812,-140.5571594,-8.697130203,-2.652851343,3.630809307,-6.670678616,23.76464653,-10.78414059, 
857,2297637831,-66.73672485,59.34178925,-141.1504059,-8.97248745,-2.405561924,3.616604805,-4.293718338,17.8589077,-6.909969807, 
858,2297654498,-67.10036469,59.35388565,-141.4633484,-9.374211311,-2.276294231,3.540954351,-4.737838745,10.3856535,-2.595246315, 
859,2297671165,-67.24814606,59.37717056,-141.4445953,-9.667533875,-2.157573938,3.46152401,-8.941511154,1.304103017,1.977845192, 
860,2297687832,-67.20294189,59.40839767,-141.0753632,-9.708615303,-1.920771003,3.291471481,-15.49814892,-8.392971039,6.535324574, 
861,2297704499,-67.03955841,59.4757576,-140.3162842,-9.14161396,-1.554181933,2.800193548,-28.60074615,-18.49155807,13.1386261, 
862,2297721166,-66.92515564,59.54343796,-139.3141785,-8.759140015,-1.804795027,2.453303576,-44.17067337,-25.23081207,16.05685806, 
863,2297737833,-66.76507568,59.62955856,-138.0607452,-9.132964134,-1.736570358,2.477053642,-54.51347733,-31.72470284,20.08539963, 
864,2297754500,-66.51442719,59.71984863,-136.5444946,-8.795099258,-1.711138844,2.357076406,-62.78539276,-38.78354263,23.52359009, 
865,2297771167,-66.18268585,59.80320358,-134.8291626,-8.620242119,-1.744467616,2.361766338,-68.35085297,-44.24380493,25.68965149, 
866,2297787834,-65.72503662,59.88163376,-132.9234467,-8.516519547,-1.850521684,2.268493176,-70.78690338,-49.322258,27.99528122, 
867,2297804501,-65.12484741,59.97079086,-130.8306274,-8.450690269,-1.90379715,2.133338928,-72.06880951,-53.78548431,31.30716324, 
868,2297821168,-64.42182922,60.0787468,-128.556488,-8.253313065,-1.896235943,2.004983425,-75.46455383,-57.69824982,35.17016602, 
869,2297837835,-63.74203873,60.19885635,-126.1548233,-8.097053528,-2.246350765,1.974343777,-83.66766357,-60.17356491,38.08348083, 
870,2297854502,-63.05912781,60.30937576,-123.6381836,-8.037428856,-2.689338684,1.988780856,-89.63930511,-62.8080101,39.70280075, 
871,2297871169,-62.38970947,60.40570068,-121.046402,-7.859086514,-2.896209002,2.152204275,-94.52572632,-64.49256897,40.60411072, 
872,2297887836,-61.75037003,60.45016479,-118.4455185,-7.752445221,-3.35864234,2.28119874,-96.9212265,-65.56647491,38.65102386, 
873,2297904503,-61.10045624,60.41708755,-115.8658676,-7.746041298,-3.914022207,2.39353013,-95.19968414,-66.77388,35.00646973, 
874,2297921170,-60.55480576,60.2572937,-113.3715668,-7.8063097,-4.412612438,2.672985315,-96.88274384,-68.08045959,27.95878029, 
875,2297937837,-60.15994644,59.96510696,-111.005455,-7.725452423,-4.918385029,2.592692614,-98.96665192,-68.87010956,19.98991203, 
876,2297954504,-59.89696121,59.59588242,-108.7927475,-7.767843723,-5.224126339,2.281400204,-98.50582123,-67.64342499,14.44114399, 
877,2297971171,-59.72738266,59.23545074,-106.73069,-7.849143982,-5.375910759,2.259113312,-95.8830719,-63.95792007,13.22598076, 
878,2297987838,-59.61563492,58.95132828,-104.7992554,-7.880356312,-5.606411457,2.460864782,-92.25543213,-58.63661575,15.62077427, 
879,2298004505,-59.39292908,58.77625275,-102.9199677,-7.860006809,-6.051810265,2.612874746,-82.66260529,-54.19818115,20.82909203, 
880,2298021172,-58.8266449,58.67702866,-101.0277786,-7.42206049,-6.397006512,2.546268702,-62.54898071,-52.23700714,25.45982361, 
881,2298037839,-57.92368698,58.61299515,-99.13486481,-6.903650284,-6.191608429,2.339048147,-42.27112198,-50.9145813,28.04880524, 
882,2298054506,-56.77279663,58.56978989,-97.24446106,-6.652859211,-5.846114159,2.217036724,-27.17754555,-49.71887589,30.06225777, 
883,2298071173,-55.54095459,58.57053757,-95.38040924,-6.764984608,-5.709115505,2.100065708,-20.91944695,-46.94733047,32.89449692, 
884,2298087840,-54.23744583,58.65584946,-93.48349762,-7.23346138,-5.753509998,2.023808718,-18.31502724,-44.06049728,38.67421341, 
885,2298104507,-52.76994705,58.83515549,-91.45278931,-7.887343407,-6.036147594,2.178425312,-15.44477272,-42.92020798,46.65922928, 
886,2298121174,-50.98267365,59.06187057,-89.24191284,-8.314258575,-6.905609131,2.566309214,-5.702404976,-43.91123962,53.36675644, 
887,2298137841,-49.08281708,59.21907425,-86.89291382,-8.311594963,-5.97658968,3.513008118,-6.250831127,-47.81102371,54.11398315, 
888,2298154508,-48.03985977,59.13531494,-84.57374573,-8.160385132,-4.000264168,5.15648365,-56.14097977,-55.21871567,43.88452148, 
889,2298171175,-48.86397552,58.6493187,-82.45501709,-8.484064102,-2.859163761,5.261103153,-157.5219116,-66.92356873,22.21448898, 
890,2298187842,-51.7744751,57.72096634,-80.58955383,-7.786971569,-2.398250341,4.598594189,-268.9882202,-79.41044617,-4.717528343, 
891,2298204509,-56.38339996,56.43949127,-78.82506561,-7.678561687,-3.880024195,4.166360378,-364.6919861,-90.16137695,-28.0373745, 
892,2298221176,-62.05334091,54.86447144,-76.84860229,-7.307612419,-4.54190588,3.037700891,-437.4084778,-104.3370743,-46.47175217, 
893,2298237843,-68.02153015,53.1173439,-74.55810547,-6.635754585,-5.93073988,1.289046288,-468.5239258,-115.9774857,-60.47104645, 
894,2298254510,-73.59599304,51.34473419,-72.08496094,-5.7491045,-7.914737225,-0.430716097,-451.018158,-119.2885971,-70.07736969, 
895,2298271177,-78.50176239,49.6006546,-69.63673401,-5.046177864,-9.720356941,-1.56023252,-406.8459473,-114.4288788,-78.48727417, 
896,2298287844,-82.31047058,47.90278625,-67.36270905,-4.547935963,-10.78617859,-2.101457119,-330.2312317,-104.1018448,-84.87060547, 
897,2298304511,-85.06689453,46.27713394,-65.30354309,-4.761785984,-10.75753593,-2.068660736,-254.9612732,-92.74809265,-87.05245209, 
898,2298321178,-86.66207123,44.8164978,-63.46917343,-6.102850437,-9.621876717,-1.826075077,-173.291153,-81.57666779,-81.14826202, 
899,2298337845,-87.43408966,43.52344513,-62.01882935,-3.730579853,-11.44770241,-1.807403564,-105.94104,-64.70485687,-73.53614044, 
900,2298354512,-86.89080048,42.49280167,-60.81106567,-6.5509305,-9.417014122,-1.549001813,-15.79111767,-54.35391235,-58.36046219, 
901,2298371179,-85.3549881,41.73112488,-59.94068146,-5.656151295,-9.598637581,-1.756146431,58.20364761,-40.09696579,-42.18533707, 
902,2298387846,-82.37935638,41.35018539,-59.38867188,-5.612633705,-10.58032322,-2.378594875,157.6846161,-25.42752457,-19.27122116, 
903,2298404513,-77.72548676,41.42127609,-59.14934921,-5.961043835,-10.08105946,-2.076546907,270.8989868,-8.177301407,6.887386322, 
904,2298421180,-71.75337982,41.84977341,-59.08248901,-6.345893383,-7.911550999,-1.401011348,356.8771362,5.619772911,26.43141937, 
905,2298437847,-65.0796814,42.54692841,-58.97293472,-6.515293598,-5.084726334,-0.50121963,397.2718811,12.6462431,41.52017212, 
906,2298454514,-58.29164124,43.46735764,-58.84473801,-6.438313961,-3.380038261,0.3630687,403.3433838,23.06797791,52.08267593, 
907,2298471181,-51.84799576,44.52112198,-58.70059204,-6.334943771,-2.731658459,1.146300316,381.9204102,32.92501068,56.15788269, 
908,2298487848,-46.11585999,45.68717957,-58.57236481,-6.381680489,-1.858461142,1.464850068,339.8047791,43.64792633,57.06344223, 
909,2298504515,-41.29109955,46.96491241,-58.50164413,-6.342987537,-1.863304257,1.388622761,287.7630615,55.22070313,55.75003815, 
910,2298521182,-37.45966339,48.39330292,-58.50457382,-6.555131435,-1.337400675,1.551829576,231.3635406,68.12162018,54.91861343, 
911,2298537849,-34.44439316,49.97084427,-58.52567291,-6.998484612,-1.360290289,1.734318733,183.2268829,78.87815094,55.51602554, 
912,2298554516,-32.15611649,51.67321014,-58.46269608,-7.543558121,-0.46170792,2.433074236,135.730072,85.80361176,58.66875839, 
913,2298571183,-30.56084442,53.44224167,-58.22789764,-8.100219727,-0.038554668,2.992470026,85.88417053,87.89150238,63.13685608, 
914,2298587850,-29.53133011,55.2473526,-57.72006989,-8.614279747,0.334269226,3.288177252,38.34844208,86.53650665,70.17947388, 
915,2298604517,-28.887043,57.09446335,-56.82268524,-9.093794823,0.389460742,3.186517477,-4.764190197,83.74614716,80.81447601, 
916,2298621184,-28.45022774,59.01535416,-55.45029068,-9.975653648,0.24943015,2.758658886,-42.38240051,81.82705688,94.07588196, 
917,2298637851,-28.08215141,61.01760483,-53.4837265,-11.09200001,-0.062305298,2.040269136,-78.85996246,79.44882202,109.3734589, 
918,2298654518,-27.73568344,63.10731506,-50.84369659,-11.91751385,-0.435638905,0.983196259,-117.9063034,77.57441711,124.7949066, 
919,2298671185,-27.3190937,65.30310822,-47.47531509,-12.56832981,-0.816816986,0.316847444,-155.7081909,77.63923645,139.3780365, 
920,2298687852,-26.74910736,67.54050446,-43.32912827,-12.31548023,-1.430294871,0.305438042,-192.5319061,75.72563171,150.1203461, 
921,2298704519,-25.99498367,69.76766205,-38.56441498,-11.07779217,-2.294941902,0.524420679,-219.7185822,74.81900024,153.0265503, 
922,2298721186,-24.79999161,71.95867157,-33.26347351,-10.1322794,-3.239613056,1.020502567,-227.4668884,75.29962158,150.9912567, 
923,2298737853,-22.60166359,74.09674072,-27.35586166,-9.55906868,-4.43192625,1.415758848,-205.7800903,77.08578491,146.7029266, 
924,2298754520,-18.39031219,76.17423248,-20.5435009,-9.827105522,-5.915610313,1.999771595,-141.0319824,81.19107056,142.2401733, 
925,2298771187,-11.3630476,78.11155701,-12.31317616,-10.98438835,-6.294515133,3.08549428,-58.45858002,85.18074799,136.4194794, 
926,2298787854,-1.03506577,79.76478577,-2.051582336,-12.44050407,-5.770421982,4.158437729,16.7618351,86.79711914,128.5472412, 
927,2298804521,12.65354633,80.93379974,10.60710335,-13.50591946,-5.005422592,4.530646801,73.87307739,83.55086517,120.012558, 
928,2298821188,28.01495743,81.51181793,24.47844696,-13.16917133,-3.714116812,4.731501102,100.4840546,77.65826416,107.5422363, 
929,2298837855,42.40142059,81.5953598,37.30140686,-12.27108288,-2.988464117,4.591003895,103.5096436,70.47454834,90.02654266, 
