PacketCounter,SampleTimeFine,Euler_X,Euler_Y,Euler_Z,Acc_X,Acc_Y,Acc_Z,Gyr_X,Gyr_Y,Gyr_Z,
0,2283364588,83.78012085,-6.36088562,108.0187531,0,0,0,0,0,0, 
1,2283381255,84.89263153,-6.738101959,108.0794907,1.420337081,9.649003029,0.358813524,11.55592346,0.307653457,2.381207228, 
2,2283397922,85.88182068,-7.151210308,108.2652969,1.523165822,9.330459595,0.463885844,11.09445381,1.666670442,2.601355076, 
3,2283414589,86.56337738,-7.554811001,108.4225235,1.628382087,9.1975317,0.56931442,12.18988323,2.046609402,2.583951473, 
4,2283431256,87.02121735,-7.918896675,108.5873566,1.77557826,9.281567574,0.639854074,13.78535938,1.668790102,1.816857219, 
5,2283447923,87.35612488,-8.247449875,108.7723999,1.808837652,9.499568939,0.603760064,15.36946297,1.245290399,0.981172144, 
6,2283464590,87.64050293,-8.525343895,108.9456863,1.822346568,9.72527504,0.558991671,16.27379036,0.612457752,0.566470146, 
7,2283481257,87.9179306,-8.76184845,109.1016388,1.884887457,10.02101517,0.484536678,17.51620293,0.201719418,0.878228307, 
8,2283497924,88.1696167,-8.967544556,109.254776,1.915779591,10.206707,0.545201182,16.48949051,0.527538836,1.23165822, 
9,2283514591,88.35272217,-9.151959419,109.38974,1.871194482,10.27721977,0.670978963,13.23964691,0.77264595,1.758837938, 
10,2283531258,88.46932983,-9.313815117,109.4890289,1.800105691,10.06841564,0.817712307,10.40783882,0.465690315,2.149661779, 
11,2283547925,88.53813934,-9.451164246,109.5695343,1.786151171,9.738731384,0.868175328,8.768868446,-0.378773451,2.171201944, 
12,2283564592,88.60055542,-9.574276924,109.6322861,1.885807276,9.417821884,0.914741099,9.228219986,-1.162989736,2.309254646, 
13,2283581259,88.67690277,-9.684902191,109.6730957,1.964010119,9.204730988,0.941997707,10.63220787,-1.909811854,1.886837244, 
14,2283597926,88.76790619,-9.782329559,109.7216492,2.008994579,9.121564865,0.956779778,11.92574024,-2.077812195,1.158783078, 
15,2283614593,88.86981964,-9.865535736,109.7551041,2.02349329,9.127951622,0.908661842,12.7702055,-2.471787214,0.322515309, 
16,2283631260,88.96615601,-9.935622215,109.779892,1.971028328,9.226530075,0.851972163,12.40497971,-2.695373058,-0.382212102, 
17,2283647927,89.03981781,-9.985291481,109.7633286,1.975718617,9.2983284,0.84948802,10.77375793,-3.307414532,-1.361411691, 
18,2283664594,89.07832336,-10.01734829,109.746109,1.912949443,9.369545937,0.813418984,8.366826057,-3.975316048,-2.168659687, 
19,2283681261,89.08520508,-10.02966404,109.7068787,1.951493382,9.487163544,0.726137638,6.127865314,-4.550168037,-3.022421122, 
20,2283697928,89.06298828,-10.02290726,109.6733856,1.93830812,9.537905693,0.654873371,3.985611677,-4.820835114,-3.905591488, 
21,2283714595,89.03762817,-9.997605324,109.6275711,1.94709754,9.530781746,0.620602548,3.37506938,-4.956954479,-4.770225525, 
22,2283731262,89.01594543,-9.956251144,109.575798,1.931273818,9.552895546,0.528084695,3.217916012,-4.906145096,-5.531402588, 
23,2283747929,88.97663116,-9.895321846,109.5138931,1.942418814,9.495734215,0.516171157,1.724022865,-4.953445435,-6.52158308, 
24,2283764596,88.91173553,-9.818201065,109.4764557,1.932380795,9.41397953,0.528942287,-0.145813107,-4.720318317,-7.355301857, 
25,2283781263,88.84870911,-9.732433319,109.4200439,1.912116408,9.396198273,0.569387734,-0.345720321,-4.683706284,-7.766656876, 
26,2283797930,88.78991699,-9.632363319,109.3565521,1.984913588,9.310753822,0.616621852,-0.335071862,-4.629707813,-8.525580406, 
27,2283814597,88.7386322,-9.520700455,109.3039246,1.979259133,9.309225082,0.673673868,-0.049618222,-4.468553066,-9.197081566, 
28,2283831264,88.68656158,-9.397435188,109.2474365,1.938293576,9.390835762,0.682478189,-0.208647534,-4.292440891,-9.870671272, 
29,2283847931,88.6188736,-9.256192207,109.1744385,1.861458898,9.453684807,0.774417579,-1.285841346,-4.349173069,-10.90716743, 
30,2283864598,88.52987671,-9.096434593,109.096405,1.743018508,9.55472374,0.843338072,-2.722862244,-4.877429008,-11.95664215, 
31,2283881265,88.42727661,-8.930167198,109.0008011,1.574289203,9.804095268,0.844829857,-3.737484694,-5.875032425,-12.25325298, 
32,2283897932,88.30725861,-8.753798485,108.8834457,1.445840716,9.924575806,0.839088082,-5.026022434,-7.112921715,-12.7053442, 
33,2283914599,88.20503998,-8.551016808,108.7385559,1.405425787,10.12784195,0.734087467,-4.254875183,-8.661660194,-14.12759495, 
34,2283931266,88.13774109,-8.292135239,108.5591431,1.353699923,10.78009987,0.594176829,-2.552379608,-10.56180286,-17.36099625, 
35,2283947933,88.07867432,-7.9543643,108.3447647,1.025690198,11.54680634,0.403234243,-2.480793715,-12.43446159,-21.94938087, 
36,2283964600,88.06058502,-7.542952061,108.0985641,0.627790093,11.89079666,0.131939545,-0.444637835,-14.1356163,-26.10094452, 
37,2283981267,88.09899902,-7.07779789,107.8417816,0.38268736,12.01225853,0.022911727,2.656533241,-14.62786293,-28.91957474, 
38,2283997934,88.17317963,-6.595601082,107.5960312,0.2129547,11.75708389,0.057278179,4.691483021,-13.93709469,-29.48097801, 
39,2284014601,88.26422882,-6.129384041,107.3832169,0.161976352,11.30206394,0.145525679,5.783367157,-12.02819252,-28.05855751, 
40,2284031268,88.33176422,-5.711278439,107.2235794,0.181903854,11.06987095,0.296825558,4.606333733,-8.968437195,-24.75568199, 
41,2284047935,88.3108139,-5.368870735,107.1244049,0.153220817,10.94014168,0.505683482,-0.409163475,-5.492869377,-19.87656021, 
42,2284064602,88.1603775,-5.127205849,107.0693665,-0.094358541,10.77593899,0.763446748,-7.954900265,-3.011966228,-13.57425499, 
43,2284081269,87.91359711,-5.00488615,107.0136719,-0.433374882,10.34636402,0.844282031,-13.70626259,-3.255888939,-6.217103481, 
44,2284097936,87.63752747,-4.986766815,106.921402,-0.570918024,9.881894112,0.653399944,-15.61773968,-5.666827202,0.185263216, 
45,2284114603,87.36354065,-5.031797886,106.7804947,-0.70786649,9.512184143,0.379584283,-15.77133179,-8.744339943,4.061878204, 
46,2284131270,87.11667633,-5.111596584,106.5948105,-0.892304599,9.210928917,0.099433661,-14.48359203,-11.54057312,6.21888113, 
47,2284147937,86.90286255,-5.205699921,106.3803864,-1.015466332,9.124440193,0.06519641,-12.82371998,-13.32603741,7.192894459, 
48,2284164604,86.7169342,-5.296294689,106.1513901,-1.142608047,9.129317284,0.158960223,-11.39793587,-14.20955944,7.141848087, 
49,2284181271,86.56981659,-5.371937275,105.9181213,-1.140863419,9.078497887,0.315859467,-9.234272957,-14.43513012,6.448370457, 
50,2284197938,86.49850464,-5.422825336,105.6847305,-1.122848868,9.05988884,0.309873968,-4.782484531,-14.37069607,5.171675205, 
51,2284214605,86.50559235,-5.450977325,105.4547043,-1.038618803,9.335329056,0.450374216,-0.146261439,-14.09293747,4.024392128, 
52,2284231272,86.56629944,-5.479693413,105.2342529,-1.04156971,9.596058846,0.683947802,3.071381092,-13.52865124,4.281671524, 
53,2284247939,86.66586304,-5.542459488,105.0110168,-0.993575275,9.467423439,0.913587272,5.373466492,-13.81706619,6.498863697, 
54,2284264606,86.80783844,-5.645647526,104.7846909,-0.713526368,9.082728386,1.031871557,7.92435503,-14.13703632,9.08407402, 
55,2284281273,87.00283051,-5.776221275,104.5508575,-0.482791692,8.780617714,1.092194796,11.0988512,-14.65499401,10.82300091, 
56,2284297940,87.25382996,-5.906519413,104.3093491,-0.264133155,8.55240345,1.054898977,14.45969677,-15.079072,10.87488556, 
57,2284314607,87.57309723,-6.024758816,104.0656204,-0.121731795,8.292172432,0.760902286,18.58621216,-15.13035297,10.21603966, 
58,2284331274,87.98010254,-6.103657246,103.8059235,0.132551119,8.576154709,0.86266917,23.75621414,-15.92603588,7.88888216, 
59,2284347941,88.4458313,-6.149778366,103.5583038,-0.195570171,8.63727951,0.553824902,27.39384651,-15.08721352,6.008562088, 
60,2284364608,88.8891449,-6.167936802,103.318634,-0.126020595,9.025806427,0.499808073,26.10162354,-14.53112984,4.458935738, 
61,2284381275,89.28941345,-6.156588078,103.0999146,-0.133023232,8.923594475,0.58035183,23.66526413,-13.22112942,2.81064868, 
62,2284397942,89.68152618,-6.131242275,102.8965988,-0.164334252,9.15391922,0.765645444,23.31021881,-12.28120327,2.06517601, 
63,2284414609,90.03914642,-6.097165108,102.7041473,-0.038015749,9.13686657,1.034983277,21.37680626,-11.62563992,1.628413796, 
64,2284431276,90.40407562,-6.069667816,102.5104752,0.012248933,9.104005814,1.187876701,21.91340828,-11.69935513,2.08274579, 
65,2284447943,90.82038116,-6.06876564,102.3089142,0.290761739,9.089355469,1.191270232,25.07306671,-12.15525723,3.744247913, 
66,2284464610,91.26567841,-6.091957092,102.1160431,0.419273168,9.032084465,1.084828854,26.98567009,-11.60001469,5.219160557, 
67,2284481277,91.75527954,-6.137571335,101.9384155,0.576393127,8.995698929,1.046869874,29.84658241,-10.62883472,6.57003355, 
68,2284497944,92.2582016,-6.203881264,101.786026,0.734361589,8.947891235,0.828910172,30.90620041,-9.041459084,7.770750046, 
69,2284514611,92.85243225,-6.304551601,101.6434097,0.931546867,8.939217567,0.819090843,36.51730728,-8.311286926,9.7993927, 
70,2284531278,93.43948364,-6.410592556,101.5320129,0.985272348,9.263307571,0.678434372,36.36693192,-6.357693195,9.998511314, 
71,2284547945,94.06437683,-6.521134853,101.4483032,1.058781981,8.965807915,0.423164099,38.88865662,-4.607340813,10.12929821, 
72,2284564612,94.76254272,-6.627229214,101.3890152,0.98635298,9.080973625,0.287845463,43.49938965,-3.081684113,9.701953888, 
73,2284581279,95.60401917,-6.740546703,101.3479843,1.006439447,9.322429657,0.092214175,52.26356125,-1.851086736,9.993988991, 
74,2284597946,96.4960022,-6.865469933,101.3297348,0.92938596,9.993445396,-0.060117245,55.49170685,-0.302079618,10.49608135, 
75,2284614613,97.28180695,-7.000140667,101.3324356,0.823242843,10.52974415,0.096788771,49.31253815,1.137617588,10.88101959, 
76,2284631280,97.92972565,-7.150357723,101.3491898,0.656726122,10.77591896,0.237546057,41.22278595,2.19971633,11.65555096, 
77,2284647947,98.47803497,-7.313831329,101.36689,0.619009852,10.6914835,0.228238702,35.36415482,2.464332342,12.41127872, 
78,2284664614,98.98312378,-7.496448517,101.3827744,0.917256474,10.70143795,0.210347295,32.87095261,2.617776871,13.54991436, 
79,2284681281,99.49588776,-7.65491581,101.4074478,1.288097024,10.69387341,-0.076727323,33.52161407,2.989111423,11.99492264, 
80,2284697948,99.95851135,-7.710213184,101.4569321,1.497209549,11.59185123,-0.569081485,30.80703163,3.464026451,5.573431969, 
81,2284714615,100.3293381,-7.659620285,101.5454865,1.305578709,12.27549171,-1.412766457,25.67927551,4.648472786,-1.163773417, 
82,2284731282,100.5492477,-7.507894993,101.6915054,0.926643431,13.06217766,-2.017236233,17.07480812,6.900416374,-7.793717861, 
83,2284747949,100.4782791,-7.26864624,101.898201,0.289727598,12.63329411,-2.157420158,0.027040634,9.496730804,-13.59686089, 
84,2284764616,100.1127167,-6.982474327,102.1463547,-0.085642852,11.97720051,-2.263520718,-17.44721031,11.51152134,-16.69546127, 
85,2284781283,99.474617,-6.718875885,102.4382858,-0.449181139,11.57708645,-2.220246315,-33.63310623,14.50268936,-15.60621262, 
86,2284797950,98.76611328,-6.529707909,102.7543488,-0.541153491,9.97717762,-2.127333164,-37.8459816,16.85870361,-11.13416958, 
87,2284814617,98.16976929,-6.421800613,103.0625992,-0.279901236,8.687376022,-1.654946446,-31.32978821,17.28107643,-5.946374893, 
88,2284831284,97.71884918,-6.359966755,103.35495,0.275260359,7.668683529,-1.564304113,-22.83021736,16.80474091,-2.855235338, 
89,2284847951,97.46588898,-6.301374435,103.6450729,0.709236264,7.436418056,-2.133858442,-11.08391762,16.73259354,-2.539201498, 
90,2284864618,97.29319,-6.208170891,103.9705734,0.913114429,8.403268814,-2.679503202,-6.212145329,18.58128548,-4.844770432, 
91,2284881285,96.98861694,-6.067279339,104.3432693,0.874646664,9.589963913,-2.753432512,-14.04522419,21.06407547,-8.001637459, 
92,2284897952,96.43900299,-5.894015789,104.7488174,0.606885314,10.07882118,-2.736424208,-28.77879333,22.87131882,-10.03344631, 
93,2284914619,95.74795532,-5.690993309,105.1441727,0.437763602,9.530656815,-2.701845884,-37.57749939,22.21697235,-11.50024128, 
94,2284931286,95.01416016,-5.440801144,105.5279007,0.348343462,9.143521309,-2.717603207,-40.47906876,21.44006729,-13.97570229, 
95,2284947953,94.25891113,-5.154494762,105.9239273,0.288069516,9.098459244,-2.84569788,-41.99382019,22.2142868,-15.91091347, 
96,2284964620,93.52881622,-4.893671989,106.3475189,0.285078883,9.5167799,-3.161992788,-40.65349197,24.20937729,-14.20635986, 
97,2284981287,92.86018372,-4.682003498,106.8261414,0.254157543,8.894239426,-3.087042093,-37.02724457,27.86543465,-11.14517307, 
98,2284997954,92.35713959,-4.519437313,107.3478317,0.478617013,8.462461472,-2.845392227,-27.20940971,30.72218132,-8.038377762, 
99,2285014621,91.9777298,-4.388408661,107.9197617,0.344284773,8.589004517,-2.38005805,-19.86020088,33.88568497,-6.050412178, 
100,2285031288,91.59687805,-4.269381046,108.5438309,0.307540178,8.758652687,-2.022051573,-19.96600151,37.09170151,-5.222622871, 
101,2285047955,91.19834137,-4.144113541,109.2128143,0.596148491,8.341459274,-1.987727404,-21.0677681,39.82500076,-5.42514801, 
102,2285064622,90.86942291,-4.006033897,109.8901443,0.587232888,8.391046524,-1.639737964,-17.10242844,40.36759186,-5.992394924, 
103,2285081289,90.58706665,-3.858802557,110.5292358,0.540882528,8.762983322,-1.188284516,-14.69594479,38.12364578,-6.339892864, 
104,2285097956,90.38774109,-3.708370686,111.1083374,0.368045032,9.000260353,-1.129311562,-10.1412878,34.572258,-6.378508091, 
105,2285114623,90.30587769,-3.552687168,111.6211853,0.41705066,9.257208824,-1.145651698,-3.525376081,30.63257599,-6.607388973, 
106,2285131290,90.3164444,-3.390234947,112.0750732,0.411888659,9.485804558,-0.952794492,1.636540771,27.1142807,-7.001808167, 
107,2285147957,90.35044861,-3.209319353,112.4699707,0.433697462,9.681825638,-0.800933063,2.690888882,23.57976723,-8.12356472, 
108,2285164624,90.33953857,-3.012454271,112.8129349,0.288363636,9.80939579,-0.663330793,-0.299649864,20.465168,-9.092120171, 
109,2285181291,90.27153015,-2.807542324,113.1017838,0.163307905,9.808116913,-0.508268774,-3.999678135,17.23122406,-9.557768822, 
110,2285197958,90.24007416,-2.599384308,113.3479233,0.167306796,9.509634972,-0.417690307,-2.015830755,14.68097305,-9.732727051, 
111,2285214625,90.30860138,-2.388792515,113.5561066,0.026226215,9.489413261,-0.165382177,3.814925909,12.40186024,-9.880319595, 
112,2285231292,90.43425751,-2.172213316,113.7351608,0.111446582,9.440467834,-0.081498332,7.129801273,10.63604164,-10.24864388, 
113,2285247959,90.52092743,-1.915128469,113.9059601,0.299580008,9.191848755,-0.013832824,4.739135265,10.09814835,-12.70259857, 
114,2285264626,90.52585602,-1.639334202,114.0823593,0.185909286,9.346664429,0.104821436,-0.18391858,10.41015148,-13.86087036, 
115,2285281293,90.44464874,-1.344106436,114.2583466,0.27415055,9.153516769,0.184682876,-5.380190849,10.38187695,-15.03640938, 
116,2285297960,90.33556366,-1.016718507,114.4259338,0.275995314,8.95259285,0.267755002,-7.090470791,9.887593269,-16.97300339, 
117,2285314627,90.22756195,-0.640604854,114.5691528,0.127533257,8.904326439,0.359519422,-7.072696686,8.440974236,-19.89925194, 
118,2285331294,90.1291275,-0.20963265,114.6735382,0.022392616,9.154385567,0.303104132,-6.537239552,6.132820606,-23.1916008, 
119,2285347961,90.05851746,0.26011157,114.732605,-0.138401255,9.574216843,0.195385009,-4.877245903,3.441388607,-25.52073479, 
120,2285364628,90.01107788,0.750350118,114.7520828,-0.233573303,9.915458679,0.070570901,-3.469837427,1.085462451,-26.75575638, 
121,2285381295,89.95950317,1.248869181,114.7292709,-0.234572008,10.18441391,0.080048539,-3.664399624,-1.434218884,-27.26037979, 
122,2285397962,89.90489197,1.755629897,114.6497955,-0.360987812,10.19612694,0.177172512,-3.72320652,-4.810340881,-27.77281761, 
123,2285414629,89.87789917,2.307586908,114.4897461,-0.443108767,10.54483604,0.129748031,-1.823841691,-9.620541573,-30.50719452, 
124,2285431296,89.92247772,2.960388899,114.2476807,-0.774347901,11.1422863,-0.085302509,2.82149744,-14.53043842,-36.57432175, 
125,2285447963,90.03145599,3.713444948,113.9412003,-1.322000623,11.82916832,-0.308340371,7.102175713,-18.43576241,-42.56642914, 
126,2285464630,90.17663574,4.562266827,113.605484,-1.790452242,11.85811996,-0.592193961,9.656853676,-20.28358459,-48.23692322, 
127,2285481297,90.33641815,5.471725464,113.273056,-2.204725981,11.6123848,-0.719675004,10.80757332,-20.22181129,-51.77027512, 
128,2285497964,90.49202728,6.3675313,112.9803848,-2.441219568,11.4280262,-0.67706722,10.60013771,-17.96860886,-50.84319687, 
129,2285514631,90.60064697,7.157596588,112.7641602,-2.450549841,11.34377575,-0.412137061,7.477539063,-13.45797825,-44.43029785, 
130,2285531298,90.59835815,7.781472206,112.6490555,-2.230300903,10.97421074,-0.107825972,0.192755625,-7.367102623,-34.45144653, 
131,2285547965,90.4227066,8.252333641,112.6329498,-1.997083783,10.10684586,0.259954125,-10.95976639,-1.342992544,-25.30004692, 
132,2285564632,90.10778809,8.628222466,112.6842728,-2.094811201,9.481313705,0.4449507,-19.86422729,2.800160885,-19.60605049, 
133,2285581299,89.72732544,8.968873978,112.772522,-2.420644522,9.183823586,0.556805134,-24.11420631,5.113316536,-17.44613457, 
134,2285597966,89.36760712,9.313869476,112.8580322,-2.801587105,9.331391335,0.599239826,-22.83051491,5.069959164,-17.6291275, 
135,2285614633,89.0747757,9.671717644,112.9307404,-3.25468874,9.555066109,0.526770234,-18.67845154,4.428849697,-18.31601906, 
136,2285631300,88.88254547,10.02979183,112.9818344,-3.688236237,9.759699821,0.564741135,-12.41413784,3.232654572,-18.24545288, 
137,2285647967,88.78925323,10.38375759,113.0406952,-3.51230526,9.360581398,0.206032068,-6.543642998,3.731717825,-17.87360382, 
138,2285664634,88.82479095,10.73701096,113.1492996,-3.202717543,8.837589264,-0.147284716,0.625879109,6.669062138,-17.67073631, 
139,2285681301,88.89310455,11.08623219,113.3634109,-2.854739428,8.622062683,-0.336881876,1.337017179,12.84898376,-17.23435211, 
140,2285697968,88.9379425,11.42607021,113.7194519,-2.505594969,8.505473137,-0.395553648,-1.845156193,21.14691544,-16.47377014, 
141,2285714635,88.966362,11.76623535,114.231102,-2.338828564,8.573566437,-0.278263509,-4.871479511,30.24594307,-16.31684494, 
142,2285731302,88.97908783,12.11494637,114.8853149,-2.33290863,8.83827877,-0.070945859,-7.803906918,38.56916428,-16.68304062, 
143,2285747969,88.98589325,12.47187996,115.6644897,-2.409949541,8.968324661,0.167889148,-10.02378464,45.8388176,-17.0544548, 
144,2285764636,89.0136795,12.82398891,116.5441589,-2.522498369,8.928809166,0.247401178,-10.38666153,51.64133072,-16.68242073, 
145,2285781303,89.08468628,13.1666317,117.5136108,-2.581304789,8.746013641,0.112900749,-9.33323288,56.78804016,-16.0735054, 
146,2285797970,89.18854523,13.5062685,118.5776062,-2.492975712,8.472290993,-0.091447718,-9.035896301,62.18790817,-15.89792156, 
147,2285814637,89.33799744,13.84002018,119.7450867,-2.408904314,8.188006401,-0.382573903,-8.175205231,68.0762558,-15.61217499, 
148,2285831304,89.54419708,14.16540337,121.0286484,-2.415816545,8.005393028,-0.591117501,-6.906670094,74.66337585,-15.26892567, 
149,2285847971,89.80301666,14.48354435,122.445816,-2.289784431,8.007481575,-0.85689503,-6.227978706,82.2325592,-15.10868645, 
150,2285864638,90.09877777,14.78488731,124.0086288,-2.331523657,8.245064735,-0.948526978,-6.75600481,90.46456909,-14.5208149, 
151,2285881305,90.41268158,15.05233383,125.7104263,-2.377949953,8.497797966,-0.979328215,-8.361063957,98.29768372,-13.04112911, 
152,2285897972,90.75087738,15.26561165,127.5450134,-2.426423311,8.706871986,-1.091566443,-9.499548912,105.7968903,-10.47422791, 
153,2285914639,91.10961914,15.41291428,129.4923248,-2.414551973,8.855039597,-1.164819598,-10.49128437,112.1883011,-7.318049908, 
154,2285931306,91.49668884,15.49289608,131.5355835,-2.34263587,8.860725403,-1.260879397,-10.64991856,117.6748581,-4.196469307, 
155,2285947973,91.95058441,15.49614906,133.6580658,-2.243177652,8.75739193,-1.366366863,-8.099234581,122.2967911,-0.669762731, 
156,2285964640,92.49614716,15.43047523,135.8441925,-2.197654247,8.873001099,-1.454456091,-3.65573287,126.1006622,2.170900583, 
157,2285981307,93.10744476,15.31465244,138.0827179,-2.260324717,9.083400726,-1.588288307,-0.441902727,129.3039703,3.664304733, 
158,2285997974,93.74610138,15.18169594,140.3600159,-2.43813777,9.494558334,-1.782822251,0.768306255,131.6739197,3.049935102, 
159,2286014641,94.35520172,15.07858372,142.6720123,-2.812299967,9.831180573,-1.932321668,-1.372427464,133.6063385,-0.404219449, 
160,2286031308,94.85874939,15.05235958,144.9933167,-3.141037941,9.851055145,-1.898319483,-7.792100906,133.7621613,-6.417597771, 
161,2286047975,95.22525787,15.1101408,147.2965698,-3.269026279,9.570889473,-1.773116231,-15.84492874,132.1796265,-12.41320133, 
162,2286064642,95.49403381,15.19905663,149.5635834,-3.256313324,9.742981911,-1.694915533,-21.37451553,129.7647705,-14.84809875, 
163,2286081309,95.57881165,15.29308414,151.7851257,-3.33615613,10.11014652,-1.639502406,-31.95276642,126.9842834,-15.33912277, 
164,2286097976,95.39104462,15.41504574,153.9378052,-3.234219313,10.13151741,-1.646225929,-47.49031067,122.787735,-16.55237198, 
165,2286114643,94.92852783,15.59367847,155.9773254,-3.560199022,10.29580021,-1.26626265,-62.51596451,115.9565353,-18.69448662, 
166,2286131310,94.21343231,15.86201859,157.8191223,-3.938665152,10.43069458,-0.649898827,-74.92113495,104.2028046,-21.97646904, 
167,2286147977,93.28884125,16.24245262,159.4184418,-4.408274174,10.27194214,-0.247769356,-84.04023743,89.96250153,-26.27264977, 
168,2286164644,92.22149658,16.71619415,160.7263947,-4.928837776,9.870379448,0.067155845,-88.28314972,73.21354675,-29.45012665, 
169,2286181311,91.06926727,17.24168587,161.7250061,-5.066196918,9.520093918,0.256887197,-88.54777527,55.76935196,-30.54211426, 
170,2286197978,89.8311615,17.8080101,162.4490356,-5.080954075,9.123095512,0.366366476,-89.2196579,40.52684402,-31.60852814, 
171,2286214645,88.623909,18.42837906,162.9260864,-4.794390202,7.723413467,0.260408312,-83.12197876,27.04515839,-34.06960297, 
172,2286231312,87.62102509,19.10380173,163.2159729,-4.664937019,7.59463644,0.306670427,-67.49777985,17.09626007,-37.08568573, 
173,2286247979,86.71590424,19.83468628,163.3919525,-4.423618793,7.547700882,0.259218663,-59.50508499,11.38353252,-40.33966827, 
174,2286264646,85.84457397,20.63292313,163.5132599,-4.416666985,7.690275192,0.259293228,-56.43072891,9.159552574,-44.30910873, 
175,2286281313,85.16928864,21.54234505,163.5945435,-4.518267155,6.567120552,0.151626483,-43.86587906,8.00905323,-50.93595505, 
176,2286297980,84.64068604,22.56191826,163.6845245,-4.647830963,7.863141537,0.582508326,-35.30128098,9.570685387,-57.29741287, 
177,2286314647,84.02272034,23.71206665,163.7796478,-4.930105686,7.58347559,0.770939052,-40.82791138,11.15620613,-64.90843964, 
178,2286331314,83.3420639,25.01346779,163.8803711,-5.009081841,7.566645622,1.04164505,-44.78198624,13.13967419,-73.69999695, 
179,2286347981,82.59762573,26.44229126,163.9835815,-5.236215591,7.880262375,1.345026135,-48.73646545,15.06330109,-81.04945374, 
180,2286364648,81.5974884,27.99965477,164.0798798,-5.392286301,8.031208038,1.565728426,-63.95440292,16.9304657,-88.46159363, 
181,2286381315,80.58391571,29.67717171,164.136734,-5.555041313,7.150118828,1.469293475,-63.68334579,17.49225044,-95.56693268, 
182,2286397982,79.53292084,31.4401741,164.1412506,-5.761813641,7.835925579,1.688639283,-64.3405838,17.39681435,-100.7126083, 
183,2286414649,78.27179718,33.27957153,164.1149445,-6.056528091,8.535840988,1.866457224,-75.88880157,18.79448891,-105.1103668, 
184,2286431316,76.7563858,35.22545624,164.0163574,-6.211680889,7.274425507,1.979915738,-88.59309387,19.27766991,-111.6272278, 
185,2286447983,75.28456116,37.19744492,163.7664795,-6.551154137,7.362626553,2.083641768,-80.36687469,15.60640717,-114.3141327, 
186,2286464650,73.79016876,39.22129822,163.3965302,-6.517523289,6.818160057,2.176473141,-76.76989746,14.28131104,-118.2678452, 
187,2286481317,72.40636444,41.30985641,162.8680115,-7.032905579,6.948514462,2.43543601,-63.28796005,11.9584465,-123.5209656, 
188,2286497984,71.05626678,43.40715408,162.14328,-7.009772778,6.408690929,2.406212807,-52.37735367,7.586182117,-126.1565475, 
189,2286514651,69.97162628,45.51256943,161.2684937,-7.679084301,6.484931946,2.484238386,-28.90472603,5.455645084,-128.173111, 
190,2286531318,69.01094818,47.64271164,160.1734161,-8.090134621,6.408563137,2.370862484,-10.4242115,1.099826097,-132.1028748, 
191,2286547985,68.21025085,49.76146698,158.8770294,-8.452479362,6.37621212,2.240068197,9.964612007,-2.820424795,-133.6478729, 
192,2286564652,67.52329254,51.89598083,157.3779449,-9.136936188,6.375983238,2.102541208,28.15380096,-5.7619977,-136.5731964, 
193,2286581319,66.91201782,54.04315567,155.6570587,-9.745059013,6.561089993,2.005481482,45.45438766,-8.835542679,-139.3660431, 
194,2286597986,66.29363251,56.19083405,153.7186737,-10.22592068,6.635512829,1.840597868,58.06698227,-11.26827717,-141.1577759, 
195,2286614653,65.65708923,58.27080917,151.5750885,-10.17279339,6.433274746,1.675723314,69.7698822,-14.17106915,-138.7900391, 
196,2286631320,65.03974915,60.21446228,149.3042603,-9.542453766,6.112622261,1.528360963,79.90367889,-16.07897186,-131.505661, 
197,2286647987,64.52129364,61.99124908,147.0535889,-8.829931259,5.723079205,1.463680387,87.0148468,-14.99339581,-120.7195358, 
198,2286664654,64.13159943,63.60245514,144.9635773,-8.373902321,5.514050961,1.529908895,88.0711441,-11.13955498,-108.4651108, 
199,2286681321,63.86188889,65.06988525,143.1335602,-8.242735863,5.345491409,1.688853264,82.73126221,-5.462769985,-96.53225708, 
200,2286697988,63.63741302,66.43358612,141.5924072,-8.35614109,5.399362087,1.894394994,70.80246735,0.846479475,-86.79194641, 
201,2286714655,63.32846832,67.74311829,140.3155975,-8.653357506,5.219110489,1.985194445,52.00101852,7.150074482,-80.31495667, 
202,2286731322,62.81840515,69.02619934,139.2141876,-9.099917412,5.056174278,2.028602362,30.81767654,11.95494843,-76.43779755, 
203,2286747989,61.98001862,70.28774261,138.1403046,-9.323381424,4.758285999,2.098847628,10.10439682,14.04740047,-74.32047272, 
204,2286764656,60.90417099,71.49437714,137.0180664,-9.356127739,4.003110409,1.969397068,-0.921254635,14.10994625,-71.07421112, 
205,2286781323,59.67204285,72.62335968,135.816803,-9.265794754,3.726100922,1.887215853,-5.338759899,13.18262959,-66.84946442, 
206,2286797990,58.43869781,73.66159058,134.6363831,-8.916255951,3.317812443,1.707226872,-6.187165737,13.33413601,-61.05967331, 
207,2286814657,57.44874191,74.5936203,133.6248474,-8.616308212,2.899133682,1.699139833,-0.982321739,14.55798626,-53.33656693, 
208,2286831324,56.8320694,75.40901947,132.8816833,-8.44618988,2.692916632,1.844673872,6.116649628,15.82873154,-44.53181458, 
209,2286847991,56.56542206,76.11967468,132.4562683,-8.315691948,2.610920906,1.999441028,8.793206215,17.18105507,-36.29761505, 
210,2286864658,56.56124496,76.74951172,132.3091431,-8.461657524,2.54225564,2.11370635,8.389291763,18.16220665,-29.94038391, 
211,2286881325,56.68017578,77.32920837,132.3551788,-8.650192261,2.48563385,2.170487642,4.5068717,18.77432442,-26.01174927, 
212,2286897992,56.87249374,77.87369537,132.5454712,-8.881622314,2.435143232,2.150155067,0.451956779,19.12692642,-23.345438, 
213,2286914659,57.10935593,78.37430573,132.8214417,-9.031725883,2.260126352,2.14345789,-1.923134565,18.45230293,-20.73405838, 
214,2286931326,57.41433334,78.8208313,133.1731567,-9.11359024,2.037567139,2.052470922,-2.313497782,17.28603172,-17.72808838, 
215,2286947993,57.76712418,79.20213318,133.5681915,-9.123018265,1.837332368,1.989140391,-2.025737286,15.41600895,-14.37242413, 
216,2286964660,58.17071915,79.5165863,134.0061798,-9.260077477,1.706316233,1.875205874,-1.529425383,13.51079559,-10.92565823, 
217,2286981327,58.59287262,79.76387787,134.4429626,-9.474495888,1.619763136,1.786745787,-0.36398232,11.23142529,-7.688117504, 
218,2286997994,59.0176239,79.95094299,134.8469849,-9.736129761,1.539552569,1.728414059,1.71117866,8.946180344,-4.925618172, 
219,2287014661,59.40955353,80.09615326,135.1835785,-10.01615334,1.530855298,1.72455883,3.718164206,6.990007877,-3.244553328, 
220,2287031328,59.75078201,80.21114349,135.4441223,-10.28066921,1.511085629,1.712091446,5.173593521,5.361513615,-2.153029442, 
221,2287047995,60.04514313,80.29660034,135.6428833,-10.30858231,1.508260846,1.693923473,6.012715816,3.921541691,-0.987075031, 
222,2287064662,60.40076447,80.35583496,135.9140167,-10.27325535,1.46151042,1.719133019,5.407981396,3.77978158,0.702005684, 
223,2287081329,60.83712387,80.37968445,136.2906799,-10.19064999,1.401566505,1.672945261,4.0149827,3.679046392,3.027216434, 
224,2287097996,61.36751556,80.36891937,136.7860565,-10.00727081,1.232884645,1.62617898,2.638076305,3.75426507,5.391326904, 
225,2287114663,62.01942825,80.33106232,137.4208679,-9.854218483,1.132596135,1.55396235,1.688779831,4.298663139,7.445619106, 
226,2287131330,62.716362,80.28305817,138.1140137,-9.774394035,1.024901748,1.601026416,0.950878024,4.654667377,8.227664948, 
227,2287147997,63.39638138,80.2300415,138.7931976,-9.752485275,0.965959489,1.590329647,0.777569771,4.526565552,8.404009819, 
228,2287164664,63.94621277,80.17545319,139.3412933,-9.746893883,0.986760139,1.574207544,0.729469121,3.42140317,7.862338543, 
229,2287181331,64.31757355,80.13131714,139.7162476,-9.709231377,1.026895523,1.52938199,0.273959875,2.196538925,6.526123524, 
230,2287197998,64.4489975,80.09293365,139.8477325,-9.668331146,1.049756646,1.417979121,0.277058989,0.149392486,5.132971287, 
231,2287214665,64.39274597,80.06938171,139.7872009,-9.702674866,1.085089564,1.318035126,0.373990238,-1.224696875,3.49101758, 
232,2287231332,64.12730408,80.06124115,139.5075378,-9.77709198,1.168681026,1.307953596,0.780041099,-2.844559193,1.672016144, 
233,2287247999,63.6882782,80.06739807,139.0449982,-9.778069496,1.261537194,1.267463923,1.179343224,-4.144711018,0.065574922, 
234,2287264666,63.16007233,80.08402252,138.4829712,-9.767942429,1.341435432,1.236399293,1.717120528,-4.738477707,-0.987945974, 
235,2287281333,62.62143707,80.10258484,137.9064484,-9.743066788,1.432030678,1.183156729,1.949478865,-4.757981777,-1.203118324, 
236,2287298000,62.12510681,80.11805725,137.3720093,-9.782339096,1.502815723,1.144192338,2.007990837,-4.404603481,-0.876440942, 
237,2287314667,61.69432831,80.13295746,136.915329,-9.778619766,1.541876197,1.067228913,1.34559536,-3.668340921,-0.510653257, 
238,2287331334,61.32001877,80.1485672,136.5267944,-9.769708633,1.591573477,1.058680058,0.70724988,-2.997748852,-0.241937548, 
239,2287348001,61.01163483,80.16905212,136.2168427,-9.774609566,1.618951797,1.080827117,0.018178614,-2.119617462,-0.136899903, 
240,2287364668,60.75070953,80.20030212,135.958847,-9.796415329,1.634610415,1.005414248,-0.207539693,-1.315621853,-0.453626543, 
241,2287381335,60.47681808,80.23937988,135.6840057,-9.76401329,1.640468121,0.972203791,0.013004849,-1.203784108,-0.972591102, 
242,2287398002,60.20907593,80.28679657,135.4126892,-9.67714119,1.739948153,1.001293659,0.172431096,-0.900913835,-1.39061594, 
243,2287414669,59.98703766,80.33659363,135.1899109,-9.732205391,1.784278989,1.034562349,0.042344194,-0.368323445,-1.291545987, 
244,2287431336,59.7974205,80.38051605,134.998642,-9.758750916,1.825345516,1.042331338,0.121244118,-0.243896931,-0.839597046, 
245,2287448003,59.66492844,80.41249084,134.8603363,-9.722391129,1.803681612,1.049863577,0.415495604,-0.129933223,0.035774536, 
246,2287464670,59.60381699,80.43096161,134.7820129,-9.74151516,1.804493308,1.080170035,1.140117407,-0.008810769,1.018328905, 
247,2287481337,59.5873642,80.43753815,134.741745,-9.697384834,1.835986495,1.113574505,1.566965938,-0.032771453,1.802269697, 
248,2287498004,59.58857727,80.43618011,134.7190552,-9.685128212,1.830528975,1.1960783,1.580489278,-0.115526073,2.283736944, 
249,2287514671,59.56640244,80.4291153,134.6751099,-9.672266006,1.817387223,1.24379909,1.43084693,-0.460490733,2.448708534, 
250,2287531338,59.49774551,80.41355896,134.585968,-9.63630867,1.770993114,1.249981523,1.309545517,-1.097171426,2.639126539, 
251,2287548005,59.37691116,80.38928986,134.4357758,-9.605527878,1.750895143,1.252119541,1.78436625,-1.877807736,2.758224964, 
252,2287564672,59.21461105,80.35953522,134.2309723,-9.591058731,1.723395348,1.220215678,2.522819042,-2.510198355,2.735288858, 
253,2287581339,59.02870941,80.33118439,133.9941559,-9.558626175,1.697653651,1.216417313,2.995437622,-2.738638401,2.47190094, 
254,2287598006,58.82245636,80.302742,133.7259827,-9.508927345,1.692231417,1.228855014,3.62298727,-3.006957293,2.281406641, 
255,2287614673,58.62524796,80.2816925,133.4692993,-9.443455696,1.736321449,1.218318582,3.477122784,-2.674670696,1.938939452, 
256,2287631340,58.43260956,80.27426147,133.2288208,-9.576217651,1.787501097,1.2208395,2.790548801,-2.096617222,1.292039037, 
257,2287648007,58.20676422,80.2786026,132.9674988,-9.703573227,1.839909434,1.220332265,2.023665667,-1.893418789,0.555814743, 
258,2287664674,57.93382263,80.29141235,132.6625061,-9.770746231,1.801471472,1.202183962,1.775184274,-1.983088851,-0.131918222, 
259,2287681341,57.66200256,80.304245,132.3469849,-9.724819183,1.794177294,1.180654883,2.45968318,-2.05033493,-0.215518042, 
260,2287698008,57.45412445,80.31541443,132.0820313,-9.673834801,1.811917901,1.17643857,3.300548792,-1.649983048,0.115289167, 
261,2287714675,57.32469177,80.32342529,131.8948822,-9.658368111,1.822397947,1.184454322,3.401488543,-1.078742862,0.684621155, 
262,2287731342,57.24272156,80.32990265,131.7593842,-9.689291,1.815503001,1.17711854,3.186290026,-0.674753785,1.016766667, 
263,2287748009,57.16112137,80.34390259,131.6360168,-9.663948059,1.80915904,1.179350615,2.485603571,-0.323142618,0.69225359, 
264,2287764676,57.07232666,80.36773682,131.5078125,-9.649542809,1.755514383,1.161174059,2.334284306,-0.029364962,0.150020003, 
265,2287781343,56.96467209,80.4022522,131.3567963,-9.608395576,1.76386857,1.141314983,2.548764467,0.138379022,-0.521705091, 
266,2287798010,56.84763718,80.44618225,131.1947327,-9.599879265,1.780030251,1.145396829,2.629790306,0.372402251,-1.06799829, 
267,2287814677,56.71537781,80.4917984,131.0142059,-9.609476089,1.823103547,1.167888522,2.809066534,0.291773498,-1.263449073, 
268,2287831344,56.58493423,80.5328598,130.8340912,-9.666384697,1.842703581,1.154923677,2.887121439,0.167743996,-1.046342969, 
269,2287848011,56.44525909,80.56847382,130.6428986,-9.670520782,1.864377737,1.159884334,2.981555223,-0.085815355,-0.845411241, 
270,2287864678,56.30101395,80.59477234,130.4441071,-9.726128578,1.88897872,1.187877417,3.150765419,-0.438105255,-0.439629227, 
271,2287881345,56.14774323,80.61096191,130.2315369,-9.720002174,1.889306784,1.176538229,3.421030998,-0.874904275,-0.02098961, 
272,2287898012,56.02621078,80.61225891,130.044342,-9.65281868,1.866994023,1.163106084,3.811023235,-1.15173924,0.834148169, 
273,2287914679,55.95129395,80.60405731,129.9006348,-9.572872162,1.844843864,1.132762194,4.028422356,-1.109221935,1.521605492, 
274,2287931346,55.91672897,80.59155273,129.7964935,-9.541611671,1.838249803,1.120778322,4.10167551,-0.926501095,1.931127191, 
275,2287948013,55.89427948,80.58169556,129.7071991,-9.5656147,1.798961282,1.113766909,3.940623045,-0.714568734,1.867274761, 
276,2287964680,55.86465073,80.57873535,129.6164093,-9.535406113,1.816126943,1.086657524,3.595722914,-0.492993295,1.503075004, 
277,2287981347,55.84526062,80.58602142,129.5447845,-9.472011566,1.805851936,1.112003088,3.066102266,0.014964219,1.080810905, 
278,2287998014,55.86034775,80.60092163,129.5205383,-9.455827713,1.83628118,1.113149047,2.322681427,0.657919884,0.954617321, 
279,2288014681,55.94213867,80.62212372,129.5759583,-9.574697495,1.884756446,1.101500154,1.604334712,1.522310019,1.057785273, 
280,2288031348,56.0499115,80.64453888,129.6663666,-9.677302361,1.893152714,1.118545055,1.085101247,1.846694946,1.175693393, 
281,2288048015,56.1882515,80.66247559,129.7896118,-9.715071678,1.889552474,1.144354582,0.968435466,1.96658802,1.550496817, 
282,2288064682,56.36980438,80.66984558,129.9523315,-9.726856232,1.895876527,1.165652633,1.215918064,1.939105511,2.268484831, 
283,2288081349,56.58130646,80.66413879,130.1438751,-9.677724838,1.870633841,1.156464219,1.299889445,1.745409489,3.060890675, 
284,2288098016,56.82022476,80.64756012,130.3630371,-9.647094727,1.848761082,1.15397191,1.301707745,1.62540102,3.737833977, 
285,2288114683,57.04749298,80.62792969,130.5727692,-9.690085411,1.810820341,1.163137913,1.158750415,1.468497515,3.81825757, 
286,2288131350,57.20578003,80.6051178,130.7077789,-9.723909378,1.782936335,1.167507052,1.438889861,0.769002259,3.569264889, 
287,2288148017,57.27609634,80.58625031,130.7526398,-9.723053932,1.754563451,1.172138453,1.488193989,0.165528461,2.886480808, 
288,2288164684,57.30146408,80.56760406,130.7476044,-9.673541069,1.713968635,1.14261055,1.742284775,-0.228145123,2.597749233, 
289,2288181351,57.29301453,80.5476532,130.7000275,-9.721437454,1.737563372,1.102597356,2.224290133,-0.618854105,2.434301376, 
290,2288198018,57.26909637,80.52757263,130.6343079,-9.697385788,1.739974737,1.097890377,2.36865592,-0.769264579,2.333348989, 
291,2288214685,57.22564316,80.51165009,130.5530548,-9.733381271,1.751433969,1.109848022,2.110236883,-0.759723902,2.029556513, 
292,2288231352,57.14976501,80.50442505,130.4459229,-9.786990166,1.758921385,1.098866582,1.689522624,-0.687841833,1.442180634, 
293,2288248019,57.04283905,80.49887848,130.3100586,-9.856132507,1.738178611,1.091315866,1.52393651,-0.870127499,1.195056438, 
294,2288264686,56.90102768,80.49097443,130.1332855,-9.864767075,1.734435558,1.105702877,1.849243164,-1.284605026,1.087022305, 
295,2288281353,56.73067093,80.47544098,129.9159088,-9.843430519,1.720913649,1.112627268,2.532974482,-1.86419487,1.22999239, 
296,2288298020,56.52048492,80.45420837,129.6433105,-9.804811478,1.703707576,1.062242985,3.40535593,-2.512708187,1.203470349, 
297,2288314687,56.2733345,80.42638397,129.3194275,-9.745502472,1.680020332,1.024316072,4.220647335,-3.161068678,1.233386159, 
298,2288331354,55.9973526,80.39884949,128.9537506,-9.684981346,1.668318868,1.039615512,4.955153942,-3.496850491,0.9483549, 
299,2288348021,55.69918823,80.37285614,128.5571899,-9.602958679,1.662559748,1.018862486,5.447661877,-3.709398031,0.676015317, 
300,2288364688,55.39648438,80.35539246,128.1505432,-9.564061165,1.703714728,0.984246194,5.767833233,-3.506622076,0.163774028, 
301,2288381355,55.08093262,80.34799957,127.7328873,-9.525176048,1.73211658,0.915098369,5.644931316,-3.252634048,-0.422507197, 
302,2288398022,54.78439713,80.35211182,127.3343811,-9.453316689,1.709964752,0.873941898,5.648164749,-2.691812038,-0.902418911, 
303,2288414689,54.5610733,80.37296295,127.0101547,-9.406659126,1.777062297,0.852486908,5.649496078,-1.489161015,-1.314264655, 
304,2288431356,54.43135452,80.40886688,126.7938309,-9.384162903,1.836834311,0.871609449,4.879302979,-0.078669406,-1.421632767, 
305,2288448023,54.40726089,80.4546814,126.703125,-9.354536057,1.843515873,0.846970677,3.784538746,1.295868278,-1.18930006, 
306,2288464690,54.49973679,80.50721741,126.7386169,-9.386945724,1.832661986,0.831063986,3.31045413,2.541983604,-0.793212473, 
307,2288481357,54.69101334,80.56162262,126.873909,-9.42286396,1.852955222,0.828826547,3.328748465,3.397287846,-0.331018567, 
308,2288498024,54.93768311,80.61824799,127.0587082,-9.507661819,1.844762683,0.802467167,3.717664719,3.851273537,-0.188278988, 
309,2288514691,55.22424698,80.6739502,127.2643204,-9.606942177,1.861869693,0.807754278,4.877574444,3.960639715,-0.056783359, 
310,2288531358,55.5583725,80.72676849,127.5034485,-9.64444828,1.892227411,0.834149361,5.742745876,4.107157707,0.232159942, 
311,2288548025,55.95531082,80.7765274,127.8028641,-9.664966583,1.954211354,0.844804227,5.93598175,4.456182003,0.674132824, 
312,2288564692,56.42818069,80.81990051,128.180542,-9.699105263,1.961200118,0.869892657,5.856863976,4.846736431,1.352229118, 
313,2288581359,56.97276688,80.85808563,128.637558,-9.715003014,1.970158577,0.898249865,5.449698448,5.287352562,1.973465323, 
314,2288598026,57.55036926,80.89035797,129.136673,-9.747704506,1.952950835,0.894807816,4.934537411,5.423803806,2.413478851, 
315,2288614693,58.14157104,80.91519928,129.6481781,-9.848353386,1.92601037,0.954409182,5.008544922,5.279706478,2.785835981, 
316,2288631360,58.68173599,80.93052673,130.1043854,-9.926917076,1.911729336,0.994153857,5.22341013,4.538078308,2.93593955, 
317,2288648027,59.13779449,80.92983246,130.4664459,-9.896664619,1.836811423,1.011291504,5.746151924,3.294837236,3.245724678, 
318,2288664694,59.522892,80.91398621,130.7382965,-9.871951103,1.811423779,1.001281142,6.833321095,2.114219666,3.565448046, 
319,2288681361,59.81904221,80.88829041,130.9066162,-9.857335091,1.789113402,1.005178809,7.625869751,0.98898983,3.566703558, 
320,2288698028,60.01605225,80.8611145,130.9681091,-9.885483742,1.752900481,0.994573057,8.008164406,0.080865718,3.12955904, 
321,2288714695,60.10928726,80.84062958,130.917511,-9.904358864,1.764808893,1.020268798,8.414562225,-0.634670079,2.239402294, 
322,2288731362,60.11315918,80.83359528,130.7861328,-9.81840992,1.802262902,1.071744442,7.836008072,-0.900798738,1.158532977, 
323,2288748029,60.0690155,80.83461761,130.6230011,-9.781830788,1.836657286,1.084218025,6.832689285,-0.916288137,0.580883384, 
324,2288764696,59.97832489,80.84127045,130.4288635,-9.791783333,1.8529706,1.038662314,5.871020794,-0.993868947,0.129638702, 
325,2288781363,59.83397293,80.8480072,130.1947632,-9.780440331,1.869432807,1.065434098,5.013180733,-1.313457847,-0.074776284, 
326,2288798030,59.63759995,80.85900879,129.9141846,-9.758751869,1.844554663,1.053390026,4.641591072,-1.556035519,-0.52836436, 
327,2288814697,59.35826492,80.87697601,129.5545044,-9.698410988,1.874140501,1.086335778,4.345405579,-1.974470258,-1.284950733, 
328,2288831364,58.98561096,80.89774323,129.1044312,-9.683279991,1.951575041,1.044064403,4.096143246,-2.597934723,-1.888411522, 
329,2288848031,58.52170181,80.91593933,128.5683899,-9.706980705,1.988663912,1.004559636,3.710941315,-3.335811377,-2.209121227, 
330,2288864698,58.00417328,80.92719269,127.9798889,-9.662644386,2.006356478,1.00216949,3.599308252,-3.940847158,-2.146728516, 
331,2288881365,57.46601486,80.9289856,127.37117,-9.648007393,2.022843599,0.923048317,3.549863338,-4.366940498,-1.818156242, 
332,2288898032,56.94772339,80.92580414,126.7765808,-9.612687111,2.039359093,0.848850727,3.902920485,-4.383767128,-1.55763638, 
333,2288914699,56.47013474,80.92331696,126.228157,-9.596135139,2.063974142,0.862859786,3.603688002,-3.977896214,-1.40011847, 
334,2288931366,56.01947784,80.92420197,125.7159271,-9.581468582,2.104254007,0.876375198,3.070367575,-3.563239098,-1.424655318, 
335,2288948033,55.63179016,80.93434143,125.2938385,-9.523505211,2.118221998,0.81824106,1.506442785,-2.522312641,-1.454519391, 
336,2288964700,55.31292343,80.94880676,124.9621811,-9.5448246,2.092791796,0.795511544,0.275547802,-1.656757236,-1.208727121, 
337,2288981367,55.06339645,80.96373749,124.712204,-9.572865486,2.087941408,0.80086726,-0.40696016,-0.995706618,-0.812908649, 
338,2288998034,54.86912918,80.97679138,124.5219727,-9.58484745,2.066737652,0.785061836,-0.632941008,-0.598082185,-0.40698579, 
339,2289014701,54.71550369,80.98995209,124.3695755,-9.600604057,2.033384562,0.774473846,-0.438258946,-0.30080834,-0.224892303, 
340,2289031368,54.57978439,81.00379181,124.2323303,-9.634191513,2.028900385,0.825141907,-0.262453318,-0.161705777,-0.191570163, 
341,2289048035,54.42734146,81.01996613,124.0854797,-9.667858124,2.054022789,0.872200787,-0.695756197,-0.155891687,-0.360473096, 
342,2289064702,54.26322556,81.03619385,123.9387589,-9.755819321,2.05204916,0.896704674,-1.405048609,-0.14974466,-0.375507772, 
343,2289081369,54.06809235,81.0470047,123.7645569,-9.791600227,1.980290294,0.912581801,-1.643938422,-0.539826155,-0.280881673, 
344,2289098036,53.83887482,81.04704285,123.5487366,-9.845427513,1.931023002,0.917753637,-1.218972564,-1.230575085,0.001965775, 
345,2289114703,53.58657074,81.03612518,123.2966766,-9.885083199,1.903122425,0.93269217,-0.459056377,-1.89377737,0.319050968, 
346,2289131370,53.2820549,81.01635742,122.9840317,-9.85962677,1.839231849,0.956848621,-0.002279531,-2.668074846,0.390945852, 
347,2289148037,52.93556595,80.99414063,122.6246033,-9.844655991,1.802445769,0.964868128,0.249333203,-3.109842777,0.216894731, 
348,2289164704,52.50691986,80.97235107,122.1860504,-9.834597588,1.76937747,0.987216711,0.007190766,-3.687588453,-0.288078874, 
349,2289181371,52.0008316,80.95547485,121.6771698,-9.849287987,1.711464643,0.945587337,-0.477254182,-4.032642365,-0.960437715, 
350,2289198038,51.42913437,80.9391098,121.0946503,-9.785844803,1.631871343,0.925595522,-0.047204211,-4.544384956,-1.472756028, 
351,2289214705,50.83773041,80.92290497,120.4818344,-9.675498009,1.596981764,0.909178674,0.563127279,-4.750772476,-1.709494114, 
352,2289231372,50.23085403,80.90828705,119.8423767,-9.660464287,1.617369056,0.880461454,1.211307883,-4.862417698,-2.010545969, 
353,2289248039,49.58416748,80.89925385,119.1587067,-9.663300514,1.634502769,0.864750504,1.444422007,-4.951139927,-2.593580484, 
354,2289264706,48.89827728,80.90163422,118.4368591,-9.620566368,1.649045587,0.84612453,1.354521275,-4.743446827,-3.413686752, 
355,2289281373,48.21052551,80.91879272,117.7171631,-9.59869194,1.677048564,0.831021249,1.12145865,-4.088670731,-4.12306881, 
356,2289298040,47.55766296,80.94837952,117.0356445,-9.530795097,1.752036929,0.819247484,0.957972646,-3.257858515,-4.475780964, 
357,2289314707,46.99293137,80.98851013,116.4554062,-9.542807579,1.822163701,0.812272012,0.24989675,-2.060285807,-4.320632458, 
358,2289331374,46.50065613,81.03704834,115.9578018,-9.565678596,1.871403933,0.832867563,-0.293470293,-1.094353676,-4.165956497, 
359,2289348041,46.08874512,81.08905792,115.5500565,-9.59239769,1.907410383,0.833544791,-0.79052335,-0.291651875,-3.743745089, 
360,2289364708,45.74800873,81.13732147,115.2153168,-9.55412674,1.925405622,0.834449232,-0.843080401,0.07377097,-3.108369827, 
361,2289381375,45.5046196,81.17823792,114.9753342,-9.495183945,1.941589117,0.847480476,-0.613565028,0.412895918,-2.183073044, 
362,2289398042,45.38440704,81.20915985,114.8612595,-9.478498459,1.962370634,0.833637953,-0.68743211,0.82272476,-0.948271871, 
363,2289414709,45.37875366,81.23267365,114.8662872,-9.446996689,1.981468797,0.860563993,-0.873751581,1.279463172,0.126481906, 
364,2289431376,45.45981979,81.24920654,114.9657974,-9.521326065,1.999672651,0.882920623,-1.271106958,1.59356451,1.014179707, 
365,2289448043,45.58847809,81.25306702,115.1195068,-9.574021339,1.955827236,0.888223708,-1.628826857,1.405067921,1.889916182, 
366,2289464710,45.78614807,81.23989868,115.3400421,-9.567696571,1.934299707,0.874068916,-1.447950125,1.126645207,3.025890827, 
367,2289481377,46.06539917,81.21099091,115.6352005,-9.567687988,1.902691483,0.859896004,-0.97547245,0.958356738,4.177117825, 
368,2289498044,46.39997864,81.1698761,115.9853668,-9.620781898,1.886178136,0.89510113,-0.915205896,0.831407487,5.051983833, 
369,2289514711,46.75349045,81.11794281,116.3592148,-9.692098618,1.827460408,0.903508008,-1.177812934,0.578507662,5.663691998, 
370,2289531378,47.07333374,81.05835724,116.7019348,-9.741883278,1.762060881,0.889085531,-1.345755577,0.086282805,5.813847065, 
371,2289548045,47.35852432,80.98910522,117.0028458,-9.747531891,1.656193376,0.889979303,-0.939435422,-0.552722096,5.97501421, 
372,2289564712,47.6086235,80.917099,117.2526398,-9.73982048,1.592408538,0.856018007,-0.010117017,-0.996859193,5.796327591, 
373,2289581379,47.82809448,80.84513092,117.4548569,-9.763374329,1.555713177,0.8341012,0.979359269,-1.304608583,5.507325649, 
374,2289598046,48.00730896,80.78535461,117.608345,-9.782952309,1.578890324,0.859686971,1.459200382,-1.141762972,4.662004471, 
375,2289614713,48.14017105,80.74190521,117.7237778,-9.782799721,1.599498153,0.858921051,0.939954221,-0.757111549,3.702361345, 
376,2289631380,48.25072861,80.71818542,117.83992,-9.773508072,1.600673795,0.894185305,-0.434967697,0.041178819,2.823614597, 
377,2289648047,48.34338379,80.70990753,117.9512482,-9.765342712,1.563790083,0.894460618,-1.219331026,0.614788055,2.109212399, 
378,2289664714,48.41267014,80.71198273,118.0408859,-9.793323517,1.569487095,0.866207004,-1.330964088,0.864243031,1.505828381, 
379,2289681381,48.422966,80.72078705,118.0640182,-9.839101791,1.58868444,0.874088645,-0.925502181,0.641937554,0.777428746, 
380,2289698048,48.35195923,80.73091888,117.9966965,-9.825293541,1.622475028,0.920415878,-0.442881972,0.032931529,0.136214748, 
381,2289714715,48.20601654,80.73960876,117.8468704,-9.825929642,1.662360668,0.922557771,-0.04793416,-0.625282824,-0.330634326, 
382,2289731382,47.98950958,80.74390411,117.6186066,-9.810146332,1.706971765,0.909029543,0.365845412,-1.369203687,-0.636091411, 
383,2289748049,47.72141647,80.74615479,117.3327713,-9.798045158,1.715517402,0.884073377,0.684493005,-1.859366894,-0.933134675, 
384,2289764716,47.4090538,80.74900055,116.9948273,-9.805800438,1.748468518,0.895311296,1.118423462,-2.20942831,-1.306708694, 
385,2289781383,47.09132767,80.75082397,116.6433792,-9.741704941,1.784180403,0.885356247,1.601056576,-2.337389708,-1.369267941, 
386,2289798050,46.78901672,80.74887085,116.3084793,-9.676506996,1.81032145,0.893582523,1.547282338,-2.375795841,-1.107928753, 
387,2289814717,46.52522659,80.74594116,116.0224304,-9.655097961,1.81546545,0.849715889,0.97036916,-2.071119785,-0.759570241, 
388,2289831384,46.29198837,80.74528503,115.7695389,-9.653389931,1.820626616,0.844740927,0.843983233,-1.749718666,-0.652445138, 
389,2289848051,46.05737305,80.74874115,115.5146332,-9.652177811,1.813505292,0.849493384,0.882786512,-1.597092509,-0.856501341, 
390,2289864718,45.81427002,80.75724792,115.2518997,-9.676689148,1.81476903,0.871778369,0.843278825,-1.439267039,-1.140827894, 
391,2289881385,45.57559204,80.76328278,114.9901581,-9.62186718,1.828958392,0.858599782,1.054097176,-1.538145185,-1.033485293, 
392,2289898052,45.40224075,80.76558685,114.7928162,-9.577306747,1.855499864,0.834256172,1.163239121,-1.254465222,-0.453171909, 
393,2289914719,45.27830124,80.76447296,114.642868,-9.604437828,1.865473509,0.800481677,1.329081535,-1.079632998,0.002663721, 
394,2289931386,45.15376663,80.76113892,114.4914398,-9.660701752,1.848991394,0.838253617,1.384257436,-1.19588244,0.078855097, 
395,2289948053,45.03281021,80.75843811,114.3335724,-9.703228951,1.837155461,0.822857618,1.984222293,-1.224581718,0.000979686, 
396,2289964720,44.93590927,80.75579834,114.194313,-9.650568008,1.874143124,0.81548357,2.331658363,-1.104790926,0.114008516, 
397,2289981387,44.91586685,80.75576019,114.1365585,-9.560984612,1.86654985,0.823282957,2.119918585,-0.452947795,0.554431736, 
398,2289998054,44.99027252,80.75907898,114.1834412,-9.537493706,1.88188374,0.830393136,1.595190763,0.390651286,1.119729638, 
399,2290014721,45.11826324,80.76822662,114.2942963,-9.558437347,1.85298574,0.838714898,1.022990346,1.065404773,1.29607296, 
400,2290031388,45.23719788,80.78514099,114.4052505,-9.641986847,1.859847546,0.878253639,0.48445785,1.383591771,0.953823447, 
401,2290048055,45.32162857,80.80332947,114.4850388,-9.672062874,1.83504951,0.884481847,0.26244694,1.212460399,0.682034135, 
402,2290064722,45.37796402,80.81851196,114.5306091,-9.703930855,1.838576794,0.870308876,0.604914248,0.841537118,0.572744727, 
403,2290081389,45.42928696,80.82802582,114.5644836,-9.76070118,1.846203923,0.870972097,1.00456202,0.515039384,0.727010071, 
404,2290098056,45.46607208,80.82926178,114.5741882,-9.795294762,1.832004666,0.918253064,1.56654954,-0.006780962,0.912926316, 
405,2290114723,45.4968338,80.82759094,114.575058,-9.812600136,1.848416924,0.945223629,1.73269248,-0.198447168,0.972981513, 
406,2290131390,45.49526215,80.81980133,114.5421829,-9.787746429,1.831120372,0.91527009,1.794816375,-0.694577992,1.004959106, 
407,2290148057,45.47731781,80.81166077,114.5004425,-9.799724579,1.805502295,0.930853486,1.339576125,-0.775001824,0.951761484, 
408,2290164724,45.43226624,80.80303192,114.4332123,-9.795284271,1.757112384,0.928077161,1.225778937,-0.9809919,0.799391448, 
409,2290181391,45.37084961,80.7918396,114.347908,-9.742012024,1.703445435,0.884126425,1.318740129,-1.215476274,0.778465986, 
410,2290198058,45.28848648,80.77968597,114.2373505,-9.716477394,1.675202489,0.883419275,1.561113238,-1.438050628,0.644690871, 
411,2290214725,45.17884827,80.76847839,114.0949478,-9.725954056,1.653818607,0.876512349,1.815165639,-1.629736066,0.390997082, 
412,2290231392,45.02414322,80.7609024,113.9103622,-9.694527626,1.641590118,0.864585817,1.613004565,-1.768736362,-0.060714908, 
413,2290248059,44.84058762,80.7591629,113.6956253,-9.689397812,1.635711193,0.841378391,1.671465635,-1.734479308,-0.519105434, 
414,2290264726,44.61479568,80.76094818,113.4363708,-9.714719772,1.665259719,0.8113814,1.780332208,-1.888257742,-0.982003629, 
415,2290281393,44.3677597,80.76545715,113.1498032,-9.724103928,1.702808261,0.7919209,2.1300354,-1.95882082,-1.293338895, 
416,2290298060,44.12696457,80.77167511,112.8636627,-9.686309814,1.713319063,0.768525124,2.486000299,-1.885017872,-1.370343328, 
417,2290314727,43.93233871,80.78186035,112.6225128,-9.618082047,1.794739008,0.778662145,2.595149279,-1.418188095,-1.229896188, 
418,2290331394,43.7822876,80.79790497,112.4332352,-9.598061562,1.828665972,0.785428703,2.205804348,-0.821482539,-1.121881127, 
419,2290348061,43.67362595,80.81629181,112.2978058,-9.632891655,1.86276865,0.785330057,1.505616903,-0.369520813,-0.849643767, 
420,2290364728,43.57510757,80.83535004,112.1783524,-9.650876999,1.875295997,0.789793968,1.173221707,-0.241578966,-0.769956172, 
421,2290381395,43.48752594,80.85045624,112.0638351,-9.658317566,1.864903688,0.774422705,1.544580221,-0.388006806,-0.579999685, 
422,2290398062,43.43550873,80.8620224,111.9758606,-9.680060387,1.90685463,0.766057968,2.111946344,-0.372888893,-0.26024425, 
423,2290414729,43.42724609,80.86760712,111.9290237,-9.652555466,1.919919252,0.788841307,2.305354357,-0.379452139,0.266570568, 
424,2290431396,43.47649765,80.86675262,111.9445801,-9.61605072,1.947392464,0.818080008,2.064518213,-0.263657153,0.959266007, 
425,2290448063,43.59538269,80.86244965,112.0396271,-9.590963364,1.902618527,0.795844197,1.540072322,0.099422097,1.640128493, 
426,2290464730,43.76353073,80.85540009,112.1927414,-9.599370003,1.869515061,0.789686263,1.058643341,0.352257848,2.150384665, 
427,2290481397,43.94913864,80.84929657,112.3650436,-9.597381592,1.833432317,0.782739639,0.974877059,0.515718162,2.233305931, 
428,2290498064,44.13162994,80.84380341,112.5337448,-9.629875183,1.836651444,0.835642457,1.00696981,0.514603972,2.173602581, 
429,2290514731,44.29000092,80.83556366,112.6802444,-9.681933403,1.871187806,0.822958052,0.878739774,0.241841525,2.133262634, 
430,2290531398,44.4352684,80.82244873,112.8189087,-9.773942947,1.888646603,0.837560892,0.561820924,-0.019516878,2.2729671, 
431,2290548065,44.5567894,80.79899597,112.9336929,-9.80437088,1.831251621,0.814693332,0.555763602,-0.626781166,2.54072237, 
432,2290564732,44.67993927,80.76502991,113.0351944,-9.818296432,1.782341838,0.81229496,1.447226286,-1.170730829,2.892512321, 
433,2290581399,44.81052399,80.72447968,113.1324921,-9.756632805,1.763818026,0.864134252,2.145223379,-1.48083663,3.141147614, 
434,2290598066,44.93769073,80.68215942,113.2236481,-9.756270409,1.738179684,0.857806981,2.30895257,-1.598590851,3.179272413, 
435,2290614733,45.0213623,80.64414215,113.2833557,-9.760098457,1.740892172,0.88816607,1.564340472,-1.631874919,2.781853199, 
436,2290631400,45.06427002,80.61003876,113.3104248,-9.778522491,1.671062708,0.836710334,1.054327607,-1.694574714,2.389722586, 
437,2290648067,45.03419495,80.57702637,113.261055,-9.754756927,1.602736712,0.818419456,1.205160856,-2.182573795,1.809671879, 
438,2290664734,44.96010208,80.55057526,113.1571121,-9.708964348,1.607097864,0.815956295,1.796686172,-2.300584078,1.155715466, 
439,2290681401,44.82524109,80.52974701,112.9843063,-9.737737656,1.629672289,0.843225121,2.23233223,-2.548719645,0.427584797, 
440,2290698068,44.64395142,80.51663971,112.7678223,-9.751253128,1.700364113,0.842664719,2.036075115,-2.53588748,-0.209460646, 
441,2290714735,44.4055748,80.50785828,112.4995346,-9.778303146,1.707038999,0.815958917,1.682376504,-2.712653637,-0.772299707, 
442,2290731402,44.15346146,80.5005722,112.2107925,-9.733539581,1.700282693,0.793598473,2.07147193,-2.799032927,-0.987510443, 
443,2290748069,43.90014648,80.49267578,111.9129333,-9.724340439,1.757544875,0.804958522,2.543834448,-2.885386229,-1.048007846, 
444,2290764736,43.66746902,80.4871521,111.6352615,-9.726933479,1.789955378,0.8011747,2.593574286,-2.653642416,-1.009703994, 
445,2290781403,43.42804337,80.48101807,111.3522034,-9.757525444,1.830398679,0.827850759,2.511613607,-2.721797943,-1.038172603, 
446,2290798070,43.18675995,80.47366333,111.0692596,-9.74206543,1.833922744,0.797170699,2.39439702,-2.775187254,-1.001968861, 
447,2290814737,42.96284485,80.46743774,110.7971878,-9.70708847,1.833315969,0.778704762,2.800704241,-2.656306028,-0.985397577, 
448,2290831404,42.7791748,80.46059418,110.5600586,-9.696657181,1.837311745,0.796572626,3.152264118,-2.453824997,-0.718436301, 
449,2290848071,42.64883041,80.45187378,110.3740234,-9.648309708,1.82293272,0.77780062,3.336471081,-2.202180147,-0.278935134, 
450,2290864738,42.53800201,80.4421463,110.2073822,-9.595687866,1.819941401,0.770637572,3.36232686,-2.125124454,-0.105652392, 
451,2290881405,42.45136642,80.43764496,110.0688248,-9.578540802,1.819689989,0.74754411,3.160779953,-1.712926149,-0.122159779, 
452,2290898072,42.36999512,80.44124603,109.9391632,-9.553397179,1.826540709,0.771152079,2.950499535,-1.309974432,-0.382717758, 
453,2290914739,42.30573273,80.45185852,109.8314667,-9.564073563,1.839365125,0.758291543,2.686509371,-0.85890907,-0.512766242, 
454,2290931406,42.2699585,80.46797943,109.7544632,-9.595526695,1.864532709,0.730999887,2.584378958,-0.417922407,-0.514136493, 
455,2290948073,42.2844696,80.4850235,109.7325974,-9.565152168,1.906919241,0.771281004,2.349497557,-0.015918292,-0.154354945, 
456,2290964740,42.36380005,80.50325775,109.7781296,-9.550842285,1.922493577,0.778362036,2.255179167,0.474609733,0.286446065, 
457,2290981407,42.480793,80.52365112,109.8652649,-9.5858078,1.941280484,0.825026929,2.055195093,0.8329826,0.497942954, 
458,2290998074,42.61178589,80.54199982,109.9738159,-9.668578148,1.972013116,0.852732062,1.631906509,0.877676666,0.724730492, 
459,2291014741,42.73937607,80.55548096,110.083992,-9.740063667,1.970538735,0.892528594,1.335491061,0.666935563,0.921141624, 
460,2291031408,42.85486984,80.55812836,110.1795197,-9.801939964,1.96230197,0.916382551,1.481649637,0.084720396,1.247383118, 
461,2291048075,42.98345184,80.54837036,110.280098,-9.779874802,1.910811663,0.909390152,1.966869712,-0.432957113,1.787427187, 
462,2291064742,43.12501526,80.52613831,110.3864441,-9.722254753,1.864938736,0.936381698,2.410654545,-0.936560452,2.327784538, 
463,2291081409,43.26993561,80.49868774,110.4983597,-9.693590164,1.853876591,0.961183429,2.282085419,-1.131505013,2.588835955, 
464,2291098076,43.36038589,80.4695816,110.5671844,-9.721948624,1.813115954,0.944351852,1.567414045,-1.484486461,2.333694696, 
465,2291114743,43.36601639,80.44161224,110.5604019,-9.74385643,1.764414907,0.922350645,0.951069891,-1.963840961,1.753310919, 
466,2291131410,43.30362701,80.41679382,110.486618,-9.723653793,1.701938629,0.900936306,0.838194788,-2.283269405,1.127579927, 
467,2291148077,43.19950867,80.39431763,110.3662338,-9.676774979,1.678417444,0.884462595,1.091555715,-2.508853674,0.687540948, 
468,2291164744,43.07065201,80.37496185,110.217247,-9.686656952,1.658735514,0.835969865,1.301490068,-2.574537277,0.345124751, 
469,2291181411,42.92282104,80.36328125,110.0486069,-9.667751312,1.706345201,0.812571585,1.331488848,-2.382070303,-0.119175889, 
470,2291198078,42.74877548,80.36126709,109.8587418,-9.686086655,1.72973001,0.805141687,1.018597722,-2.104544401,-0.682386398, 
471,2291214745,42.56184769,80.37447357,109.6677475,-9.669968605,1.736779928,0.792426825,0.314568728,-1.444338441,-1.313073277, 
472,2291231412,42.38208008,80.39860535,109.4915161,-9.680767059,1.788622856,0.790273368,-0.120328456,-0.861828804,-1.646217704, 
473,2291248079,42.22826004,80.42901611,109.3457336,-9.683655739,1.795758009,0.762595713,-0.361203104,-0.377262294,-1.673008919, 
474,2291264746,42.11569214,80.46154022,109.243515,-9.700870514,1.821498871,0.790484786,-0.453908294,0.01324817,-1.443160415, 
475,2291281413,42.01906967,80.49378967,109.1539307,-9.719279289,1.825801969,0.742914557,-0.241361246,0.078150742,-1.33342278, 
476,2291298080,41.937397,80.52684784,109.0736465,-9.691742897,1.851046681,0.726687551,0.114866562,0.176874906,-1.302969217, 
477,2291314747,41.87810898,80.56127167,109.0170593,-9.674921989,1.841610432,0.764403582,0.061553724,0.386873424,-1.184292793, 
478,2291331414,41.84099579,80.5953598,108.987442,-9.601250648,1.864325047,0.75199008,-0.199945539,0.542316854,-0.973513067, 
479,2291348081,41.85598755,80.62910461,109.0159531,-9.556990623,1.863234282,0.744120657,-0.508463383,0.898871362,-0.539326668, 
480,2291364748,41.8954277,80.66495514,109.0751266,-9.60224247,1.873366952,0.759793758,-0.851776004,1.185042024,-0.408983588, 
481,2291381415,41.92681503,80.69851685,109.1302032,-9.643381119,1.894950628,0.805139244,-1.085812092,1.045811415,-0.356106162, 
482,2291398082,41.94248581,80.72771454,109.1696777,-9.658162117,1.898481011,0.781940103,-1.10120523,0.745054185,-0.303318381, 
483,2291414749,41.98738861,80.74602509,109.2347031,-9.642622948,1.935631394,0.803946257,-0.854049027,0.415566027,0.312974364, 
484,2291431416,42.08024216,80.75201416,109.3448105,-9.678076744,1.951570153,0.804291189,-0.647745192,0.153247193,1.118602633, 
485,2291448083,42.21713638,80.7469635,109.5027008,-9.71320343,1.965764046,0.838734627,-0.831093669,-0.035550423,1.900532603, 
486,2291464750,42.38370514,80.72885895,109.6898193,-9.757413864,1.919147372,0.845245838,-0.778536439,-0.424325556,2.629124165, 
487,2291481417,42.57486343,80.69874573,109.9016342,-9.738940239,1.908605576,0.856795132,-0.759301245,-0.788141131,3.286858559, 
488,2291498084,42.77515411,80.66015625,110.1242371,-9.733306885,1.842803359,0.877191484,-0.851904154,-1.079024792,3.708200693, 
489,2291514751,42.98358917,80.61156464,110.3537827,-9.736692429,1.777477503,0.861421943,-0.77058363,-1.462920427,4.175759792, 
490,2291531418,43.17723465,80.55580902,110.5593872,-9.693095207,1.682769895,0.839740992,-0.236123487,-1.914984822,4.300750256, 
491,2291548085,43.33878708,80.49845886,110.720192,-9.689569473,1.628970981,0.797650695,0.494997531,-2.275330067,4.058031559, 
492,2291564752,43.43553925,80.4439621,110.8089523,-9.620125771,1.629719615,0.811373711,0.873681247,-2.632114887,3.428138018, 
493,2291581419,43.50455856,80.40458679,110.8778687,-9.591869354,1.637289405,0.78895551,0.383991987,-2.10887289,2.66733861, 
494,2291598086,43.53883743,80.37773895,110.9172821,-9.639053345,1.69075942,0.788753092,0.052320346,-1.76584208,1.934533715, 
495,2291614753,43.55718994,80.36030579,110.9482727,-9.69849968,1.709538579,0.772672296,-0.404847145,-1.423310637,1.489730716, 
496,2291631420,43.5569725,80.3470993,110.9604568,-9.73901844,1.753147602,0.776173651,-0.397931695,-1.368985891,1.168355227, 
497,2291648087,43.56432343,80.33405304,110.9751358,-9.752528191,1.78426826,0.764085054,-0.092474647,-1.356768608,1.184747219, 
498,2291664754,43.59509277,80.31803894,111.0063705,-9.70259285,1.809322596,0.76356411,0.335904121,-1.374057293,1.425711632, 
499,2291681421,43.62629318,80.30117798,111.0367508,-9.679439545,1.829749465,0.76453048,0.422846437,-1.425384998,1.451836586, 
500,2291698088,43.63959122,80.28608704,111.0487671,-9.682634354,1.846379638,0.760872424,0.434756309,-1.477558136,1.240198731, 
501,2291714755,43.6291275,80.27171326,111.0344543,-9.68234539,1.845468163,0.779123306,0.566341579,-1.639699221,1.018648982, 
502,2291731422,43.60006714,80.25886536,110.9951248,-9.63704586,1.881422758,0.777220488,0.938148379,-1.758427024,0.768579483, 
503,2291748089,43.59250259,80.25150299,110.9762268,-9.591046333,1.95950532,0.796705008,1.023220897,-1.379768848,0.684505761, 
504,2291764756,43.63273621,80.24703979,111.0146561,-9.641073227,2.02017808,0.809491634,0.502169013,-0.8531847,0.980639815, 
505,2291781423,43.72129822,80.24526978,111.1103745,-9.620631218,2.033933878,0.847882092,0.026502743,-0.344029814,1.2824471, 
506,2291798090,43.87087631,80.24849701,111.2827454,-9.62402153,2.102279902,0.864803493,-0.849701285,0.410795689,1.633507371, 
507,2291814757,44.06123352,80.25367737,111.500885,-9.672322273,2.064062357,0.905222833,-1.107313871,0.814157307,1.879235864, 
508,2291831424,44.29475784,80.26249695,111.7624359,-9.64896965,2.123995781,0.932379603,-1.084941149,1.28006494,2.031669378, 
509,2291848091,44.54373169,80.27578735,112.0490112,-9.518909454,2.100926876,0.8927176,-1.629287839,1.658697724,1.996964574, 
510,2291864758,44.83805847,80.30171204,112.3887939,-9.417581558,2.115096807,0.852431893,-2.060989857,2.571815968,1.834324002, 
511,2291881425,45.18598938,80.34534454,112.7966766,-9.367132187,2.171536922,0.848000944,-2.875742435,3.811547518,1.527637362, 
512,2291898092,45.59158707,80.41663361,113.2886047,-9.423841476,2.269677401,0.870092928,-4.384113789,5.563508034,0.884976447, 
513,2291914759,46.022686,80.51365662,113.8396912,-9.43652916,2.375029087,0.954100907,-6.360889912,7.033934593,0.102047421, 
514,2291931426,46.50557709,80.62319183,114.4705963,-9.583918571,2.526619196,0.99564755,-7.982009411,8.074566841,-0.010667694, 
515,2291948093,47.0218277,80.71685791,115.1476212,-9.775740623,2.59926796,1.047539473,-8.708039284,7.697881222,0.850630224, 
516,2291964760,47.5532341,80.77627563,115.8295975,-9.889166832,2.623289108,1.077208281,-8.114068031,6.312963009,2.267217875, 
517,2291981427,48.06223297,80.7954483,116.4683456,-9.97576046,2.650446653,1.086834192,-6.875359058,4.373772621,3.678400993, 
518,2291998094,48.4728508,80.78138733,116.9955444,-10.06139183,2.675638199,1.125262737,-6.190667152,2.287297726,4.394595623, 
519,2292014761,48.725914,80.7349472,117.3642197,-10.04377079,2.679669619,1.149179578,-6.26974678,-0.095343292,4.82269907, 
520,2292031428,48.83316803,80.65224457,117.5883636,-9.949947357,2.627918005,1.12913096,-6.52387619,-2.522480011,5.550484657, 
521,2292048095,48.86354828,80.52864838,117.7334595,-9.75195694,2.544041872,1.03441751,-6.348659992,-4.735251904,6.879707813, 
522,2292064762,48.89591599,80.36503601,117.8605881,-9.520767212,2.452889919,0.989129066,-5.474550724,-6.295669079,8.618402481, 
523,2292081429,48.95425034,80.16777039,118.012352,-9.439012527,2.431088686,0.996861935,-5.140395164,-7.506868839,10.28419018, 
524,2292098096,48.98572922,79.94480133,118.1343536,-9.455421448,2.399059772,0.979673982,-5.560213566,-8.489360809,11.35942554, 
525,2292114763,48.98360825,79.70799255,118.2536926,-9.560482025,2.329977989,1.002272725,-6.506553173,-9.387766838,11.81453991, 
526,2292131430,48.87788773,79.45463562,118.245163,-9.740055084,2.27474165,1.01624465,-6.931303024,-10.3672123,11.98057652, 
527,2292148097,48.76179886,79.18668365,118.2532654,-9.788362503,2.164879084,1.053003907,-6.263964653,-11.75072289,12.3178587, 
528,2292164764,48.61756134,78.890625,118.1947861,-9.792532921,2.08535862,1.111447573,-4.900368214,-13.10188389,13.21494484, 
529,2292181431,48.50691605,78.56609344,118.1441879,-9.744362831,2.028768063,1.176897883,-3.264535189,-14.24380684,14.50134754, 
530,2292198098,48.44775009,78.22170258,118.1156387,-9.765197754,1.971007705,1.318382263,-2.17354846,-14.57565975,15.6713028, 
531,2292214765,48.40348816,77.88582611,118.1033325,-9.824636459,1.895931125,1.452351451,-1.824113727,-14.27921677,15.33386707, 
532,2292231432,48.32328796,77.58348083,118.0457382,-9.838587761,1.781934381,1.572427869,-1.801087141,-13.18448639,13.52181244, 
533,2292248099,48.20326233,77.32749939,117.9257736,-9.684430122,1.725051403,1.652534008,-0.421623796,-12.01666832,10.85801983, 
534,2292264766,48.19413376,77.11115265,117.8423615,-9.551677704,1.989554167,1.894507885,4.377233028,-10.22831059,9.318208694, 
535,2292281433,48.34162903,76.91191864,117.8573456,-9.58788681,2.475383282,2.155289412,8.3153162,-8.680368423,9.369470596, 
536,2292298100,48.47160721,76.73418427,117.9207458,-9.585959435,3.032175303,2.538513899,4.326069832,-7.246334553,8.893046379, 
537,2292314767,48.48635483,76.59050751,118.0942459,-9.424118042,3.028655291,2.636004448,-9.005788803,-4.714622021,8.377989769, 
538,2292331434,48.43229675,76.49795532,118.4166336,-9.269085884,2.840373039,2.407300711,-21.65148926,-1.154456139,7.423233032, 
539,2292348101,48.36763,76.44519043,118.9053192,-8.982383728,2.550881386,2.133779526,-32.08391953,2.258324862,7.216975212, 
540,2292364768,48.34463882,76.42737579,119.5693741,-8.787855148,2.287283421,1.913568854,-39.91868973,5.583146572,7.320466042, 
541,2292381435,48.34515381,76.4422226,120.3560791,-8.670166969,2.025006533,1.698310494,-45.57568741,8.164078712,6.979763508, 
542,2292398102,48.44028091,76.49578094,121.2549667,-8.525472641,1.674677849,1.424549103,-46.5674057,10.94385242,6.293315887, 
543,2292414769,48.67244339,76.58982086,122.2110977,-8.472658157,1.467752695,1.197430849,-41.64955521,13.1165905,4.914079666, 
544,2292431436,49.06413651,76.7109375,123.203476,-8.488012314,1.683668494,1.23932898,-34.26609421,14.54145908,3.899841309, 
545,2292448103,49.50289917,76.83811188,124.224617,-8.559207916,2.160655737,1.511667371,-33.13111496,15.01866913,3.682271481, 
546,2292464770,49.91688156,76.9804306,125.2752991,-8.643988609,2.490259171,1.550013661,-36.39637756,15.85325527,3.051315784, 
547,2292481437,50.28808212,77.13853455,126.3907928,-8.626466751,2.575571775,1.427994728,-42.77489853,17.03569221,2.657190084, 
548,2292498104,50.73939133,77.29217529,127.6563568,-8.444817543,2.539471865,1.339374065,-46.78260422,18.29840851,3.887562275, 
549,2292514771,51.42808533,77.42823792,129.1933746,-8.262767792,2.573955059,1.258731484,-48.47419739,20.32023239,6.628061295, 
550,2292531438,52.43894577,77.53992462,131.080658,-8.169681549,2.620896578,1.209254026,-49.69052505,22.94960594,10.15608883, 
551,2292548105,53.7915535,77.62722015,133.3560944,-8.250623703,2.680177212,1.175502181,-51.9671402,26.13889885,13.72134781, 
552,2292564772,55.42734528,77.69855499,135.9464417,-8.465359688,2.536472797,1.017060161,-53.46548843,29.08378601,16.01838684, 
553,2292581439,57.27997589,77.78116608,138.7534637,-9.015454292,2.52208662,0.910245359,-53.18909073,32.06123352,15.96319866, 
554,2292598106,59.10930634,77.90263367,141.5724182,-9.854949951,2.772821903,0.97330457,-55.33763504,33.66509247,12.8523035, 
555,2292614773,60.65557098,78.0700531,144.1966095,-10.52630997,2.913058996,0.897910595,-60.96337509,32.95293427,8.018839836, 
556,2292631440,61.82769775,78.23057556,146.5264282,-10.66601849,3.064109325,0.970885336,-66.2002182,29.37423325,5.627836227, 
557,2292648107,62.4540062,78.32514954,148.3802948,-10.8043499,2.667262316,0.852816164,-71.04244995,22.22698975,5.789256096, 
558,2292664774,62.97655869,78.30312347,149.9157867,-10.63312149,2.004383087,-0.02323777,-58.56329346,15.58844852,9.971624374, 
559,2292681441,63.29710388,78.21585083,150.9844666,-11.00146866,1.979635119,-0.139790088,-43.22902679,8.875946045,10.81504631, 
560,2292698108,63.36480713,78.08170319,151.5882874,-11.23519325,2.135796547,-0.223948359,-31.06414795,2.624844313,10.78290558, 
561,2292714775,63.1191864,77.96009064,151.7480927,-11.05670452,2.302536964,-0.019351164,-23.76951027,-1.942151308,7.66996336, 
562,2292731442,62.617939,77.86651611,151.6338959,-10.71192646,2.309660912,-0.024317859,-23.02007294,-4.285102844,4.594844341, 
563,2292748109,62.04213333,77.79989624,151.4437714,-10.27388096,2.268663883,-0.246599793,-23.03109741,-4.450893879,2.675680637, 
564,2292764776,61.46426392,77.75686646,151.2765961,-9.926492691,2.267707825,-0.433860451,-24.49015808,-3.579497576,1.518112659, 
565,2292781443,60.92202377,77.7445755,151.1429138,-9.718169212,2.156291246,-0.58783114,-24.30198097,-2.357205391,0.067611255, 
566,2292798110,60.429245,77.78111267,151.0351715,-9.657517433,2.138848305,-0.566530585,-22.83905411,-0.658695757,-2.346114397, 
567,2292814777,59.90712357,77.8748703,150.8666992,-9.587220192,2.186267138,-0.524107993,-21.01482964,0.384261549,-5.707607746, 
568,2292831444,59.33699417,78.03099823,150.629425,-9.499835014,2.343006134,-0.494417816,-19.8348484,1.58140099,-9.351403236, 
569,2292848111,58.69656372,78.23625183,150.319809,-9.651309013,2.52970767,-0.466095239,-19.77574158,2.450006247,-12.30811501, 
570,2292864778,57.98023987,78.47672272,149.9255524,-9.799002647,2.629198313,-0.455788463,-19.32019997,2.867033958,-14.57790661, 
571,2292881445,57.24106598,78.73345184,149.4832458,-9.879714012,2.699435949,-0.401956022,-17.82135391,3.155843496,-15.62252235, 
572,2292898112,56.59263611,78.98792267,149.0872498,-9.707683563,2.675922632,-0.394970149,-15.05687237,3.795199871,-15.11914825, 
573,2292914779,56.21386337,79.2341156,148.9043884,-9.52923584,2.712335825,-0.306110322,-11.38926315,5.726577282,-13.28229904, 
574,2292931446,56.1989212,79.47428894,149.0680389,-9.43548584,2.83160615,-0.179148674,-9.962620735,8.78004837,-10.81736946, 
575,2292948113,56.53371048,79.70589447,149.6033783,-9.336424828,2.901889801,0.069550507,-10.89393711,11.75964165,-8.215525627, 
576,2292964780,57.20872498,79.92350769,150.5245972,-9.410018921,2.856272221,0.235874787,-13.26797104,14.5369873,-5.471942902, 
577,2292981447,58.05636978,80.11678314,151.6549225,-9.558342934,2.745090961,0.32261464,-15.28024483,15.33481789,-3.388476849, 
578,2292998114,58.92656326,80.28335571,152.8135681,-9.69230938,2.557347536,0.355465323,-15.6251421,14.50505257,-2.238194942, 
579,2293014781,59.69717789,80.42861938,153.8308868,-9.792396545,2.426216841,0.426748514,-13.25384617,12.42548561,-2.178939104, 
580,2293031448,60.29468918,80.55152893,154.603653,-9.730051041,2.338112116,0.460333347,-9.181972504,9.502164841,-2.467266798, 
581,2293048115,60.75292206,80.65279388,155.1645508,-9.577144623,2.241734505,0.502983034,-5.005504131,6.949066162,-2.498275995, 
582,2293064782,61.13154602,80.72405243,155.5892029,-9.429818153,2.210137844,0.593482316,-1.712337255,4.84881115,-1.644412279, 
583,2293081449,61.4978981,80.76877594,155.9743805,-9.334483147,2.25962162,0.637539089,-0.117651947,3.716767788,-0.484681964, 
584,2293098116,61.8706665,80.79820251,156.3746643,-9.330195427,2.270002365,0.649138391,-0.623925328,3.387349844,0.358366489, 
585,2293114783,62.23458862,80.82289886,156.7796173,-9.358938217,2.218898058,0.646277189,-1.425410867,3.283759594,0.598908186, 
586,2293131450,62.54310608,80.8507843,157.1322937,-9.463277817,2.157897234,0.631507158,-1.662609816,2.92662859,0.155680388, 
587,2293148117,62.79380417,80.87833405,157.4165802,-9.539642334,2.137667656,0.627047181,-1.075887084,2.323987484,-0.138564706, 
588,2293164784,63.00383759,80.90048218,157.6479797,-9.607718468,2.190547228,0.615464032,-0.381770074,1.720795512,-0.092551485, 
589,2293181451,63.15587616,80.91256714,157.8166809,-9.692403793,2.204810381,0.585119545,-0.147337049,0.909603,0.168473944, 
590,2293198118,63.24884415,80.91833496,157.9148407,-9.757016182,2.160826683,0.550696611,0.490963399,0.141554967,0.196891204, 
591,2293214785,63.28858185,80.91926575,157.9443207,-9.769845963,2.14107275,0.517115474,1.367122531,-0.576042354,0.167116448, 
592,2293231452,63.2870636,80.91991425,157.9149017,-9.720269203,2.148621321,0.484970689,2.377902269,-1.083481193,-0.071689941, 
593,2293248119,63.27145004,80.92184448,157.8635254,-9.731217384,2.184295416,0.484653145,2.840723991,-1.240512848,-0.229412988, 
594,2293264786,63.25134277,80.9256134,157.8134918,-9.704971313,2.21566081,0.443782687,2.491379499,-1.185227752,-0.321797997, 
595,2293281453,63.258358,80.93200684,157.7985992,-9.630955696,2.197281122,0.430542439,2.036126375,-0.820682168,-0.318109751, 
596,2293298120,63.2980957,80.93913269,157.8188782,-9.640396118,2.174284935,0.474848688,1.920638323,-0.510153711,-0.2047351, 
597,2293314787,63.34628296,80.95278168,157.8453674,-9.67333889,2.180211306,0.506967962,2.061828852,-0.288334966,-0.52836442, 
598,2293331454,63.36419678,80.97071838,157.8438873,-9.719104767,2.215965033,0.529827476,1.904694915,-0.413850039,-0.873598039, 
599,2293348121,63.36413574,80.98816681,157.822464,-9.729474068,2.216740131,0.584043145,2.005762577,-0.595328748,-0.939127982, 
600,2293364788,63.34574509,81.00077057,157.7828674,-9.722570419,2.241709709,0.599158823,1.985477328,-0.882690549,-0.748262286, 
601,2293381455,63.31734467,81.00136566,157.7335052,-9.667192459,2.242041111,0.619223952,1.966267824,-1.290841579,-0.147004098, 
602,2293398122,63.28754425,80.99047852,157.6803894,-9.633331299,2.204893351,0.631115794,2.104115248,-1.631464839,0.449406862, 
603,2293414789,63.24042892,80.97195435,157.6039429,-9.66061306,2.204724789,0.632186055,2.448913574,-2.038066387,0.760460258, 
604,2293431456,63.12932205,80.94561768,157.4546356,-9.668714523,2.172281027,0.618768513,2.926615715,-2.868519783,0.869058073, 
605,2293448123,62.94190216,80.9168396,157.2180023,-9.638634682,2.160983324,0.612992465,3.516105175,-3.675320148,0.609755158, 
606,2293464790,62.7247963,80.88583374,156.9463654,-9.564749718,2.171927929,0.60118717,3.805836201,-4.044412613,0.568621218, 
607,2293481457,62.49638748,80.85639191,156.6609344,-9.46931076,2.170694828,0.586105883,3.943683863,-4.131854057,0.412691057, 
608,2293498124,62.31716537,80.83140564,156.4282379,-9.50617981,2.214164257,0.61386025,3.771899462,-3.572830915,0.393455893, 
609,2293514791,62.14187622,80.81213379,156.2108154,-9.577754974,2.262789965,0.652805507,3.105495214,-3.294216156,0.149430901, 
610,2293531458,61.95448303,80.79602051,155.9889069,-9.664806366,2.232754707,0.617922783,2.635552883,-3.243873835,-0.060420353, 
611,2293548125,61.74861145,80.77648926,155.7447357,-9.698069572,2.244996548,0.599069536,2.850072622,-3.539842367,0.015911892, 
612,2293564792,61.5537262,80.74965668,155.5023651,-9.657096863,2.225641251,0.594464958,3.399567366,-3.73973608,0.397656381, 
613,2293581459,61.40522003,80.71257782,155.2998047,-9.589258194,2.214355946,0.56238687,3.828836679,-3.710639954,1.108754635, 
614,2293598126,61.31946564,80.6701355,155.1562042,-9.461819649,2.170405865,0.530527174,4.099024773,-3.375087976,1.655483365, 
615,2293614793,61.29652786,80.63175201,155.0800934,-9.462248802,2.171650171,0.545721292,3.87700057,-2.694161415,1.750672817, 
616,2293631460,61.28204346,80.60280609,155.0237732,-9.510034561,2.152941942,0.533142686,3.170563936,-2.244415045,1.348758459, 
617,2293648127,61.27190781,80.58794403,154.9778442,-9.591610909,2.149675369,0.510685861,2.840365171,-1.763998032,0.656613588, 
618,2293664794,61.26044464,80.58474731,154.9258423,-9.642500877,2.15982461,0.510501385,3.1118083,-1.48309052,0.017679164, 
619,2293681461,61.26826096,80.58783722,154.8873138,-9.64675045,2.211151123,0.510554016,3.505962133,-1.200876951,-0.260173768, 
620,2293698128,61.33712006,80.59431458,154.9115601,-9.617083549,2.254495859,0.540433466,3.509068251,-0.585231066,-0.150532261, 
621,2293714795,61.48275375,80.60129547,155.0202026,-9.588736534,2.297903299,0.554271936,3.06432271,0.167718381,0.229573071, 
622,2293731462,61.6904068,80.6079483,155.2039185,-9.613554001,2.284538269,0.606502235,2.422288895,0.776788294,0.56672585, 
623,2293748129,61.9362793,80.61698914,155.432724,-9.630993843,2.290686369,0.622287929,1.981276989,1.251839995,0.66153121, 
624,2293764796,62.20913696,80.62537384,155.6941223,-9.670362473,2.278825045,0.648075879,1.684489608,1.50995183,0.828231454, 
625,2293781463,62.45705414,80.62994385,155.936676,-9.687713623,2.268799067,0.692582726,1.451081038,1.189562559,0.90856576, 
626,2293798130,62.67822266,80.62575531,156.1473846,-9.634718895,2.231318235,0.715922534,1.531658769,0.740495205,1.264582276, 
627,2293814797,62.8562851,80.61476898,156.3093567,-9.671599388,2.192733765,0.720507145,1.784392118,0.151198179,1.406656027, 
628,2293831464,62.96657944,80.59703064,156.4016876,-9.67899704,2.18086338,0.76760453,1.78343153,-0.615357935,1.467217207, 
629,2293848131,62.97928238,80.58040619,156.3948212,-9.652817726,2.136338711,0.754378438,1.808480859,-1.454442739,0.970113039, 
630,2293864798,62.9131813,80.56393433,156.3024597,-9.627494812,2.106750488,0.762223542,2.245471716,-2.232313156,0.558478475, 
631,2293881465,62.78035355,80.54876709,156.1428528,-9.599547386,2.113816977,0.69936949,2.378452778,-2.840025663,0.156973839, 
632,2293898132,62.59807587,80.54051208,155.9356995,-9.583322525,2.122630358,0.693171024,2.038136959,-3.004664421,-0.40255484, 
633,2293914799,62.39724731,80.54022217,155.720932,-9.609716415,2.131120682,0.68836683,1.691251278,-2.955705404,-0.923299313, 
634,2293931466,62.14798737,80.54890442,155.4516449,-9.691389084,2.19226265,0.667460322,1.556887269,-3.027113914,-1.564564705, 
635,2293948133,61.87866592,80.56593323,155.1707306,-9.755502701,2.24207139,0.622644901,1.528841496,-3.040945053,-2.167987347, 
636,2293964800,61.57817078,80.585495,154.8476715,-9.758904457,2.248576641,0.606331766,1.648388624,-3.152513504,-2.411179543, 
637,2293981467,61.33571243,80.59807587,154.5797577,-9.703142166,2.26900816,0.558552623,2.387789011,-3.036680222,-1.892407179, 
638,2293998134,61.13795471,80.60679626,154.3171387,-9.576078415,2.288690805,0.563483238,3.021971703,-2.535810947,-1.323702574, 
639,2294014801,61.08499146,80.61782837,154.2510071,-9.532454491,2.3044734,0.570878923,2.48669219,-1.559928656,-1.006899476, 
640,2294031468,61.10159683,80.63470459,154.2876129,-9.537703514,2.321377277,0.610788465,1.378174305,-0.767317951,-0.989162326, 
641,2294048135,61.09220505,80.65582275,154.2820892,-9.547550201,2.261746168,0.58566767,0.66401571,-0.476216972,-1.074504018, 
642,2294064802,61.07141495,80.67584229,154.2564087,-9.534401894,2.189754486,0.549588442,0.871670663,-0.583457351,-1.060890794, 
643,2294081469,61.07260895,80.69012451,154.2350159,-9.466099739,2.189244032,0.542169213,1.834720731,-0.684998751,-0.713159978, 
644,2294098136,61.12325287,80.70343781,154.2847748,-9.47328949,2.261796236,0.551155746,2.094587564,-0.591089845,-0.633991241, 
645,2294114803,61.15684509,80.71917725,154.3093872,-9.552988052,2.276443005,0.55829525,1.63697803,-0.441498905,-0.692080736, 
646,2294131470,61.1835289,80.73256683,154.3374786,-9.623143196,2.314347744,0.586543322,1.075125098,-0.501931965,-0.565553963, 
647,2294148137,61.20319366,80.73661804,154.3509827,-9.612411499,2.27315855,0.562718332,1.041303396,-0.74664855,-0.052544449, 
648,2294164804,61.28474808,80.72650909,154.4171295,-9.588710785,2.261668205,0.549334645,1.750506401,-0.749491632,0.919451177, 
649,2294181471,61.42156219,80.70458221,154.5280609,-9.594463348,2.253385544,0.556462765,2.379989862,-0.69528234,1.7411834, 
650,2294198138,61.55340576,80.67854309,154.6159668,-9.645557404,2.254833221,0.584091008,2.460023165,-0.696313202,2.056020975, 
651,2294214805,61.69617081,80.64943695,154.7474518,-9.688524246,2.248766899,0.605136395,2.109967947,-0.90814954,2.102335215, 
652,2294231472,61.77628326,80.61956787,154.7972717,-9.68234539,2.21649909,0.594451308,1.753387928,-1.170487642,2.059382677, 
653,2294248139,61.91917801,80.58364105,154.951355,-9.627924919,2.157415867,0.58388257,1.875035524,-1.242152095,2.35852623, 
654,2294264806,62.04811096,80.54367065,155.0480804,-9.630614281,2.146266222,0.616330922,2.240541458,-1.149843812,2.744599581, 
655,2294281473,62.20578384,80.5007782,155.1820984,-9.662546158,2.13649106,0.641114652,2.523754358,-1.14143002,2.924170256, 
656,2294298140,62.30830002,80.45696259,155.2647552,-9.704992294,2.138933182,0.655906439,2.064146519,-1.546648622,2.773644209, 
657,2294314807,62.31605148,80.41431427,155.241806,-9.728427887,2.086563826,0.689607501,1.700497508,-2.141336918,2.401978016, 
658,2294331474,62.27374649,80.36740875,155.1706848,-9.684664726,2.045952797,0.663387299,2.005352497,-2.839346886,2.324320555, 
659,2294348141,62.20998383,80.31791687,155.0768433,-9.6695261,2.012587547,0.628961146,2.894919872,-3.390173674,2.187433243, 
660,2294364808,62.11964798,80.26986694,154.9308014,-9.6492939,1.994961023,0.621837378,3.686199427,-3.598200798,1.988230944, 
661,2294381475,62.03853226,80.23101044,154.7944336,-9.618990898,2.01867485,0.626767457,3.723427773,-3.286033154,1.541583776, 
662,2294398142,61.95118332,80.20132446,154.6635437,-9.597316742,2.043771505,0.637109101,3.219004869,-3.046534777,1.035854578, 
663,2294414809,61.86700821,80.18238068,154.5480957,-9.579329491,2.049561739,0.591018081,2.674049616,-2.668459415,0.509276628, 
664,2294431476,61.79706573,80.17169189,154.4495087,-9.579313278,2.064960003,0.576321363,2.629124165,-2.319268227,0.136803821, 
665,2294448143,61.73564911,80.16886902,154.3482056,-9.628883362,2.108481407,0.585513413,2.823627472,-1.966645598,-0.212137192, 
666,2294464810,61.68392563,80.16716766,154.2528687,-9.634531021,2.151576042,0.60589534,2.984526396,-1.861748815,-0.221280932, 
667,2294481477,61.66725922,80.16601563,154.2150879,-9.657759666,2.205461979,0.599518776,3.057560682,-1.774588585,-0.239350662, 
668,2294498144,61.62338638,80.16293335,154.1336365,-9.683581352,2.230114222,0.606341958,2.872438431,-1.856722116,-0.125303715, 
669,2294514811,61.5935936,80.15919495,154.0674286,-9.661453247,2.243971586,0.597207785,2.780738831,-1.730291367,-0.013152121, 
670,2294531478,61.56916428,80.14826965,154.0046539,-9.659860611,2.208497763,0.600464106,2.957914352,-1.926126122,0.373516411, 
671,2294548145,61.56615829,80.13365173,153.9714813,-9.641551018,2.205834866,0.58753401,3.173202038,-1.987199545,0.574371159, 
672,2294564812,61.54121399,80.11721802,153.8925323,-9.642156601,2.201238632,0.61069262,3.214874506,-2.021521091,0.708223224, 
673,2294581479,61.53824997,80.10095978,153.8622742,-9.673441887,2.180673122,0.637324393,3.173177242,-2.069788218,0.64567697, 
674,2294598146,61.49198914,80.08380127,153.7709656,-9.654416084,2.172430515,0.604245067,3.174150229,-2.326056004,0.589610875, 
675,2294614813,61.47228241,80.06684875,153.7132263,-9.659457207,2.176794052,0.63499862,3.419442415,-2.223156691,0.618284166, 
676,2294631480,61.45376205,80.04997253,153.6472626,-9.678874016,2.174838066,0.659108639,3.425807238,-2.122217178,0.683097064, 
677,2294648147,61.44798279,80.02861023,153.5924988,-9.625989914,2.170317888,0.664025366,3.447642088,-2.125187874,0.986056924, 
678,2294664814,61.47242737,80.00505066,153.5744934,-9.576868057,2.162331104,0.633443415,3.281019449,-1.918685913,1.252198696, 
679,2294681481,61.52421188,79.98093414,153.5830078,-9.543309212,2.122710228,0.630996704,3.222353458,-1.646807313,1.426429152, 
680,2294698148,61.60400391,79.96026611,153.6261444,-9.518689156,2.151340008,0.665843368,2.996218443,-1.278714061,1.403710246, 
681,2294714815,61.69534302,79.9462204,153.6824341,-9.533110619,2.180478096,0.685868084,2.60320425,-0.868411362,1.179560781, 
682,2294731482,61.79578781,79.93428802,153.7606354,-9.534522057,2.231686831,0.673679948,2.304995537,-0.749850154,1.093130827, 
683,2294748149,61.90563202,79.91866302,153.8412018,-9.521383286,2.250627279,0.657020509,2.298803806,-0.691959083,1.380959988, 
684,2294764816,62.06317139,79.89412689,153.9642487,-9.493551254,2.309563875,0.645140946,2.747954369,-0.575017869,2.036535978, 
685,2294781483,62.30324554,79.85968781,154.1709747,-9.45035553,2.368038893,0.653178155,3.172741413,-0.200649902,2.901413202, 
686,2294798150,62.60371017,79.81659698,154.4328156,-9.407765388,2.466114998,0.710817754,2.690473557,0.371294528,3.789322853, 
687,2294814817,62.98059464,79.76120758,154.796875,-9.428539276,2.521857023,0.720946372,1.776452184,0.859786332,4.837144852, 
688,2294831484,63.37884903,79.69389343,155.1875305,-9.428492546,2.520428896,0.701060236,0.878714263,1.04043293,5.717709541, 
689,2294848151,63.80415726,79.61395264,155.6126251,-9.434118271,2.49307847,0.719434679,0.644767702,1.045580864,6.522344589, 
690,2294864818,64.23854828,79.52223206,156.0480347,-9.437513351,2.518439054,0.763796151,0.928543627,0.803310275,7.145578861, 
691,2294881485,64.67690277,79.42021179,156.4972687,-9.493497849,2.587110043,0.804089308,0.614698529,0.682200789,7.718445778, 
692,2294898152,65.07228088,79.30592346,156.9128876,-9.539294243,2.614755154,0.793444276,-0.047037732,0.156679332,8.244544983, 
693,2294914819,65.4104538,79.17507935,157.2682037,-9.645456314,2.645824432,0.831183553,-1.001162171,-0.406793743,9.080170631, 
694,2294931486,65.71446991,79.02244568,157.6287537,-9.762842178,2.638083696,0.836492062,-2.15719223,-1.199545622,10.09000587, 
695,2294948153,65.9513092,78.84703827,157.9093628,-9.901124954,2.628479004,0.820258617,-1.752331853,-2.398719788,11.03508854, 
696,2294964820,66.12458801,78.64655304,158.1097717,-9.905324936,2.559669495,0.789988875,-0.806185842,-3.792705059,12.0512886, 
697,2294981487,66.29837036,78.42884827,158.3128815,-9.790079117,2.497881174,0.742439866,-0.002510046,-4.425660133,12.85883236, 
698,2294998154,66.51341248,78.2026825,158.5604553,-9.58934021,2.477939367,0.751791,-0.353660375,-3.975605965,13.61293411, 
699,2295014821,66.74510956,77.98205566,158.8256836,-9.405444145,2.478089094,0.757498562,-2.468553782,-2.790390253,13.81590462, 
700,2295031488,67.022789,77.78385162,159.2181549,-9.346819878,2.432972431,0.76680994,-6.089551926,-1.059815884,13.0407095, 
701,2295048155,67.2209549,77.61921692,159.5587158,-9.478884697,2.32579565,0.79818958,-9.57379055,-0.120994471,11.28640366, 
702,2295064822,67.311203,77.49061584,159.8178101,-9.617054939,2.218484163,0.794066787,-10.76653576,-0.353954941,8.823292732, 
703,2295081489,67.25309753,77.39373779,159.9055786,-9.773553848,2.154350996,0.771469474,-9.812152863,-1.578562617,6.256602287, 
704,2295098156,67.05935669,77.31974792,159.8282776,-9.853287697,2.185172558,0.731516302,-7.542199135,-3.322390556,4.002120018, 
705,2295114823,66.75328064,77.26320648,159.609375,-9.793737411,2.26125598,0.693351865,-5.932753563,-4.667346001,2.295884132, 
706,2295131490,66.39896393,77.22280121,159.3344116,-9.706151962,2.287564039,0.710829258,-5.272516251,-5.088015556,1.03698802, 
707,2295148157,66.04276276,77.2002182,159.0635834,-9.652687073,2.341832161,0.653556108,-5.13336277,-4.801332474,-0.051878538, 
708,2295164824,65.68013763,77.20870972,158.7899475,-9.651324272,2.384768486,0.635729253,-6.119694233,-3.786518097,-1.629953861, 
709,2295181491,65.32001495,77.25104523,158.5485382,-9.6632967,2.370079994,0.598936796,-7.322896004,-2.748889685,-3.433068991, 
710,2295198158,64.97515869,77.32071686,158.341507,-9.597943306,2.366215706,0.587549746,-7.747601509,-1.84862268,-4.861560822, 
711,2295214825,64.64195251,77.40991211,158.1300507,-9.520448685,2.361573696,0.552808166,-7.502255917,-1.103677034,-5.804082394, 
712,2295231492,64.33258057,77.51500702,157.9404449,-9.449166298,2.377274513,0.52435565,-7.120192051,-0.465779901,-6.574627876, 
713,2295248159,64.03504944,77.63404083,157.7492218,-9.38699913,2.38545084,0.509060264,-6.67491436,0.063013658,-7.256194115, 
714,2295264826,63.77588272,77.76945496,157.6237183,-9.321498871,2.39743042,0.511982203,-6.578778744,0.725499272,-8.090390205, 
715,2295281493,63.51904678,77.92357635,157.5006561,-9.319091797,2.423927784,0.515898824,-6.433912277,1.252787948,-9.090704918, 
716,2295298160,63.22545624,78.0945282,157.2969055,-9.349176407,2.468665123,0.512650013,-6.372353554,1.72285831,-9.931010246, 
717,2295314827,62.96238708,78.27301025,157.1671295,-9.415925026,2.499827385,0.520527422,-6.183022976,1.899099112,-10.42781734, 
718,2295331494,62.63897705,78.45314026,156.9194794,-9.502890587,2.506849527,0.548138678,-5.660607338,1.688120961,-10.60018444, 
719,2295348161,62.28890228,78.62814331,156.6440277,-9.651642799,2.504844904,0.570256174,-4.33727026,0.925406635,-10.69511318, 
720,2295364828,61.84669495,78.79376984,156.2355652,-9.810657501,2.509008646,0.590727687,-2.665936947,-0.393091023,-10.76785183, 
721,2295381495,61.32777023,78.9442215,155.7309723,-9.87479496,2.47369504,0.597365379,-0.624796391,-1.978005528,-10.6626091, 
722,2295398162,60.77580261,79.08207703,155.1671143,-9.9242239,2.488129139,0.59572053,1.506110668,-2.969921827,-10.42147923, 
723,2295414829,60.11800003,79.20957184,154.382309,-9.930114746,2.467069387,0.580256045,2.786310673,-3.565788746,-10.03130817, 
724,2295431496,59.5731163,79.32878876,153.8062286,-9.858846664,2.387830734,0.570107818,3.32677722,-3.496454954,-9.600719452, 
725,2295448163,59.04340744,79.44367218,153.1965637,-9.761833191,2.3194592,0.599881709,3.494713068,-2.94321394,-9.009161949, 
726,2295464830,58.59021759,79.55648804,152.6909332,-9.727948189,2.201416254,0.633583724,3.588077307,-2.395863533,-8.614179611, 
727,2295481497,58.15555573,79.67031097,152.1979675,-9.826891899,2.122175217,0.614850223,4.239254951,-2.210235834,-8.621671677, 
728,2295498164,57.64299393,79.7851944,151.5887146,-9.837096214,2.019214153,0.653742492,5.547270775,-2.843075037,-9.134939194, 
729,2295514831,57.06972122,79.89816284,150.8991852,-9.777872086,1.938303709,0.64930135,7.362022877,-3.683415174,-9.608212471, 
730,2295531498,56.42358017,80.01274872,150.0970764,-9.6236763,1.888904095,0.62414521,9.362427711,-4.358464718,-10.26133728, 
731,2295548165,55.73631668,80.12994385,149.2343903,-9.520996094,1.888847113,0.601436555,10.38974285,-4.564648151,-10.69766426, 
732,2295564832,55.02319717,80.25993347,148.3391571,-9.488620758,1.896401644,0.583120167,10.74141216,-4.170103073,-11.48650455, 
733,2295581499,54.2820015,80.40972137,147.415329,-9.511394501,1.90491724,0.548172474,10.77724648,-3.470274925,-12.58621407, 
734,2295598166,53.50580215,80.58403778,146.4531555,-9.526452065,1.934533834,0.547013283,10.95150948,-2.617735863,-13.92580605, 
735,2295614833,52.7306366,80.77674103,145.4917145,-9.564399719,1.989600778,0.587714553,11.05494785,-1.624807715,-14.73739815, 
736,2295631500,51.97279358,80.97657013,144.5467987,-9.584866524,2.077195168,0.605068445,11.16608143,-0.896842599,-14.86036587, 
737,2295648167,51.28368378,81.17261505,143.675293,-9.554763794,2.13641572,0.556797326,10.96122932,-0.16275607,-14.13625336, 
738,2295664834,50.69700623,81.35923004,142.9084778,-9.548861504,2.16777277,0.593987167,10.93859959,0.508470237,-12.97705841, 
739,2295681501,50.22180939,81.53710175,142.2582703,-9.525840759,2.163194418,0.654926121,10.73720551,1.202280164,-11.80305862, 
740,2295698168,49.84490585,81.70672607,141.7095642,-9.555926323,2.164874315,0.676760554,10.62823391,1.742298722,-10.76713848, 
741,2295714835,49.52697372,81.867836,141.223526,-9.630419731,2.178752422,0.687261164,10.47117519,1.948736906,-9.949041367, 
742,2295731502,49.2561264,82.01556396,140.7912445,-9.630861282,2.185932398,0.735379398,10.11635017,1.88373208,-8.990703583, 
743,2295748169,49.03919601,82.14489746,140.4202423,-9.658619881,2.148957014,0.749647081,9.726050377,1.625862956,-7.773676395, 
744,2295764836,48.884552,82.25032806,140.1111145,-9.622419357,2.073051214,0.741563678,9.793102264,1.116451621,-6.319206238, 
745,2295781503,48.80466461,82.33538055,139.8770447,-9.567704201,2.022825718,0.746473432,9.824362755,0.804181397,-4.9852705, 
746,2295798170,48.79540253,82.40683746,139.7191772,-9.564238548,1.960148573,0.764384806,9.541047096,0.735052705,-3.954602242, 
747,2295814837,48.82157516,82.46394348,139.6055145,-9.596815109,1.909361005,0.754522204,9.035004616,0.441210896,-3.078685999, 
748,2295831504,48.86691284,82.51522827,139.5253448,-9.674336433,1.843737602,0.737195551,8.198659897,0.410654873,-2.642194033, 
749,2295848171,48.90888977,82.55476379,139.4498444,-9.683655739,1.761324048,0.739783764,7.721711636,-0.031721335,-2.080020428, 
750,2295864838,48.97211456,82.58629608,139.396759,-9.677412987,1.689435482,0.742362797,7.663673878,-0.214019746,-1.604943395, 
751,2295881505,49.02535629,82.6100769,139.3383942,-9.717459679,1.650330067,0.73994571,7.382626057,-0.554668784,-1.277459383, 
752,2295898172,49.05358505,82.62705994,139.2597656,-9.7529459,1.615946651,0.737125099,7.083583355,-0.934761107,-1.07729578, 
753,2295914839,49.00847626,82.64040375,139.1152954,-9.812959671,1.568221927,0.746443927,6.601745129,-1.463497043,-1.237541795, 
754,2295931506,48.91077423,82.64710999,138.9202423,-9.76385498,1.51753962,0.736710608,6.45534277,-2.016091108,-1.190708876, 
755,2295948173,48.78816223,82.65351105,138.6987,-9.751752853,1.438154936,0.699387729,6.538405418,-2.174749374,-1.312779307, 
756,2295964840,48.62794495,82.66366577,138.4356079,-9.778650284,1.447418571,0.673053324,6.751693726,-2.263253689,-1.687313557, 
757,2295981507,48.41123581,82.67972565,138.1179657,-9.78126812,1.426008344,0.700739145,6.611208439,-2.331601143,-2.229086161, 
758,2295998174,48.15619278,82.70400238,137.7618256,-9.834403038,1.410665631,0.685027719,6.597621918,-2.210530281,-2.788429737, 
759,2296014841,47.8795929,82.73753357,137.3854523,-9.840656281,1.418185472,0.654813707,6.512958527,-1.929225564,-3.303398609, 
760,2296031508,47.62358856,82.77805328,137.0272064,-9.792310715,1.429884791,0.663572669,6.670316219,-1.518468261,-3.514927387, 
761,2296048175,47.41890335,82.82537842,136.728775,-9.745515823,1.472570539,0.710019469,6.187759399,-0.887755454,-3.495794296, 
762,2296064842,47.28756714,82.88053894,136.5257416,-9.72286129,1.445357919,0.673024058,4.91660738,-0.023397202,-3.347989798, 
763,2296081509,47.21581268,82.94065094,136.3938599,-9.724226952,1.460177422,0.715624273,4.256350994,0.577239871,-3.190446377, 
764,2296098176,47.15969849,83.00613403,136.2960358,-9.74050808,1.460790634,0.71785289,3.165711164,0.998786569,-3.256629467, 
765,2296114843,47.06228256,83.07134247,136.1624451,-9.753560066,1.450557828,0.71238637,2.818389654,0.806114912,-3.410241604, 
766,2296131510,46.93366241,83.12956238,135.9963837,-9.771884918,1.450447321,0.72635746,2.883419991,0.358187228,-3.248292446, 
767,2296148177,46.7608223,83.17677307,135.7789917,-9.815429688,1.477312088,0.721275091,3.289765358,-0.33611542,-3.015779972, 
768,2296164844,46.54753876,83.20893097,135.5157013,-9.818509102,1.509708405,0.68979001,3.595338583,-1.185407043,-2.56077075, 
769,2296181511,46.33176422,83.22610474,135.2417755,-9.85797596,1.504395485,0.673282981,4.080864906,-1.838095307,-1.962393641, 
770,2296198178,46.12899399,83.22754669,134.9793243,-9.783068657,1.518194199,0.604866922,4.181010723,-2.424203634,-1.225273252, 
771,2296214845,46.02502823,83.22031403,134.824295,-9.712081909,1.505133748,0.618441343,3.707585573,-2.234823465,-0.328495681, 
772,2296231512,46.03756714,83.20696259,134.7937164,-9.680879593,1.483877301,0.609304309,3.282441139,-1.856818557,0.546696782, 
773,2296248179,46.18261337,83.19351959,134.9094391,-9.65791893,1.471122622,0.60970062,2.518311262,-1.115843058,1.275224447, 
774,2296264846,46.41975403,83.18134308,135.1343994,-9.693512917,1.451417804,0.620683253,1.535897732,-0.496976048,1.759086728, 
775,2296281513,46.74313736,83.16751862,135.4542999,-9.663553238,1.390777349,0.596980453,1.055288076,-0.055771649,2.286080599, 
776,2296298180,47.12543869,83.15118408,135.8306732,-9.663442612,1.344916463,0.563406944,1.226969957,0.145896345,2.676981926, 
777,2296314847,47.57195282,83.12961578,136.2648926,-9.666028023,1.326865435,0.564726412,1.63690114,0.264009267,3.182845116, 
778,2296331514,48.01466751,83.11023712,136.6936951,-9.691648483,1.318191528,0.610888779,1.730541348,0.350823581,3.058047533, 
779,2296348181,48.44096375,83.09400177,137.1092834,-9.700047493,1.342426658,0.646845579,1.53419435,0.438841641,2.842593431, 
780,2296364848,48.82447433,83.08181763,137.488678,-9.743406296,1.366333246,0.694423437,1.120152235,0.419439971,2.494081497, 
781,2296381515,49.14730835,83.06952667,137.8120728,-9.823419571,1.391420007,0.689460278,0.817115605,0.132385656,2.224405527, 
782,2296398182,49.39506912,83.05161285,138.0548096,-9.871470451,1.397197962,0.703374028,1.118487477,-0.515327513,2.097302198, 
783,2296414849,49.62347412,83.026474,138.2766571,-9.853117943,1.481268883,0.73789072,1.194608331,-0.899390042,2.329404593, 
784,2296431516,49.81915283,82.99492645,138.4694977,-9.88445282,1.496626616,0.780402422,0.961058736,-1.295170188,2.49099493, 
785,2296448183,50.00017548,82.95352173,138.6566467,-9.914001465,1.552716732,0.804966807,0.417659849,-1.688248158,2.916601419, 
786,2296464850,50.1537056,82.90184784,138.8249054,-9.921061516,1.518877149,0.760832191,-0.106420785,-2.176631451,3.312061787, 
787,2296481517,50.29902267,82.83730316,138.9832153,-9.836771011,1.446115136,0.753812134,-0.00733804,-2.711463213,3.86794734, 
788,2296498184,50.46691513,82.76042175,139.1580353,-9.782111168,1.413250327,0.767118216,0.361273557,-3.059360504,4.520110607, 
789,2296514851,50.65515518,82.67865753,139.3518372,-9.73559761,1.385020018,0.763268769,0.456232637,-3.119140387,4.87140131, 
790,2296531518,50.80031204,82.59355927,139.506485,-9.737233162,1.406756759,0.735969186,0.193868965,-3.440247297,4.83846426, 
791,2296548185,50.89887619,82.50857544,139.6209106,-9.682770729,1.389719009,0.678754091,-0.206681713,-3.661886454,4.659430981, 
792,2296564852,50.94666672,82.42666626,139.6844635,-9.635686874,1.397324324,0.649514198,-0.225993648,-3.841981888,4.275406361, 
793,2296581519,50.9718132,82.3525238,139.7262726,-9.665353775,1.435557842,0.599245369,-0.296569526,-3.67269516,3.807296515, 
794,2296598186,50.99874115,82.28586578,139.7709961,-9.660721779,1.495163679,0.589818716,-0.362650216,-3.371297121,3.481565952, 
795,2296614853,51.07403946,82.22317505,139.8726654,-9.632902145,1.534662247,0.591753006,-0.84173584,-2.858390331,3.586476564, 
796,2296631520,51.20998764,82.16259003,140.0453339,-9.577367783,1.565382123,0.58014214,-1.421530724,-2.31943512,3.859379768, 
797,2296648187,51.42004776,82.10176086,140.2928314,-9.64394474,1.598439217,0.563845932,-1.419122696,-1.826736093,4.260576248, 
798,2296664854,51.65344238,82.04190063,140.5681305,-9.671689034,1.617864847,0.564810038,-1.67792654,-1.583569288,4.371889114, 
799,2296681521,51.87831497,81.98428345,140.8319702,-9.70613575,1.650552392,0.575234413,-1.50142324,-1.550471544,4.22578907, 
800,2296698188,52.08892059,81.92747498,141.0812531,-9.66970253,1.692510605,0.592413664,-1.493982553,-1.586021781,4.114270687, 
801,2296714855,52.33945847,81.86793518,141.3736267,-9.637384415,1.72784543,0.633634448,-1.646781325,-1.37670815,4.482741356, 
802,2296731522,52.64165878,81.79859924,141.7161102,-9.65286541,1.756839037,0.621835113,-1.51538837,-1.359189272,5.21676302, 
803,2296748189,53.03370667,81.72103882,142.1446075,-9.667216301,1.78069818,0.607626855,-1.262949586,-1.011471152,6.080193043, 
804,2296764856,53.46578979,81.63193512,142.6127777,-9.730516434,1.813331008,0.682534933,-1.182692409,-1.084544539,6.855529308, 
805,2296781523,53.91159439,81.53313446,143.0903778,-9.802587509,1.84577024,0.745049596,-0.900465786,-1.276216984,7.391807556, 
806,2296798190,54.36091232,81.42394257,143.5742035,-9.844244957,1.899763584,0.816600323,-1.059162259,-1.501186132,7.970628738, 
807,2296814857,54.80889893,81.29207611,144.0622864,-9.774655342,1.864486814,0.835048199,-1.396238208,-2.142605066,9.135559082, 
808,2296831524,55.30605316,81.13224792,144.5864258,-9.723238945,1.833794236,0.860854387,-0.582164109,-2.69811964,10.75343895, 
809,2296848191,55.8250351,80.93766022,145.1191559,-9.673221588,1.867765069,0.839470744,0.208557904,-3.624121904,12.57680893, 
810,2296864858,56.40141296,80.71871185,145.7045135,-9.636436462,1.834247708,0.85646975,0.544187069,-3.813004017,14.16963005, 
811,2296881525,56.9518013,80.48060608,146.2582092,-9.668643951,1.853712797,0.852066398,0.928288221,-4.463785172,15.05522823, 
812,2296898192,57.47467804,80.23033905,146.7796631,-9.65497303,1.901926398,0.856082141,0.820426762,-4.765650749,15.6524477, 
813,2296914859,57.93661499,79.9733429,147.2487793,-9.651144981,1.937207937,0.858974576,0.451942831,-5.240004063,15.78863621, 
814,2296931526,58.38772964,79.71078491,147.707962,-9.644508362,1.947327614,0.82737124,0.608487964,-5.330136776,16.08268547, 
815,2296948193,58.82443619,79.43856049,148.1484528,-9.625697136,2.009325504,0.841107428,0.832650483,-5.561778069,16.5696106, 
816,2296964860,59.29452515,79.16099548,148.6193085,-9.579807281,2.080951452,0.807481766,0.592889845,-5.066786766,17.20376778, 
817,2296981527,59.80970001,78.88266754,149.1615143,-9.699911118,2.131492138,0.797485173,-0.042491514,-4.372848511,17.61641502, 
818,2296998194,60.33744812,78.60623932,149.7348175,-9.693735123,2.203002691,0.778107166,-1.030656099,-3.727894306,17.79192543, 
819,2297014861,60.90425873,78.33324432,150.3607635,-9.615344048,2.226358414,0.781993985,-2.531344414,-2.532176495,18.15607643, 
820,2297031528,61.57261276,78.06850433,151.1293793,-9.469986916,2.296091318,0.819775283,-4.615580559,-0.467022568,18.63586807, 
821,2297048195,62.29061508,77.81110382,152.0168762,-9.341914177,2.362393618,0.909600198,-7.998012543,1.279080868,18.93926811, 
822,2297064862,62.98695374,77.56395721,152.9489288,-9.317608833,2.362231731,0.973831296,-12.17061329,2.60326004,18.77340508, 
823,2297081529,63.54256821,77.32491302,153.7816772,-9.500982285,2.307180166,0.958407283,-14.93417835,2.139516115,17.85294914, 
824,2297098196,63.86746597,77.09830475,154.3787689,-9.869352341,2.249742746,0.996654809,-14.86847878,-0.045206487,15.84817219, 
825,2297114863,63.87504959,76.88014221,154.6141663,-10.07226372,2.256190777,0.980055392,-12.59330559,-4.082951069,13.27047443, 
826,2297131530,63.62069321,76.66536713,154.5061035,-10.0077877,2.30342412,0.933565557,-8.263533592,-8.194059372,11.03146839, 
827,2297148197,63.24145126,76.44233704,154.1935272,-9.787396431,2.47298193,0.959164083,-3.928798676,-11.01354599,10.1597147, 
828,2297164864,62.86053467,76.19797516,153.8421936,-9.609940529,2.849652052,0.965107262,-1.825175762,-12.20632076,10.96378899, 
829,2297181531,62.55059814,75.92717743,153.5846558,-9.543475151,3.070475578,1.010887146,-2.931068897,-11.91747284,12.85423946, 
830,2297198198,62.32024002,75.6335144,153.4477539,-9.470499992,3.213167906,1.030702472,-5.219208241,-11.0952425,14.81164265, 
831,2297214865,62.20672226,75.31446075,153.4664001,-9.373086929,3.263188839,1.080184221,-7.294853687,-9.802456856,17.1971035, 
832,2297231532,62.20700073,74.96694183,153.6281281,-9.172662735,3.304597855,1.054411769,-8.764017105,-8.665241241,19.72621727, 
833,2297248199,62.31346893,74.58331299,153.910553,-9.033932686,3.392554045,1.098901868,-9.363052368,-7.921065331,22.54971123, 
834,2297264866,62.48875427,74.15552521,154.2953186,-9.015325546,3.633820534,1.198557854,-11.10811806,-7.531857967,25.72872925, 
835,2297281533,62.68319321,73.67935181,154.7256165,-9.007756233,3.762396574,1.251074076,-12.54552937,-7.954116344,28.74050331, 
836,2297298200,62.89228821,73.15106201,155.1700287,-8.870358467,3.724602222,1.269947171,-12.41665649,-8.878899574,31.74911308, 
837,2297314867,63.12490845,72.57817078,155.6182251,-8.686249733,3.832563162,1.241815448,-11.14923,-9.696240425,34.2929306, 
838,2297331534,63.3990593,71.96878815,156.0847626,-8.494369507,3.927765131,1.156092286,-9.624752998,-9.997469902,36.5452652, 
839,2297348201,63.71675873,71.33220673,156.5822144,-8.282118797,4.145811558,1.112127185,-8.681743622,-9.760057449,38.43000793, 
840,2297364868,64.07719421,70.67556763,157.1351929,-8.080591202,4.331496239,1.042179108,-9.161245346,-8.809786797,40.16330338, 
841,2297381535,64.49617767,70.01630402,157.766922,-7.890082836,4.49395752,0.927044928,-9.970244408,-6.858998299,41.18716049, 
842,2297398202,64.98820496,69.37107086,158.490448,-7.727711678,4.675329685,0.788435698,-10.60439301,-4.088965893,41.44313431, 
843,2297414869,65.55695343,68.75008392,159.3231049,-7.586290359,4.930747509,0.673530221,-11.94340801,-0.577813447,41.2958107, 
844,2297431536,66.19194794,68.15537262,160.2798004,-7.483150482,5.216720104,0.616106689,-14.69023132,3.428859234,41.14876938, 
845,2297448203,66.87686157,67.57701111,161.3612518,-7.395130157,5.481603622,0.530239999,-18.40135002,7.363250732,41.51077652, 
846,2297464870,67.6054306,66.99851227,162.5746307,-7.354894638,5.727136135,0.396831334,-22.82562256,11.23104286,42.80125046, 
847,2297481537,68.35178375,66.40384674,163.9034576,-7.464190006,5.962676048,0.313988268,-27.81518555,14.57324696,44.79255676, 
848,2297498204,69.10322571,65.78899384,165.3199158,-7.732028008,6.119810581,0.24419494,-31.96703339,17.40319443,46.73400879, 
849,2297514871,69.81439972,65.14937592,166.7676086,-8.037726402,6.340250969,0.190819263,-35.68933105,18.97758102,48.42895126, 
850,2297531538,70.47071838,64.47348785,168.2153473,-8.408094406,6.597590923,0.099571988,-38.54899979,19.64645004,50.51081467, 
851,2297548205,71.05967712,63.75896835,169.6286926,-8.723860741,6.590386391,-0.042866707,-40.26906586,19.4581089,52.45393753, 
852,2297564872,71.61001587,63.00590897,170.9903107,-8.832888603,6.515959263,-0.146178648,-39.3175621,18.82075691,54.27828979, 
853,2297581539,72.15423584,62.22631454,172.3207092,-8.79855442,6.462831974,-0.157156304,-37.50926208,18.9241066,55.60899734, 
854,2297598206,72.70339203,61.44268036,173.6453705,-9.097771645,6.513035774,-0.108686402,-36.39657974,20.12167358,55.86116028, 
855,2297614873,73.20302582,60.67032242,174.9423676,-9.386965752,6.568042278,-0.01620079,-37.39159393,20.94686508,55.04195023, 
856,2297631540,73.61726379,59.92355728,176.2096252,-9.721461296,6.471599579,0.044909082,-40.45101929,21.81944656,53.37940216, 
857,2297648207,73.93514252,59.20635986,177.4333801,-9.828935623,6.249525547,0.083410352,-43.49372482,22.18001175,51.37952042, 
858,2297664874,74.17280579,58.52154541,178.6179504,-9.919748306,5.967280388,0.159036741,-45.83082962,22.52443886,49.26607513, 
859,2297681541,74.3443985,57.87833405,179.7567749,-9.967622757,5.629024506,0.251081675,-47.03159332,22.65573883,46.57522202, 
860,2297698208,74.44535065,57.28487015,-179.1582184,-9.987502098,5.423729897,0.380899996,-48.15514374,22.50327492,43.34992218, 
861,2297714875,74.46083832,56.75227356,-178.13237,-9.825963974,5.197725296,0.56384176,-49.96444321,22.18719673,39.43761444, 
862,2297731542,74.39783478,56.28903961,-177.1629944,-9.549736023,4.969806194,0.668355286,-51.55921555,21.92859077,35.06728745, 
863,2297748209,74.24472046,55.90234756,-176.2452087,-9.182177544,4.77223587,0.747715473,-54.16389465,21.79824257,30.33115196, 
864,2297764876,74.00125122,55.60643005,-175.3835297,-8.758060455,4.592695713,0.813304484,-56.626297,21.63971901,24.73952675, 
865,2297781543,73.67343903,55.41719055,-174.5664215,-8.372186661,4.450294971,0.8625561,-59.35595703,22.03331184,18.34955978, 
866,2297798210,73.27000427,55.3524704,-173.7816467,-8.087703705,4.341406822,0.932113469,-62.24007797,23.09108162,11.05815792, 
867,2297814877,72.77830505,55.42535019,-173.052536,-7.859955311,4.283724785,1.004802465,-64.78833008,23.62034035,2.809504271, 
868,2297831544,72.19042206,55.64198685,-172.3829346,-7.60308218,4.24356699,1.02633965,-67.67823792,24.20106506,-5.806768417, 
869,2297848211,71.50300598,56.01181412,-171.7762299,-7.49159956,4.187145233,1.103028417,-70.63961792,24.97723579,-14.96012783, 
870,2297864878,70.7135849,56.53885269,-171.2492981,-7.449954033,4.194885254,1.168105364,-72.92946625,25.51067543,-24.47244644, 
871,2297881545,69.78859711,57.22075272,-170.8239746,-7.458531857,4.27038765,1.24705565,-76.1354599,25.64564705,-34.02736664, 
872,2297898212,68.72440338,58.04982758,-170.509201,-7.507487774,4.301148891,1.268407464,-79.05596924,25.80369949,-43.16530991, 
873,2297914879,67.49634552,59.00999451,-170.3275757,-7.61417675,4.378172398,1.351588964,-82.21573639,25.52251053,-51.55747986, 
874,2297931546,66.08575439,60.07699966,-170.294342,-7.757745743,4.55879879,1.490983963,-85.58125305,24.958395,-58.6624527, 
875,2297948213,64.48044586,61.20403671,-170.4164124,-7.996696949,5.002140045,1.638083577,-89.14683533,23.85000038,-63.15173721, 
876,2297964880,62.66674042,62.37535858,-170.6860809,-8.63074398,5.186001301,1.608870864,-93.75592804,23.29979706,-66.56788635, 
877,2297981547,60.64616394,63.57753754,-171.1529999,-9.435786247,5.228140354,1.608846545,-95.45209503,21.94809914,-69.76567078, 
878,2297998214,58.46367264,64.79891968,-171.850769,-10.3768568,5.190416813,1.664994717,-92.41300964,20.35546494,-72.6585083, 
879,2298014881,56.13940048,65.99020386,-172.8634491,-10.97559071,5.139014721,1.848269224,-83.35535431,16.29299927,-74.06639099, 
880,2298031548,53.77828217,67.06039429,-174.1804199,-10.4898634,4.93944788,2.077900648,-68.31591034,10.09171963,-70.89725494, 
881,2298048215,51.65439987,67.91209412,-175.5966644,-9.520161629,4.770043373,2.189963341,-48.04787445,4.082034111,-60.62731934, 
882,2298064882,50.07518768,68.50515747,-176.7984467,-8.828246117,4.522932529,2.139461756,-26.90734673,0.729655206,-44.77306747, 
883,2298081549,49.18045425,68.85613251,-177.5729065,-8.774112701,4.474600315,2.327910423,-9.493387222,-0.193670958,-27.27763939, 
884,2298098216,48.85464478,69.01242828,-177.8759613,-9.162108421,4.781284332,2.610960007,-1.661541104,0.248699412,-11.67018127, 
885,2298114883,48.85525131,69.02747345,-177.7878571,-9.730737686,5.137177944,2.995179176,-3.971037388,1.048007607,0.242667496, 
886,2298131550,48.89589691,68.9414978,-177.4741821,-9.825573921,5.164925098,3.437795639,-14.18713665,0.717245877,7.980629444, 
887,2298148217,48.87987518,68.76854706,-177.0207672,-9.645319939,4.74915123,3.698272467,-25.3779335,-0.402600795,13.90657043, 
888,2298164884,48.77928925,68.50469208,-176.5060883,-9.24499321,4.353163242,3.672922373,-33.82802582,-2.917840004,18.94368172, 
889,2298181551,48.66728973,68.16538239,-175.9196777,-8.666032791,3.860861301,3.611820936,-38.44710541,-4.622050762,23.48018456, 
890,2298198218,48.68870544,67.75215912,-175.2407837,-8.199462891,3.418395758,3.618717432,-35.49933624,-5.83163166,28.31748772, 
891,2298214885,48.93428421,67.26313782,-174.4375153,-8.037698746,3.11565423,4.007816792,-28.8244648,-6.374117851,33.82302856, 
892,2298231552,49.37919998,66.67087555,-173.5952911,-8.2307024,2.77513814,4.292629719,-18.84150314,-9.198986053,39.41897202, 
893,2298248219,50.01341248,65.97635651,-172.7944794,-8.079867363,2.401836872,4.431831837,-4.996709824,-13.14151764,43.87277603, 
894,2298264886,50.90011215,65.19503784,-172.0245514,-8.073998451,2.385344744,4.504194736,12.07473564,-16.01527977,47.93424606, 
895,2298281553,51.94136429,64.36248779,-171.3058014,-7.981100082,2.714031458,4.570682526,24.38400841,-17.67546844,50.15351105, 
896,2298298220,52.94171906,63.5117569,-170.6535339,-7.998447418,3.057543993,4.77532196,25.77409744,-18.37314606,50.60202789, 
897,2298314887,53.74863434,62.67575455,-170.0725708,-7.770263672,3.537345648,4.956692219,18.22690582,-18.17597008,49.32489014, 
898,2298331554,54.28017426,61.87647247,-169.5283661,-7.785446644,3.762512922,4.955502033,3.875972271,-16.76679993,47.40335083, 
899,2298348221,54.51486969,61.13013077,-169.0343933,-7.617465019,3.697743654,4.752416134,-11.08351326,-15.44048595,44.3199234, 
900,2298364888,54.51663208,60.46879959,-168.5849915,-7.593170643,3.414386749,4.490026951,-22.55526543,-13.17551327,39.62947464, 
901,2298381555,54.3664093,59.89597702,-168.2177429,-7.414443016,3.195456505,4.202087879,-27.26276779,-11.90831757,34.02624893, 
902,2298398222,54.16890335,59.4078598,-167.9288635,-7.308309555,3.23150444,4.012640953,-25.94981956,-10.81180954,28.59506989, 
903,2298414889,53.89974976,59.01267624,-167.715744,-7.132124424,3.452906847,3.634667873,-26.28003502,-9.427801132,22.75674248, 
904,2298431556,53.58385468,58.72047424,-167.5617218,-6.957384109,3.290295124,3.234505892,-26.01833534,-7.301456928,16.69255829, 
905,2298448223,53.24101257,58.5348587,-167.4434052,-6.703149319,3.453846216,2.956651449,-25.79241371,-4.445000172,10.88623524, 
906,2298464890,52.87083054,58.46613312,-167.3197937,-6.617229462,3.622979879,2.699799061,-27.69670677,-0.146921247,5.374174118, 
907,2298481557,52.46008301,58.50383759,-167.1798248,-6.589457512,3.734587908,2.557971001,-30.96868515,4.104987144,0.617396235, 
908,2298498224,52.06492996,58.64312363,-166.987793,-6.645383835,3.783558607,2.342597246,-32.70317078,9.114809036,-3.172043085, 
909,2298514891,51.73394394,58.88033676,-166.7253265,-6.906407833,3.834754467,2.144126654,-32.48257446,14.46150684,-6.396627426, 
910,2298531558,51.49873734,59.21470261,-166.376297,-7.204421043,3.897765636,1.994760156,-31.22788811,20.15795326,-9.268047333, 
911,2298548225,51.3669281,59.63746262,-165.9391022,-7.405328751,3.954153776,1.919429779,-29.6444931,25.50443649,-11.73665333, 
912,2298564892,51.35202026,60.1353569,-165.3813171,-7.665952206,4.041147232,1.931512237,-28.98743629,31.02731705,-13.06109428, 
913,2298581559,51.47586441,60.68920135,-164.6752472,-7.983619213,4.021018028,1.732028961,-28.54750061,36.33489227,-13.13562489, 
914,2298598226,51.75539017,61.29095459,-163.8021851,-8.101212502,3.926352739,1.431243658,-28.16592979,41.58633423,-12.71944427, 
915,2298614893,52.20455551,61.9621048,-162.7423248,-8.176462173,3.85147953,1.190543413,-28.12327194,47.86343765,-13.28966427, 
916,2298631560,52.83676147,62.7292099,-161.4714966,-8.630241394,3.864648581,1.08466959,-28.71622276,55.33700562,-15.15399742, 
917,2298648227,53.55463791,63.63082123,-160.0424805,-9.649928093,4.156603813,1.452302814,-32.54417801,62.62598419,-20.28252029, 
918,2298664894,54.18239975,64.63632965,-158.5682831,-10.78269196,4.567137241,2.12767148,-41.01588058,65.9857254,-26.09827232, 
919,2298681561,54.62871552,65.69338226,-157.1223602,-11.96525955,4.890043259,2.792694092,-51.0266037,65.79616547,-30.46827888, 
920,2298698228,54.78450394,66.66764069,-155.8160706,-12.71413326,5.102303982,3.313590288,-61.41464233,58.87593079,-29.50940514, 
921,2298714895,54.75706482,67.40390015,-154.6636658,-11.79170418,4.720404625,3.138511181,-64.35871124,46.8059845,-20.59810829, 
922,2298731562,54.8844986,67.82317352,-153.4918213,-10.07164001,3.902235031,2.53840518,-56.40177155,35.68130875,-5.194336891, 
923,2298748229,55.48284149,67.91803741,-152.0628204,-8.61536026,3.039426327,1.994140267,-42.55244446,29.07624245,13.71480942, 
924,2298764896,56.7111969,67.74391174,-150.2509308,-7.914408684,2.284666777,1.653745055,-26.00327301,27.53074455,31.51159096, 
925,2298781563,58.45062256,67.37879181,-148.1376038,-8.25729847,1.955603838,1.509241819,-11.8649292,28.41724586,44.41555405, 
926,2298798230,60.52722549,66.92501831,-145.906662,-9.250699997,2.005783081,1.60806191,2.204921246,30.25142097,49.84438324, 
927,2298814897,62.52683258,66.46351624,-143.8777771,-10.4935627,2.704135656,1.919194818,9.122121811,28.42420769,47.332798, 
928,2298831564,64.17221832,66.04262543,-142.2858124,-11.34237862,3.152462959,2.198178053,12.23509789,22.32897568,39.88534927, 
929,2298848231,65.40745544,65.68758392,-141.2071838,-11.26724052,3.472061396,2.228838921,15.98504734,14.14165211,30.63313293, 
930,2298864898,66.35087585,65.38963318,-140.5301514,-10.48726463,3.737293005,2.084435225,20.54345894,7.31649971,23.29865074, 
931,2298881565,67.1341095,65.10993958,-140.0662384,-9.437616348,3.729949236,1.857686639,22.62662506,3.340995073,20.1453495, 
932,2298898232,67.88317108,64.83207703,-139.6287842,-8.516246796,3.506600857,1.623153329,22.0635376,3.137526751,19.78578186, 
933,2298914899,68.67002106,64.54470062,-139.1077881,-8.027132034,3.279152155,1.591207504,19.84941483,5.28080368,21.10542297, 
934,2298931566,69.4863739,64.24398804,-138.4944153,-7.901941776,3.210653543,1.585819721,16.68551445,7.654909611,22.68328476, 
935,2298948233,70.30210114,63.93882751,-137.8153534,-8.013394356,3.2839849,1.475677609,13.18622971,9.657403946,23.47658539, 
936,2298964900,71.08267975,63.65208435,-137.119339,-8.265105247,3.314190149,1.310593843,10.24473953,10.94601727,22.50570679, 
937,2298981567,71.78632355,63.40985107,-136.4505615,-8.850310326,3.514655113,1.254929781,7.173587322,11.55315018,19.65924072, 
938,2298998234,72.30223083,63.2260437,-135.8971405,-9.295370102,3.66370821,1.266890883,2.151937008,10.00861645,15.28865433, 
939,2299014901,72.60362244,63.09594345,-135.4989166,-9.446000099,3.685360193,1.270386577,-2.38186121,7.156398296,10.91159344, 
940,2299031568,72.7326355,63.00479507,-135.2557678,-9.544761658,3.563201189,1.117507696,-4.420003891,3.909164906,7.422279358, 
941,2299048235,72.77259064,62.94607544,-135.1348267,-9.555837631,3.480215788,0.94323951,-3.241703749,1.333691835,4.590833187, 
942,2299064902,72.77607727,62.92449188,-135.0913696,-9.741603851,3.537695169,0.912232518,-1.30019021,-0.019286362,1.855326295, 
943,2299081569,72.75645447,62.93802261,-135.1180573,-10.21698284,3.606519938,0.972057641,1.046554089,-1.221431255,-0.705027938, 
944,2299098236,72.68204498,62.96912766,-135.2466583,-10.57939529,3.709728718,1.172780514,3.182000399,-3.558897734,-2.520584345, 
945,2299114903,72.53908539,62.98495102,-135.4911957,-10.09839535,3.67164588,1.270779848,5.248869419,-6.835621834,-2.576407909, 
946,2299131570,72.44059753,62.96357346,-135.736084,-9.522389412,3.672046185,1.220267296,7.921094894,-7.507366657,-0.445802033, 
