PacketCounter,SampleTimeFine,Euler_X,Euler_Y,Euler_Z,Acc_X,Acc_Y,Acc_Z,Gyr_X,Gyr_Y,Gyr_Z,
0,2283400293,-122.2111664,-80.09454346,35.66281891,0,0,0,0,0,0, 
1,2283416960,-119.0765762,-80.01209259,32.73160172,9.735214233,-1.629215956,-0.751469135,8.973308563,7.792690754,11.17613125, 
2,2283433627,-116.4190292,-79.84187317,30.28637314,9.724508286,-1.516900778,-0.778629899,8.026654243,7.265060425,10.61679173, 
3,2283450294,-114.7378616,-79.71326447,28.801754,9.718069077,-1.514120221,-0.802334011,7.299322605,6.357990742,10.3187027, 
4,2283466961,-113.6295471,-79.61236572,27.85733604,9.668540955,-1.598710656,-0.815148473,5.990756035,6.221833706,9.85179615, 
5,2283483628,-112.7726364,-79.51302338,27.12995529,9.771286011,-1.580407858,-0.694998145,5.184204102,6.398771763,8.912658691, 
6,2283500295,-112.1015091,-79.43412781,26.52989578,9.864135742,-1.463041902,-0.492317468,1.651244998,5.165641308,8.104572296, 
7,2283516962,-111.5723495,-79.38355255,26.01119804,9.740592003,-1.580607891,-0.495907664,-1.895173907,2.87872076,7.951164246, 
8,2283533629,-111.1310043,-79.32871246,25.55064774,9.67921257,-1.556385756,-0.623133957,-3.525819778,1.489052296,7.700850487, 
9,2283550296,-110.8858719,-79.25684357,25.24892998,9.690854073,-1.461310625,-0.540666699,-5.28769207,0.044374015,7.934061527, 
10,2283566963,-110.8800125,-79.17470551,25.14174461,9.636942863,-1.516929388,-0.389455676,-7.758795261,-2.236847639,8.159236908, 
11,2283583630,-111.0024109,-79.08319855,25.13821793,9.624158859,-1.66614902,-0.488273472,-9.376961708,-4.103291035,8.215906143, 
12,2283600297,-111.2265396,-78.97473145,25.21956253,9.587175369,-1.759689212,-0.660830438,-10.35826206,-5.367022514,8.218197823, 
13,2283616964,-111.5191498,-78.84502411,25.37316322,9.646018982,-1.708393812,-0.772356987,-10.02586746,-6.092803955,8.39186573, 
14,2283633631,-111.8870544,-78.6947937,25.60483742,9.653624535,-1.74410212,-0.687060535,-9.778231621,-6.828362942,8.907167435, 
15,2283650298,-112.3252182,-78.52386475,25.90286446,9.626801491,-1.679073453,-0.768353224,-9.899879456,-7.926624298,9.45663166, 
16,2283666965,-112.82164,-78.33609009,26.24784851,9.621175766,-1.711478353,-0.85337615,-10.2678833,-8.736395836,10.05166721, 
17,2283683632,-113.3939362,-78.12743378,26.66417885,9.66382885,-1.697803974,-0.793562472,-10.63211823,-9.864825249,10.71988773, 
18,2283700299,-114.0451813,-77.89992523,27.1517086,9.640759468,-1.773631692,-0.704411447,-11.07185268,-11.26362801,11.27909279, 
19,2283716966,-114.7802353,-77.6479187,27.70730209,9.581965446,-1.755598783,-0.660728633,-12.03966522,-13.01807213,12.00035, 
20,2283733633,-115.608017,-77.36118317,28.35490227,9.611253738,-1.783742428,-0.754395783,-12.293787,-15.43996716,13.12193108, 
21,2283750300,-116.486145,-77.03689575,29.06280327,9.560254097,-1.834412932,-0.85250634,-11.64842606,-17.62405968,14.45496178, 
22,2283766967,-117.4151917,-76.67475891,29.82831764,9.614253998,-1.746895313,-0.868018746,-11.30747318,-19.80373955,15.69120216, 
23,2283783634,-118.4002686,-76.27053833,30.6404705,9.632949829,-1.742412329,-0.996290505,-11.82422256,-22.14739037,17.21393967, 
24,2283800301,-119.3921051,-75.83870697,31.46983719,9.667392731,-1.913692594,-1.154414654,-11.31182575,-23.71632004,18.11553764, 
25,2283816968,-120.3964157,-75.37133789,32.30762863,9.774160385,-1.971317768,-1.212436795,-11.52742863,-25.44559097,19.27616501, 
26,2283833635,-121.3918991,-74.87046814,33.11934662,9.631407738,-1.860894442,-1.167615771,-12.48789501,-26.77517128,20.53566551, 
27,2283850302,-122.4257431,-74.32053375,33.97380066,9.53331852,-1.934832931,-1.199879527,-12.47802925,-29.63300896,22.06125832, 
28,2283866969,-123.5080566,-73.71338654,34.87865829,9.58540535,-1.974657893,-1.076337337,-12.43338013,-33.08843613,23.67510223, 
29,2283883636,-124.6670609,-73.04515839,35.8326416,9.658655167,-1.990871787,-1.039226294,-14.34244251,-36.94044495,25.30182457, 
30,2283900303,-125.8875885,-72.31128693,36.81080627,9.771054268,-2.068986893,-1.333681226,-16.81852722,-40.84536362,27.16878891, 
31,2283916970,-127.1415558,-71.50849152,37.77610397,9.889252663,-2.104646683,-1.328436732,-19.81241798,-44.37453461,29.37682533, 
32,2283933637,-128.3937531,-70.64131165,38.70975494,9.89427948,-2.281745195,-1.369881988,-21.75952721,-47.66082001,31.42626381, 
33,2283950304,-129.6263885,-69.71205902,39.60009003,9.959198952,-2.462815046,-1.869674087,-23.27555275,-50.81610489,33.33391571, 
34,2283966971,-130.8592682,-68.74319458,40.44993973,10.04529381,-2.308431149,-2.193675518,-25.80741882,-53.04608536,34.05606461, 
35,2283983638,-132.1329498,-67.7352066,41.33428955,10.49974251,-2.284008741,-2.47487855,-27.17134285,-56.30340958,33.84644699, 
36,2284000305,-133.4268951,-66.69448853,42.3217926,11.31208038,-1.914542794,-2.818692446,-22.97551346,-60.73456955,31.97760391, 
37,2284016972,-134.6227112,-65.60710144,43.25249863,11.85108089,-1.500106931,-2.907286882,-20.51287651,-63.08110046,33.31341171, 
38,2284033639,-135.7557831,-64.39825439,44.23035049,11.7306633,-1.099879861,-3.473433495,-14.48395252,-70.54955292,36.14081955, 
39,2284050306,-136.8509216,-63.04855347,45.28834534,12.86185074,-1.237903833,-2.939669609,-8.209623337,-79.59176636,38.82295609, 
40,2284066973,-137.8031464,-61.62031555,46.2468605,13.5813036,-1.090842009,-2.151130676,-5.446784973,-83.07248688,42.24699402, 
41,2284083640,-138.649704,-60.13729095,47.05929565,13.77371216,-0.567207873,-1.849115849,-7.355544567,-84.80401611,46.04291534, 
42,2284100307,-139.4439545,-58.64610291,47.74047089,13.05545235,-0.090937257,-1.535189152,-11.50145245,-84.63218689,48.13830566, 
43,2284116974,-140.1654205,-57.0110054,48.30027008,13.28733063,0.46011129,-0.206981272,-13.7388134,-90.67967987,55.60173798, 
44,2284133641,-140.2906494,-55.19122314,48.32187653,13.48505878,0.545285523,0.773905277,-5.267329216,-89.66980743,76.0579071, 
45,2284150308,-139.8909149,-53.00481415,48.06722641,13.05670261,1.26976037,0.091875285,12.72182941,-101.3985672,98.61808014, 
46,2284166975,-139.6016846,-50.59676361,47.99786377,12.3330307,-0.726974308,-1.450492144,15.28757381,-116.0956345,103.8088531, 
47,2284183642,-139.6364288,-48.47681046,48.04987335,12.53362656,-6.368118763,-2.903506756,1.523220778,-106.2848663,89.7802124, 
48,2284200309,-139.9319305,-46.75206375,48.00348663,11.48119926,-8.280455589,-4.231297016,-19.01942062,-86.29455566,76.66440582, 
49,2284216976,-139.7855682,-45.27254486,47.6620636,9.446075439,-6.038572788,-3.204920769,-5.7697649,-67.27597046,75.74341583, 
50,2284233643,-139.3505859,-44.19894409,47.00432587,7.913021564,-2.714430571,-0.875572801,-1.929243684,-39.48515701,70.28105164, 
51,2284250310,-138.8623047,-43.50999832,46.39781189,5.83677578,-0.001905802,-2.089751959,3.543143749,-22.91562843,54.01053238, 
52,2284266977,-139.2908173,-43.19228745,45.77193451,6.575631618,0.974982202,-1.455843568,-51.90599823,-5.242692947,40.31125259, 
53,2284283644,-139.9509277,-43.66906738,45.19441986,5.514356613,-0.142321244,1.818302631,-63.69062805,29.24379349,8.004441261, 
54,2284300311,-140.0119171,-44.61426163,44.73046112,3.016647577,-0.157107487,0.987107337,-23.53242493,47.03847504,-13.84877777, 
55,2284316978,-139.8943024,-45.82452011,44.60689926,3.984263659,-1.260727644,-1.460507512,1.20707202,49.75228882,-35.5800972, 
56,2284333645,-139.3840942,-47.49549866,44.44090652,6.171194553,-2.366678953,-2.354615927,22.7975235,71.90943146,-52.74231339, 
57,2284350312,-138.6820679,-49.62281799,44.30804825,6.573562622,-0.091100626,-2.206021547,35.56536102,91.15267181,-72.81812286, 
58,2284366979,-138.233963,-52.14329529,44.21435547,7.706739426,2.099525213,-1.553768516,22.11161041,107.0542526,-90.56658936, 
59,2284383646,-138.0605927,-55.06821823,44.10072708,8.090668678,1.910175204,-1.249068022,4.750384808,124.9710007,-106.5471115, 
60,2284400313,-138.0285645,-58.30321884,43.95266342,8.769855499,0.317065656,-1.757620692,-5.496235371,139.1534271,-118.2158203, 
61,2284416980,-138.1731873,-61.84526062,43.72428513,9.682433128,0.709528863,-2.914433241,-20.4812851,154.3300934,-128.7628021, 
62,2284433647,-138.4160309,-65.65140533,43.42376328,10.45008945,1.303636551,-2.944613457,-30.570961,167.5314789,-137.7312012, 
63,2284450314,-138.6648712,-69.65259552,43.11191559,11.34259033,0.038798906,-3.345137835,-31.99259949,176.5180359,-145.1578217, 
64,2284466981,-138.9021912,-73.86660004,42.9065094,11.64497089,-1.429978848,-4.020975113,-25.70102692,184.8782043,-155.21315, 
65,2284483648,-139.2749786,-78.25583649,43.20259476,12.40511131,-1.708132863,-4.464995861,-4.911876678,188.7734222,-167.4082489, 
66,2284500315,-139.8636932,-82.81820679,44.11112595,13.43775654,-1.542992115,-4.15104866,18.62309456,195.6661682,-176.2835388, 
67,2284516982,-142.6728516,-87.4528656,47.59282684,13.47484398,-1.218263507,-3.740448713,39.79957581,199.4735413,-179.897644, 
68,2284533649,48.46607971,-87.87680817,-142.7637634,12.92014217,-0.57254082,-2.806959867,46.34968948,200.4141235,-180.7312469, 
69,2284550316,45.04779434,-83.38037872,-138.6752319,13.20147991,-0.598024011,-1.643225193,39.47402191,193.2800598,-176.2597351, 
70,2284566983,45.12431335,-79.07645416,-138.205658,14.3325386,-1.702124119,-1.838138342,32.11951065,180.8207703,-172.8908844, 
71,2284583650,45.62712479,-74.96944427,-138.4577484,15.16003799,-3.325904131,-3.617346525,15.00068569,166.670639,-171.3933716, 
72,2284600317,45.54445648,-71.13389587,-138.4748535,15.39542961,-4.460506439,-4.716152191,-6.430091381,157.5945587,-159.0559845, 
73,2284616984,44.66675186,-67.70391083,-138.0536346,14.44928265,-3.641111135,-4.611466885,-29.53931427,149.1951904,-134.9977417, 
74,2284633651,43.16612625,-64.94947052,-137.4571991,11.94347382,-4.219432831,-5.387934685,-57.87520599,127.5242615,-100.6760788, 
75,2284650318,41.52809906,-63.07822418,-136.9987946,7.935508728,-7.905890465,-7.333333969,-74.2299881,90.48301697,-63.99871063, 
76,2284666985,40.50613022,-62.33084488,-136.7438354,5.56551981,-12.23821735,-9.807262421,-48.35374451,38.76845551,-22.46287727, 
77,2284683652,40.00378036,-62.70391083,-136.3762665,6.968928814,-11.25603104,-9.506351471,-11.03947258,-9.094004631,22.59165382, 
78,2284700319,40.2832489,-63.99969101,-135.8272858,8.528045654,-9.207681656,-7.797008514,45.90704346,-47.44166946,60.53974533, 
79,2284716986,40.62819672,-65.62888336,-134.5919189,10.68331337,-8.147504807,-5.812250137,87.62202454,-50.58129883,85.43727112, 
80,2284733653,40.05739975,-67.00692749,-133.4442596,11.19783878,5.562361717,0.871867895,28.8306179,-41.08851242,71.58378601, 
81,2284750320,41.23868942,-66.42139435,-132.95755,13.35414219,22.44725227,10.00820065,97.62000275,38.27103043,-16.93187523, 
82,2284766987,42.75136185,-66.2258606,-132.3713379,6.770553589,10.6434269,5.785690308,122.5357361,21.57810211,1.451045156, 
83,2284783654,43.95635223,-68.60678101,-133.3965607,13.97831726,2.822234869,-13.45857811,14.95377731,-117.108017,80.4272995, 
84,2284800321,41.25988388,-69.84645844,-131.0584717,22.41004753,0.293376327,-5.811681747,-31.37198067,-16.60843086,86.43087006, 
85,2284816988,37.47862244,-71.00556183,-126.2501221,13.09802914,-10.49081421,6.691401482,44.31552505,12.96421528,117.7786484, 
86,2284833655,33.91014481,-71.99830627,-122.5517883,8.131418228,-11.74647522,5.834832191,-3.799156189,-2.287131786,89.76358795, 
87,2284850322,33.40874481,-72.93869781,-121.962059,7.284694195,5.672851086,1.376275778,3.910699606,-36.48117447,36.93877029, 
88,2284866989,32.004879,-74.08001709,-121.0900879,9.058325768,2.711363792,2.140466452,-33.88189316,-45.07641602,46.77093887, 
89,2284883656,29.59218025,-75.0692749,-119.558197,10.42502308,3.490859985,-1.55501461,-55.97176743,-33.99777222,48.90033722, 
90,2284900323,27.37276268,-76.00128937,-117.031044,10.41342068,-1.513995767,-0.548586309,13.83101749,-26.3654747,57.7171402, 
91,2284916990,25.10958672,-76.79827881,-114.5432129,9.954719543,-2.273790598,1.432230949,9.548666,-22.51638412,50.18819046, 
92,2284933657,23.10710526,-77.54478455,-112.4595718,9.398395538,0.678340375,2.844730616,2.088917971,-24.73888969,40.97136688, 
93,2284950324,20.69697189,-78.42382813,-110.2715759,9.549738884,0.976400852,1.444697976,-15.83119011,-34.10052109,42.42815781, 
94,2284966991,18.07008171,-79.33521271,-107.8082809,10.08881187,0.199430212,0.5232054,-12.20310211,-37.52350998,42.52614594, 
95,2284983658,15.23335266,-80.23156738,-105.106636,10.1833868,0.26987958,0.802702308,-10.26260662,-38.66270065,40.47522736, 
96,2285000325,11.9672451,-81.12192535,-102.0011139,9.84076786,0.317228407,1.242929339,-11.69473457,-40.48381042,39.6414299, 
97,2285016992,8.210177422,-81.96002197,-98.50410461,9.702703476,0.002070192,1.069773316,-17.52736855,-40.49867249,37.42789459, 
98,2285033659,3.872453451,-82.74034119,-94.48819733,9.663541794,-0.414923489,0.208120555,-21.16129684,-40.42723465,35.60110855, 
99,2285050326,-1.229816556,-83.44180298,-89.71421051,9.743255615,-0.139888659,-0.044459917,-21.51579285,-39.27091217,34.6659584, 
100,2285066993,-7.486151218,-84.05712891,-83.7578125,9.615008354,-0.183479294,-0.206178278,-19.92666245,-38.29959488,35.61610413, 
101,2285083660,-15.08948326,-84.58543396,-76.41159058,9.558506966,-0.548032463,-0.089352533,-17.41880608,-38.56434631,36.45998764, 
102,2285100327,-23.87375641,-84.98921204,-67.82360077,9.601807594,-0.752547324,0.052993897,-13.76920223,-37.68006897,36.12786484, 
103,2285116994,-33.4700737,-85.25266266,-58.36927414,9.576288223,-1.057721376,-0.335111082,-10.44108963,-36.4739418,34.93039703, 
104,2285133661,-43.23866272,-85.38374329,-48.70310593,9.808930397,-1.100400448,-0.318374187,-7.95520401,-35.15777206,32.49207306, 
105,2285150328,-52.53828049,-85.38620758,-39.48259735,10.00477982,-0.933251619,-0.399980098,-6.438105106,-32.84491348,30.04350662, 
106,2285166995,-61.12197113,-85.28366089,-30.96227264,9.996660233,-1.061597109,-0.66504401,-5.41006422,-31.23792267,28.24383736, 
107,2285183662,-68.90479279,-85.10743713,-23.21897507,9.902949333,-1.169292927,-0.96241492,-3.889470816,-30.66698265,26.37379074, 
108,2285200329,-75.75558472,-84.88511658,-16.42704391,9.815207481,-1.154700518,-0.745744109,-4.994495869,-29.7044754,23.88841057, 
109,2285216996,-81.96274567,-84.62607574,-10.29780674,9.854986191,-1.131743431,-0.591154099,-6.128266335,-29.88978958,22.1499176, 
110,2285233663,-87.5528717,-84.32294464,-4.817758083,9.788473129,-1.254973531,-0.302521765,-8.052807808,-29.79862404,21.42921638, 
111,2285250330,-92.69966125,-83.98506927,0.208558142,9.634627342,-1.316495538,-0.730727255,-8.713522911,-30.71262169,20.6319313, 
112,2285266997,-97.46112061,-83.62575531,4.86195755,9.465035439,-1.522746682,-1.256483078,-8.028009415,-31.87873077,19.24108315, 
113,2285283664,-101.8026657,-83.25436401,9.084806442,9.367612839,-1.547641873,-0.687741995,-8.702521324,-32.22968674,17.56769943, 
114,2285300331,-105.899704,-82.86364746,13.0526247,9.237322807,-1.557289243,-0.767794847,-9.410692215,-33.51594925,16.31317711, 
115,2285316998,-109.6702576,-82.45365906,16.71254349,9.310357094,-1.620496392,-1.13401854,-8.360548019,-34.21150208,15.30359268, 
116,2285333665,-113.1330795,-82.02243042,20.06688499,9.505208969,-1.423942685,-1.287226558,-8.269275665,-34.72489929,14.61397839, 
117,2285350332,-116.4307556,-81.53192902,23.2077961,9.66823101,-0.828831434,-0.714048624,-11.26422501,-36.79127502,15.87816811, 
118,2285366999,-119.698288,-80.92623901,26.35049629,9.815581322,-0.873793125,-0.797310352,-9.61339283,-42.454319,18.99703217, 
119,2285383666,-122.8238373,-80.22216034,29.37689018,9.923723221,-1.426414967,-1.01715517,-8.320634842,-47.33067322,21.14084244, 
120,2285400333,-125.8722839,-79.43115234,32.26110077,9.896845818,-1.26148653,-0.659485161,-12.49229431,-52.00862122,22.40480042, 
121,2285417000,-128.7919312,-78.52536011,34.93661499,10.02320194,-1.166158915,-0.512787402,-17.5299015,-57.36194611,25.07239723, 
122,2285433667,-131.4797974,-77.48532104,37.3406601,9.905843735,-1.258041024,-1.01685369,-20.09579659,-63.15378189,28.85955811, 
123,2285450334,-133.9845123,-76.32281494,39.551651,10.08950615,-1.125476837,-1.535728097,-20.98956871,-69.42743683,31.31790352, 
124,2285467001,-136.3227844,-75.04712677,41.62234497,10.84388924,-1.120636702,-2.079242706,-19.8282814,-75.94752502,32.68003082, 
125,2285483668,-138.399765,-73.69257355,43.52381134,12.13227081,-0.795791149,-2.132719517,-14.66569901,-80.62957764,32.93198395, 
126,2285500335,-140.0998383,-72.24505615,45.15589142,12.71464634,-0.333017409,-2.482838631,-8.286019325,-84.54306793,35.46963501, 
127,2285517002,-141.4420624,-70.65834808,46.5561409,12.90873718,0.354247063,-3.019627094,-0.794879258,-90.68067169,40.0297966, 
128,2285533669,-142.4931335,-68.91397095,47.86816788,13.73910332,0.230010107,-2.928260803,10.90414619,-99.23170471,43.60228348, 
129,2285550336,-143.23703,-67.10968781,48.98893738,14.70498943,0.828064024,-2.161967516,17.819664,-101.5538712,45.8526535, 
130,2285567003,-143.9741364,-65.18781281,50.04591751,14.93240929,1.581127524,-1.177067518,13.88309097,-108.1068115,48.37755585, 
131,2285583670,-144.5308228,-63.2201767,50.90576553,15.41815853,0.691562176,0.826757669,13.16091537,-109.0407639,51.39141464, 
132,2285600337,-144.0331116,-61.37010574,51.0681076,13.26498795,-0.655268133,1.29757762,38.59070969,-92.93414307,61.80215454, 
133,2285617004,-142.9423981,-59.10126495,50.91062164,10.80454254,-0.959318161,-1.252653122,57.33014297,-106.839386,85.45982361, 
134,2285633671,-142.0777893,-56.45901871,50.45843887,10.27811241,-6.713251591,-2.433505058,29.00974274,-117.2194366,108.6653519, 
135,2285650338,-141.1376038,-54.44773102,50.01912689,9.698669434,-10.795784,-3.689440966,34.76689529,-85.53689575,87.31839752, 
136,2285667005,-141.3216858,-53.17900085,49.83318329,9.044712067,-0.515163839,-3.33933568,-20.00799751,-55.4569397,53.3885231, 
137,2285683672,-141.996582,-52.40687943,49.3989296,6.95937252,3.089446306,0.968310297,-61.19252014,-26.79454231,41.70277023, 
138,2285700339,-142.6801605,-52.05962372,49.04699326,5.717552185,-1.155820608,0.959729791,-57.64173508,-8.859376907,23.62006187, 
139,2285717006,-143.5650024,-52.26764679,49.05589294,4.139111519,-2.130075932,-0.738264382,-52.61375046,9.495806694,-7.100502014, 
140,2285733673,-144.1904907,-52.90473557,49.25804901,3.461067677,-0.796326935,-1.202437639,-27.84654236,26.2414093,-27.85219955, 
141,2285750340,-144.4103394,-53.97306824,49.65031052,3.115343332,-1.493204236,-1.420054913,5.766818047,43.59179306,-48.15982056, 
142,2285767007,-144.2751465,-55.43512344,50.28507614,4.152218342,-1.60152626,-1.968391418,39.24819946,58.18093109,-68.39868164, 
143,2285783674,-143.817627,-57.35079193,51.10771942,5.150178432,-0.940969586,-2.563204765,68.61487579,76.7490921,-88.98548126, 
144,2285800341,-143.1389771,-59.73469162,52.14904404,5.850524902,-0.809782207,-2.64811635,94.07555389,95.30141449,-110.7069016, 
145,2285817008,-142.422348,-62.57006454,53.44998932,6.448578835,-1.002027273,-2.64391613,111.4363937,112.4639359,-132.2597809, 
146,2285833675,-141.8604126,-65.83190155,55.08853912,7.476021767,-1.038173914,-2.364301443,122.3081284,128.0379944,-153.2502136, 
147,2285850342,-141.5431366,-69.33475494,57.35821533,8.634559631,-2.683909893,-2.845846176,145.0184021,132.5335999,-170.3493042, 
148,2285867009,-141.638031,-72.96297455,60.59090805,9.740997314,-5.151832104,-4.499352932,177.9755402,131.4104156,-183.6835327, 
149,2285883676,-142.1390533,-76.62621307,65.0574646,11.40749741,-6.913513184,-6.099630356,228.6776428,129.3087463,-190.2934265, 
150,2285900343,-143.6391602,-80.25379181,71.28941345,12.45317745,-6.131919861,-7.297139645,276.4851685,128.0735016,-190.3973236, 
151,2285917010,-148.0515442,-83.62489319,80.3660965,12.04617786,-7.044436932,-5.786551952,274.7090149,124.0381775,-175.9369507, 
152,2285933677,-162.4045715,-86.12283325,99.09390259,11.80665874,-9.903208733,-4.134397507,258.3407593,92.43296051,-152.4074707, 
153,2285950344,166.2189941,-87.49908447,134.4315948,12.13698483,-10.00806808,-4.032169819,234.7547455,74.86323547,-118.4735107, 
154,2285967011,124.6739426,-87.71621704,179.1001129,10.30641079,-7.617481709,-4.741723061,185.3361206,71.88699341,-82.93850708, 
155,2285983678,98.42893982,-87.35462189,-152.5656281,8.56449604,-5.919025421,-3.923306942,123.8977356,59.70838928,-46.1872406, 
156,2286000345,87.78728485,-87.24054718,-140.5739594,7.783678532,-7.01113224,-3.863571882,80.262146,33.60569382,-8.753036499, 
157,2286017012,89.95571899,-87.9497757,-141.5026703,6.468455315,-14.95685101,-8.170171738,74.48880768,-2.977508545,42.300354, 
158,2286033679,149.7670135,-88.51602173,157.8953857,8.229530334,-5.992515564,-15.29056263,-45.97681427,-77.86317444,78.29634094, 
159,2286050346,169.3812256,-88.44405365,137.1277618,16.36821938,7.644831657,3.691783905,-68.74742889,-14.8895359,28.88013649, 
160,2286067013,178.9595032,-88.94928741,127.8169937,7.322824955,3.665967703,9.445013046,16.24401093,29.23163223,15.43642426, 
161,2286083680,-158.2614746,-87.55528259,106.7760239,8.285948753,-6.583039761,-12.18295383,104.8103638,-73.73827362,52.28282166, 
162,2286100347,-151.6258087,-87.17285156,99.60081482,20.4929409,2.19117403,-4.891177654,-31.86985397,-11.90810776,27.38027191, 
163,2286117014,-142.5420685,-87.0819397,90.9917984,7.409252167,0.04803624,0.338768274,29.17963028,9.996011734,24.50824547, 
164,2286133681,-137.463623,-86.80206299,85.85058594,9.899947166,-0.41423592,-3.335965872,-3.271817207,-1.799455881,23.25551796, 
165,2286150348,-131.7759094,-86.55360413,80.37313843,9.604685783,-2.115770817,-1.511381626,13.24151897,3.580639124,23.8870697, 
166,2286167015,-126.8809814,-86.36299133,75.71708679,9.454831123,-1.539146781,-0.431879699,14.93253326,6.601419449,19.67638779, 
167,2286183682,-123.0644379,-86.20120239,72.10346222,9.954865456,-1.169099689,-1.364536285,12.70481491,6.432383537,15.91947079, 
168,2286200349,-119.6319656,-86.12940216,68.79782867,10.54289055,-0.882455111,-1.080715895,8.134037018,9.561408997,10.50048733, 
169,2286217016,-116.5892563,-86.04517365,65.90684509,10.34971714,-0.715815961,-1.707669377,9.59859848,8.533467293,9.968175888, 
170,2286233683,-113.810997,-85.93417358,63.30166245,9.99018383,-1.14849174,-0.956663013,10.84833336,7.530448437,10.64597988, 
171,2286250350,-111.8595505,-85.85277557,61.54618073,9.655595779,-1.529680729,-0.666511297,12.12223053,5.529030323,7.404033661, 
172,2286267017,-110.6115112,-85.81095886,60.4809494,9.545259476,-1.145874619,-1.025503039,11.23025227,3.883604288,4.003817081, 
173,2286283684,-109.499855,-85.76663971,59.55597687,9.624297142,-1.077145338,-1.247558475,11.44624329,3.38249135,3.878314734, 
174,2286300351,-108.2786789,-85.72932434,58.51148605,9.434351921,-1.072828174,-1.129009485,10.86698818,4.140589714,3.621958017, 
175,2286317018,-107.1312332,-85.69879913,57.54295731,9.546989441,-1.176183462,-1.04234767,11.00050545,4.054569244,3.069491386, 
176,2286333685,-105.947876,-85.68225861,56.52272797,9.645213127,-0.959026039,-1.186068177,10.05416584,4.604959965,2.272922754, 
177,2286350352,-104.5920258,-85.67192841,55.28687286,9.716230392,-0.821483016,-1.298818469,7.516701698,5.712274075,2.095350027, 
178,2286367019,-103.2187805,-85.6574707,54.01007843,9.77452755,-0.885516047,-1.123298168,6.107285023,5.912602425,2.258527994, 
179,2286383686,-102.1683884,-85.63600922,53.07569122,9.727172852,-1.129930496,-1.085982084,7.227777958,4.370706081,2.241009474, 
180,2286400353,-101.4307404,-85.63542938,52.45293808,9.696386337,-1.247535586,-0.782516718,7.11021471,3.289516211,0.665161848, 
181,2286417020,-101.1350327,-85.65007782,52.26250076,9.69331646,-1.026801586,-0.775218368,6.458703518,1.538439631,-0.639632404, 
182,2286433687,-101.1738281,-85.67845154,52.37878418,9.745295525,-0.919634104,-1.243729353,4.734559059,0.330877632,-1.712983847, 
183,2286450354,-101.0276413,-85.73290253,52.30135345,9.84230423,-1.076434255,-1.449640393,4.25193882,1.505847454,-3.077666759, 
184,2286467021,-100.3556595,-85.82627106,51.7085495,9.865049362,-1.134122849,-1.220271945,4.956788063,4.165048122,-4.946639061, 
185,2286483688,-99.41287231,-85.95040131,50.84159088,9.800931931,-1.068431735,-1.090057015,4.799385548,5.525109291,-6.630572796, 
186,2286500355,-98.45137787,-86.0825882,49.97643661,9.691566467,-1.004815936,-1.309327006,6.015567303,5.377746582,-7.199828148, 
187,2286517022,-97.18508148,-86.24131012,48.7715416,9.858031273,-0.806396723,-0.896703005,3.964642286,6.695994377,-8.7120924, 
188,2286533689,-95.6979599,-86.40696716,47.37839508,10.01928806,-0.89993012,-1.237733483,5.919405937,7.054203033,-9.187608719, 
189,2286550356,-93.63181305,-86.61227417,45.35087585,9.871775627,-0.911058187,-1.501990676,2.661955357,9.019953728,-11.59410286, 
190,2286567023,-90.99741364,-86.86387634,42.72909164,9.883325577,-1.012276649,-1.153260469,1.123041272,10.21756935,-14.62625599, 
191,2286583690,-87.89561462,-87.16248322,39.57055283,9.903563499,-0.842449009,-0.693665624,-3.033412933,10.38816929,-17.92895126, 
192,2286600357,-85.29152679,-87.46232605,36.86718369,9.8142519,-0.470466584,-0.440708816,-5.666312218,7.222305298,-18.30761909, 
193,2286617024,-84.73791504,-87.73375702,36.18621063,9.683282852,-0.367135823,0.064795986,-7.486055374,0.993517637,-16.29971313, 
194,2286633691,-87.87030792,-87.96048737,39.1816864,9.566903114,-0.034913439,0.74205786,-8.230297089,-6.917146206,-13.03433609, 
195,2286650358,-96.38664246,-88.09474182,47.54475021,9.781059265,0.105491407,0.822644353,-9.376676559,-16.27668381,-8.544877052, 
196,2286667025,-109.4257889,-88.06224823,60.44545364,9.642149925,0.032784384,0.03923405,-8.63410759,-25.03703308,-3.76440382, 
197,2286683692,-123.0219803,-87.83779907,73.93849945,9.560315132,-0.141006947,-0.946091354,-6.593353271,-31.20789909,-0.596963704, 
198,2286700359,-133.9280396,-87.4861145,84.72564697,9.699876785,-0.33353743,-1.281365752,-7.571625233,-33.04309845,0.191750273, 
199,2286717026,-141.8290863,-87.10092163,92.53573608,9.952560425,-0.506526113,-1.329565525,-5.878462791,-31.25390053,-0.757850528, 
200,2286733693,-147.8918304,-86.76699829,98.63391113,10.1238718,-0.475348532,-1.045550823,1.702403903,-26.9232254,-4.300005913, 
201,2286750360,-152.3609161,-86.47491455,103.2395935,9.821058273,-0.269076943,-1.535691977,7.818894863,-22.59182358,-5.214864731, 
202,2286767027,-155.5532837,-86.11315155,106.3797531,9.551660538,-0.52608186,-2.310780048,-3.437660694,-24.08247566,-1.238242388, 
203,2286783694,-157.881485,-85.69361877,108.6114426,9.901272774,-0.630920351,-2.028059959,-6.036216736,-26.1055584,1.343389392, 
204,2286800361,-159.5995026,-85.24172974,110.2897873,10.02845478,-0.511438251,-1.800359726,-2.60990262,-27.30469513,2.588515759, 
205,2286817028,-160.8697357,-84.78117371,111.5645447,9.983132362,-0.270467639,-2.193289995,0.077286519,-27.38799095,3.261349916, 
206,2286833695,-161.9026489,-84.36306,112.598053,9.689242363,-0.383335322,-2.341238976,-0.150506943,-24.73400116,2.630186558, 
207,2286850362,-162.7506104,-84.01811218,113.4457169,9.614124298,-0.543492973,-2.370129824,-0.185084045,-20.32969284,1.563542128, 
208,2286867029,-163.3401031,-83.76674652,114.0351486,9.698694229,-0.607735157,-2.387434483,-0.113957375,-14.52401638,0.982170761, 
209,2286883696,-163.739151,-83.58244324,114.4324951,9.527731895,-0.652046561,-2.359503984,-0.153003916,-10.30305099,0.791957736, 
210,2286900363,-164.3760986,-83.46148682,115.064743,9.471060753,-0.72456938,-2.417304039,-0.427046955,-7.069035053,-1.949261069, 
211,2286917030,-165.3724213,-83.38630676,116.0536041,9.284174919,-0.664951146,-2.67585659,-0.747858882,-4.988234043,-5.219874859, 
212,2286933697,-166.6276093,-83.37620544,117.3224716,9.216394424,-0.486785799,-2.854153872,0.403912365,-1.5161376,-8.213820457, 
213,2286950364,-168.030426,-83.45090485,118.7274857,9.399817467,-0.298770189,-2.714509249,-0.336057931,3.510708094,-10.26349258, 
214,2286967031,-169.3960876,-83.58766174,120.1227188,9.797515869,-0.216871202,-2.353984833,1.328224063,7.511106968,-10.71398354, 
215,2286983698,-170.6281586,-83.74448395,121.4270325,9.884456635,-0.570545375,-2.392547607,3.945741892,9.128320694,-9.970359802, 
216,2287000365,-171.9649658,-83.91379547,122.8317871,9.810163498,-0.267189324,-2.020801306,3.674734116,10.07650471,-10.33878517, 
217,2287017032,-173.4705811,-84.05476379,124.3799057,9.650821686,0.344105273,-1.691856623,2.12449789,8.595217705,-10.57370377, 
218,2287033699,-174.9598846,-84.15950012,125.8890457,9.876890182,0.295344085,-1.717014313,0.78850013,6.791134357,-9.702600479, 
219,2287050366,-176.3550873,-84.25904846,127.2873917,10.08398724,0.147914007,-1.758495808,-0.145550624,6.792771816,-8.690705299, 
220,2287067033,-177.5978088,-84.35145569,128.5220642,10.10007668,0.195875973,-1.657249093,-0.766671598,6.668524742,-7.415347099, 
221,2287083700,-178.7425995,-84.41632843,129.6190796,9.91261673,0.286656171,-1.54733932,-3.105623484,5.233878613,-6.326587677, 
222,2287100367,-179.815506,-84.45108032,130.5954285,9.804515839,0.200629339,-1.544014335,-5.988192558,3.574304104,-5.451695919, 
223,2287117034,179.212616,-84.45928192,131.4708252,9.707333565,-0.028933784,-1.71424222,-5.946405411,2.094709396,-4.799660206, 
224,2287133701,178.2706757,-84.46579742,132.3447723,9.737112999,-0.114661001,-1.868481994,-4.247488499,2.120219707,-4.769924164, 
225,2287150368,177.4279175,-84.47873688,133.1444397,9.701505661,-0.068069607,-1.871491909,-2.726849794,2.599894047,-4.308472157, 
226,2287167035,176.6536102,-84.49654388,133.8878021,9.622333527,0.046589747,-1.872301102,-1.985868335,2.98106885,-3.938401937, 
227,2287183702,175.9177094,-84.51052856,134.6194305,9.508739471,0.123595819,-1.887687922,-0.375245333,2.833879232,-3.851068497, 
228,2287200369,175.2552643,-84.51538086,135.2843628,9.546999931,0.192773715,-2.014015913,0.041377313,2.355894566,-3.479875803, 
229,2287217036,174.7156067,-84.52639771,135.8509369,9.635278702,0.087272152,-1.992532492,1.5346874,2.761778831,-2.861303568, 
230,2287233703,174.2849274,-84.54792023,136.3225708,9.724424362,0.059433699,-1.913572311,2.40649271,3.400265455,-2.2380445, 
231,2287250370,173.9000244,-84.57476044,136.7408295,9.798100471,0.144924223,-1.713051319,1.973971009,3.742502689,-1.87631619, 
232,2287267037,173.5305023,-84.59086609,137.1205597,9.776065826,0.259399652,-1.750507712,0.58092165,3.137427568,-1.697526336, 
233,2287283704,173.1748657,-84.59978485,137.4677429,9.803060532,0.228569239,-1.943630576,-0.522390187,2.726868629,-1.538958192, 
234,2287300371,172.9453278,-84.61962891,137.6975098,9.845492363,0.22441493,-1.953625202,0.028955156,3.351395845,-0.78042531, 
235,2287317038,172.877121,-84.6558075,137.7792816,9.751554489,0.364192218,-1.876388788,0.878643692,4.258572578,0.186422035, 
236,2287333705,172.9547577,-84.69507599,137.7177277,9.647006989,0.40915072,-1.792842507,1.054449439,4.40113306,1.026749253, 
237,2287350372,173.1310272,-84.73322296,137.557724,9.684135437,0.121984497,-1.756524205,1.106801748,4.288462639,1.569584846, 
238,2287367039,173.3065033,-84.77059937,137.3924866,9.660941124,0.05054282,-1.717383504,0.736614943,4.296255589,1.590299129, 
239,2287383706,173.4379272,-84.79941559,137.256546,9.708436966,0.227055654,-1.425894022,-0.147055328,3.832895994,1.363281012, 
240,2287400373,173.639267,-84.81156158,137.0536652,9.830615997,0.271682918,-1.508140326,0.041799929,2.828782082,1.619478226, 
241,2287417040,173.9274597,-84.82180786,136.7750092,9.897934914,0.127230927,-1.857644796,0.732433617,2.696466923,2.025183439, 
242,2287433707,174.2755432,-84.8367691,136.4434052,9.882464409,0.225883305,-1.880880356,1.165019512,2.996699333,2.341154814, 
243,2287450374,174.7045898,-84.84960938,136.029953,9.796338081,0.347923577,-1.754055262,1.129737616,2.886538267,2.773957729, 
244,2287467041,175.2316132,-84.85643005,135.5175323,9.775930405,0.312795848,-1.731478095,1.100808382,2.529331207,3.284355164, 
245,2287483708,175.7702484,-84.85871887,134.9856873,9.713926315,0.205412641,-1.722239494,0.628804564,2.324237108,3.384884596, 
246,2287500375,176.3090668,-84.85886383,134.4642639,9.696231842,0.056114156,-1.797602773,1.273360968,2.254583359,3.333287954, 
247,2287517042,176.7131042,-84.86576843,134.06604,9.746721268,0.121481754,-1.555030823,0.557831824,2.750727177,2.702242374, 
248,2287533709,177.1372528,-84.86210632,133.6604462,9.747961044,0.145047009,-1.521547437,1.311728835,2.179179668,2.718557596, 
249,2287550376,177.5475616,-84.8483963,133.2663879,9.800245285,0.105532281,-1.780733109,1.183204293,1.60087049,2.644626379, 
250,2287567043,177.9264679,-84.83866882,132.8903503,9.757964134,0.311676651,-1.702601433,0.378299594,1.896505356,2.579262733, 
251,2287583710,178.4099579,-84.82350922,132.4229889,9.761648178,0.258462399,-1.782158852,1.196087599,1.604533315,3.095025778, 
252,2287600377,178.9719238,-84.81669617,131.8824921,9.750406265,0.159362644,-1.853044033,1.54520154,2.147266388,3.535141706, 
253,2287617044,179.549057,-84.81008148,131.332016,9.736898422,0.171158999,-1.666458249,1.857048869,2.233593941,3.614387989, 
254,2287633711,-179.874939,-84.79895782,130.7763977,9.736637115,0.150667429,-1.626959443,1.489263296,2.015949965,3.665574789, 
255,2287650378,-179.3371124,-84.77918243,130.2491455,9.718082428,0.145790473,-1.639097095,0.894126594,1.554793596,3.544746876, 
256,2287667045,-178.8470459,-84.75641632,129.7705536,9.76369381,0.172006637,-1.591237068,0.931303442,1.438588619,3.319354773, 
257,2287683712,-178.3491058,-84.73165894,129.2860107,9.84292984,0.12390893,-1.788416147,1.070803046,1.342041492,3.394271851, 
258,2287700379,-177.8970337,-84.71128082,128.8499603,9.792675018,0.143859163,-1.818564892,1.205013633,1.666247129,3.157392979, 
259,2287717046,-177.4843903,-84.69525909,128.4532166,9.729236603,0.114353821,-1.724360347,1.194460988,1.966197371,2.962557316, 
260,2287733713,-177.0720062,-84.67803955,128.0678253,9.772299767,0.109498449,-1.718647718,1.866845846,1.937024832,2.930182695, 
261,2287750380,-176.7130127,-84.66623688,127.7281876,9.755885124,0.165640175,-1.609091043,1.399093747,2.282334805,2.686490536, 
262,2287767047,-176.3537445,-84.65097046,127.3944397,9.790881157,0.086194642,-1.720317364,1.767852902,2.116377831,2.691382885, 
263,2287783714,-176.0870056,-84.6396637,127.1441879,9.733805656,0.131218463,-1.675965905,1.204334736,2.360863209,2.233299255, 
264,2287800381,-175.8634796,-84.62400055,126.9414749,9.756120682,0.096872561,-1.640352845,1.454455376,2.108629465,2.007536173, 
265,2287817048,-175.6843719,-84.61303711,126.7796631,9.810033798,0.102697678,-1.715864778,1.245148659,2.388320446,1.778981209, 
266,2287833715,-175.5176239,-84.60472107,126.6349564,9.815961838,0.124588683,-1.693035603,1.517052889,2.575292826,1.689810634, 
267,2287850382,-175.3855438,-84.59463501,126.5175095,9.771813393,0.212525606,-1.572746038,1.075182915,2.478874207,1.562848687, 
268,2287867049,-175.2034607,-84.57704163,126.3535309,9.758462906,0.149537399,-1.616803408,1.284144044,2.078586102,1.888142824, 
269,2287883716,-175.036499,-84.5591507,126.2051926,9.786543846,0.142482325,-1.672418356,1.327083588,2.058825493,1.825929165, 
270,2287900383,-174.9021301,-84.53887177,126.084198,9.713716507,0.13553375,-1.560810804,1.003057241,1.929046273,1.705383062, 
271,2287917050,-174.7545776,-84.5078125,125.9494858,9.735387802,0.107003585,-1.642423749,0.977598369,1.310947657,1.866858482, 
272,2287933717,-174.5978699,-84.47434235,125.8106079,9.75117588,0.100037441,-1.653174043,1.278970242,1.187481642,1.928380132, 
273,2287950384,-174.4600067,-84.43714905,125.6812744,9.713209152,0.193634078,-1.490000725,0.721881151,0.975703001,1.921272516, 
274,2287967051,-174.2913513,-84.38632965,125.5271149,9.732637405,0.151740253,-1.591300368,1.086554885,0.19433637,2.177297115, 
275,2287983718,-174.0776062,-84.33420563,125.3253098,9.792882919,0.154220179,-1.639902592,0.950935543,0.158222452,2.500286102, 
276,2288000385,-173.8489075,-84.28118134,125.1103516,9.736774445,0.146329239,-1.599194765,1.071584105,0.121942066,2.626658916, 
277,2288017052,-173.6072998,-84.2230072,124.8812256,9.746261597,0.137043715,-1.620107174,1.000342488,-0.145460933,2.786328793, 
278,2288033719,-173.3663177,-84.16296387,124.6560898,9.719666481,0.09518113,-1.687744379,1.20181191,-0.245132744,2.821712732, 
279,2288050386,-173.1691284,-84.10276031,124.4718094,9.714318275,0.121456318,-1.664337039,1.023778081,-0.265238702,2.616401434, 
280,2288067053,-172.9951782,-84.04286957,124.3157578,9.776960373,0.083181076,-1.6207093,1.319668651,-0.251433462,2.479296446, 
281,2288083720,-172.8460236,-83.98415375,124.1797638,9.794693947,0.147904053,-1.62287581,1.028298616,-0.181920603,2.380661726, 
282,2288100387,-172.7152863,-83.92210388,124.0593643,9.77649498,0.157059684,-1.672486544,0.849944592,-0.375040323,2.343036652, 
283,2288117054,-172.5874634,-83.86624146,123.9484787,9.795764923,0.084981062,-1.724446893,1.25799334,-0.017576715,2.269643784, 
284,2288133721,-172.4660034,-83.81692505,123.847847,9.746412277,0.09238366,-1.706988335,1.482501626,0.388198882,2.180793524, 
285,2288150388,-172.3584137,-83.7689209,123.7561188,9.723244667,0.149503201,-1.720480561,1.188070774,0.464460701,2.138903856, 
286,2288167055,-172.2677917,-83.72340393,123.6822128,9.756891251,0.070203111,-1.743780613,1.232495904,0.611695349,2.031458616, 
287,2288183722,-172.1821442,-83.68717194,123.6157532,9.76381588,0.11870148,-1.630905271,1.380473375,1.164852858,1.929020643, 
288,2288200389,-172.0876617,-83.6463089,123.5388107,9.789159775,0.166205317,-1.69222033,1.289625049,0.903795302,2.057019949, 
289,2288217056,-171.998703,-83.60889435,123.4659271,9.787530899,0.130255342,-1.657054424,1.205448866,1.101461291,2.028141499, 
290,2288233723,-171.881897,-83.56794739,123.3706894,9.78694725,0.130155206,-1.729112148,1.543971896,0.921941936,2.229124546, 
291,2288250390,-171.7620697,-83.53046417,123.2710953,9.737931252,0.11998941,-1.656106234,1.461908817,1.143261313,2.253520727, 
292,2288267057,-171.6266174,-83.48825836,123.1554184,9.728179932,0.146532163,-1.649458528,1.444927812,0.880206108,2.427584648, 
293,2288283724,-171.4778137,-83.44695282,123.0307922,9.780412674,0.085515283,-1.667186975,1.71789515,0.942970037,2.506881475, 
294,2288300391,-171.3410645,-83.40435791,122.9184494,9.778540611,0.121443488,-1.608340025,1.733096242,0.85432446,2.460086823, 
295,2288317058,-171.2065887,-83.355896,122.806572,9.773447037,0.110141516,-1.662061334,1.622231483,0.507477224,2.535990477, 
296,2288333725,-171.0657196,-83.30464172,122.6851578,9.762235641,0.149766296,-1.627334833,1.441239357,0.3533144,2.654641151, 
297,2288350392,-170.9149323,-83.24906921,122.5560532,9.766589165,0.116867684,-1.689923048,1.579061389,0.10744527,2.77970767, 
298,2288367059,-170.7667236,-83.19541931,122.4283676,9.749403954,0.105972201,-1.637554049,1.51614368,0.22172913,2.78077054, 
299,2288383726,-170.6149292,-83.13716125,122.2978287,9.742286682,0.096788913,-1.68732667,1.565780997,-0.056648884,2.875691414, 
300,2288400393,-170.4833374,-83.0828476,122.1864166,9.763963699,0.069149666,-1.664197445,1.488354087,0.167993709,2.730185986, 
301,2288417060,-170.3784637,-83.03010559,122.1019974,9.743754387,0.107578829,-1.680282235,1.50290215,0.218079358,2.546005011, 
302,2288433727,-170.2815094,-82.97881317,122.0225754,9.744141579,0.104802564,-1.669831395,1.328889251,0.288667947,2.520097256, 
303,2288450394,-170.1871643,-82.92776489,121.9472198,9.773015022,0.086331904,-1.776391506,1.411221266,0.30764693,2.509865284, 
304,2288467061,-170.0870056,-82.88285828,121.8647842,9.756176949,0.081976198,-1.685305715,1.343373418,0.677263856,2.521083593, 
305,2288483728,-170.0032043,-82.8384552,121.8009338,9.732361794,0.068889089,-1.698741436,1.469976902,0.676725924,2.399909973, 
306,2288500395,-169.9414978,-82.79742432,121.7568512,9.713438988,0.098820545,-1.642792583,1.324342966,0.841838181,2.236603498, 
307,2288517062,-169.8739166,-82.75630188,121.7115936,9.762173653,0.07319726,-1.663855553,1.608349442,0.834128797,2.263547659, 
308,2288533729,-169.8130188,-82.71913147,121.6730881,9.796735764,0.07618136,-1.730440736,1.608054876,1.048763156,2.186965704, 
309,2288550396,-169.7555237,-82.68362427,121.6433105,9.733399391,0.084488213,-1.709511995,1.922092557,1.136960626,2.119361639, 
310,2288567063,-169.7129822,-82.64955902,121.627533,9.717636108,0.05402061,-1.664884329,1.866461515,1.186329007,2.012479544, 
311,2288583730,-169.7031403,-82.61475372,121.6386108,9.742108345,0.083886713,-1.633488059,1.500571132,1.100052595,1.829092622, 
312,2288600397,-169.7244415,-82.58029175,121.6775818,9.757101059,0.10817989,-1.643887997,1.29226315,1.071174383,1.622859001, 
313,2288617064,-169.7513275,-82.55070496,121.7201309,9.78281498,0.095734671,-1.720460296,1.170730948,1.337034225,1.554767847, 
314,2288633731,-169.8142395,-82.52829742,121.7964249,9.767765045,0.103893816,-1.744767427,1.019193411,1.706074834,1.229409575, 
315,2288650398,-169.8979187,-82.51242828,121.8942337,9.777724266,0.095526844,-1.720464349,1.051772594,2.057954788,1.002442598, 
316,2288667065,-169.9666595,-82.4981308,121.9821701,9.805395126,0.13333486,-1.681390762,1.362403512,2.152478695,1.071699381, 
317,2288683732,-170.0274811,-82.48801422,122.0578842,9.802158356,0.126611724,-1.702832699,1.106519938,2.406953573,1.133016229, 
318,2288700399,-170.0923157,-82.48007202,122.1394958,9.758124352,0.110046595,-1.686365604,1.220086575,2.518752813,1.075182796, 
319,2288717066,-170.166275,-82.47350311,122.2244644,9.754953384,0.115341701,-1.636792898,0.876184881,2.576765776,1.045433521, 
320,2288733733,-170.2222443,-82.4664917,122.2959061,9.767658234,0.129265487,-1.634175777,1.143965721,2.561013937,1.164583921, 
321,2288750400,-170.2933044,-82.45688629,122.3729935,9.75415802,0.125062764,-1.593999624,0.577822506,2.386898756,1.155824304, 
322,2288767067,-170.3220825,-82.44139862,122.4125671,9.77210331,0.141285762,-1.627627492,0.880807996,2.074884892,1.516182184, 
323,2288783734,-170.3450928,-82.42863464,122.4417572,9.752450943,0.143859714,-1.604763031,0.612847924,2.230814934,1.580342054, 
324,2288800401,-170.3546448,-82.40679169,122.4594574,9.721245766,0.131566852,-1.609622955,0.738170803,1.694881916,1.771066904, 
325,2288817068,-170.3415527,-82.38201904,122.45401,9.772118568,0.121836387,-1.583542943,0.719281435,1.536044836,1.992168546, 
326,2288833735,-170.3079987,-82.35586548,122.432045,9.799492836,0.137602568,-1.559634447,0.966059804,1.463099837,2.145947218, 
327,2288850402,-170.2627869,-82.32276917,122.3990097,9.779705048,0.151320398,-1.592332006,1.008307815,1.046547651,2.313902617, 
328,2288867069,-170.2120361,-82.28678131,122.3578415,9.749620438,0.152724028,-1.600925922,0.860573947,0.869743288,2.421770334, 
329,2288883736,-170.1418152,-82.24958801,122.2999344,9.742007256,0.119526848,-1.61083591,1.030808687,0.812908709,2.580197811, 
330,2288900403,-170.0555725,-82.21122742,122.2283783,9.746614456,0.089794584,-1.601941824,1.19150269,0.736377895,2.715228081, 
331,2288917070,-169.9565887,-82.16927338,122.142128,9.736317635,0.110801101,-1.607218623,1.077590346,0.540325522,2.882696629, 
332,2288933737,-169.8378906,-82.12510681,122.0351944,9.757383347,0.134584948,-1.600878954,1.026326418,0.433891922,3.090197802, 
333,2288950404,-169.7129059,-82.07878113,121.922348,9.742396355,0.12556459,-1.626878738,1.062261105,0.294392407,3.179074287, 
334,2288967071,-169.5986938,-82.0320816,121.817421,9.783346176,0.130468696,-1.600795984,0.88722384,0.248481616,3.137760639, 
335,2288983738,-169.4880371,-81.98712921,121.7181244,9.810509682,0.11851193,-1.585300446,1.013673782,0.324077487,3.092490196, 
336,2289000405,-169.366806,-81.94451141,121.6071777,9.806815147,0.093912907,-1.604641318,0.952741265,0.474385619,3.179893732, 
337,2289017072,-169.2441559,-81.90333557,121.5012665,9.788558006,0.060944188,-1.706278682,1.342822552,0.538955212,3.13677454, 
338,2289033739,-169.1160431,-81.86715698,121.3943176,9.803237915,0.102456622,-1.702530384,1.615572333,0.813331306,3.104899645, 
339,2289050406,-168.9827271,-81.83338165,121.2862396,9.781173706,0.090641551,-1.645032167,1.857010365,0.955238461,3.102735281, 
340,2289067073,-168.8447723,-81.79759216,121.177063,9.741661072,0.067599937,-1.718486309,2.066752911,0.836241901,3.148069859, 
341,2289083740,-168.70784,-81.76961517,121.0727158,9.739460945,0.04496875,-1.676599145,2.301903486,1.271773219,3.030418396, 
342,2289100407,-168.5951385,-81.74165344,120.9908981,9.722790718,0.057440564,-1.577334762,2.181126595,1.229832292,2.850770473, 
343,2289117074,-168.4985352,-81.70947266,120.9195938,9.737282753,0.056250598,-1.563267946,1.846547484,0.938436389,2.821866274, 
344,2289133741,-168.3965607,-81.67298889,120.8476028,9.792096138,0.078501284,-1.627412796,2.124163628,0.680695951,2.888228893, 
345,2289150408,-168.2964935,-81.63548279,120.7781525,9.8001194,0.08726909,-1.653769493,2.164362669,0.598620057,2.891814947, 
346,2289167075,-168.1873322,-81.59790802,120.6969986,9.772642136,0.082279198,-1.624436975,2.017345905,0.600041509,3.004997492, 
347,2289183742,-168.0835724,-81.5562439,120.6188049,9.737751961,0.068477318,-1.596253753,1.867037773,0.350061566,3.042571068, 
348,2289200409,-167.9895935,-81.51564789,120.5488815,9.770195007,0.040946525,-1.632139564,1.779890656,0.370295584,2.970919371, 
349,2289217076,-167.9142609,-81.47568512,120.4949341,9.777209282,0.069257356,-1.614509463,1.604994416,0.375238895,2.835172176, 
350,2289233743,-167.8417206,-81.43544769,120.4400177,9.787906647,0.062620111,-1.592764258,1.384776115,0.339086503,2.857288599, 
351,2289250410,-167.7684021,-81.39372253,120.384613,9.792097092,0.060160935,-1.669493198,1.401526928,0.242782727,2.889803886, 
352,2289267077,-167.7074738,-81.35580444,120.3387833,9.759730339,0.035293996,-1.645356655,1.228986979,0.429371327,2.76734972, 
353,2289283744,-167.6595154,-81.31769562,120.309082,9.75761795,0.028026905,-1.669571042,1.407443404,0.377031744,2.635341883, 
354,2289300411,-167.6267242,-81.28170013,120.2921829,9.770607948,0.053859726,-1.58651042,1.258454323,0.464345396,2.500273466, 
355,2289317078,-167.6066742,-81.24279022,120.2870483,9.766731262,0.048808668,-1.607404351,1.192911506,0.24589473,2.439993858, 
356,2289333745,-167.6067352,-81.20189667,120.3002167,9.743019104,0.012313529,-1.596899986,1.071622491,0.081473991,2.306986809, 
357,2289350412,-167.6141357,-81.15749359,120.3180695,9.730082512,0.0296811,-1.612685204,0.910813212,-0.151210979,2.311264515, 
358,2289367079,-167.641571,-81.11219025,120.3541336,9.749617577,0.010676048,-1.587479472,0.785797656,-0.255838871,2.160354614, 
359,2289383746,-167.6875916,-81.06387329,120.4107971,9.77179718,0.045639329,-1.588947177,0.898147821,-0.498288721,2.011928797, 
360,2289400413,-167.7403564,-81.01316071,120.4723663,9.748513222,0.017863479,-1.681400299,0.777883291,-0.661723375,1.99537015, 
361,2289417080,-167.7790833,-80.96278381,120.5232086,9.785378456,0.043164112,-1.67302835,0.987395227,-0.631065011,2.086474657, 
362,2289433747,-167.8256683,-80.91301727,120.5836868,9.760626793,0.052075222,-1.716532946,1.085888863,-0.634906828,1.989120841, 
363,2289450414,-167.8708191,-80.86532593,120.642395,9.746793747,0.044176716,-1.616660714,1.072352648,-0.525694251,1.977876782, 
364,2289467081,-167.9093018,-80.81617737,120.6986237,9.758800507,0.032630712,-1.68984139,1.322895885,-0.620819867,2.017807007, 
365,2289483748,-167.959671,-80.76879883,120.7635498,9.768134117,0.031721409,-1.671783686,1.126075149,-0.548835397,1.911514282, 
366,2289500415,-168.0108795,-80.72032166,120.830925,9.748727798,0.032016303,-1.673149705,1.220073938,-0.636033833,1.899962902, 
367,2289517082,-168.0714722,-80.67094421,120.9071732,9.735858917,0.056089669,-1.681839108,1.183358073,-0.720402062,1.8228302, 
368,2289533749,-168.1090851,-80.62076569,120.9645615,9.73400116,0.025955245,-1.697182298,1.443954468,-0.740149438,2.009585381, 
369,2289550416,-168.1504364,-80.57237244,121.0215988,9.724637985,0.047913186,-1.66964221,1.201107621,-0.652105749,1.987955451, 
370,2289567083,-168.1783295,-80.52302551,121.0647507,9.769617081,0.045345705,-1.69820118,1.188454986,-0.69924593,2.132398129, 
371,2289583750,-168.2038574,-80.47564697,121.1055527,9.766657829,0.074825451,-1.724512458,1.190875292,-0.591211617,2.129913807, 
372,2289600417,-168.2116852,-80.42865753,121.1314926,9.743944168,0.055682123,-1.739233136,1.374684811,-0.554610968,2.271936178, 
373,2289617084,-168.2019501,-80.38629913,121.1435394,9.766968727,0.069382519,-1.74353075,1.606838465,-0.261793822,2.351911783, 
374,2289633751,-168.1869965,-80.35029602,121.1488037,9.791191101,0.031166725,-1.741810203,1.518333673,0.107009865,2.346020937, 
375,2289650418,-168.1855621,-80.31789398,121.1658936,9.741708755,0.023106664,-1.746876478,1.406674981,0.288475811,2.185928583, 
376,2289667085,-168.2047119,-80.2922821,121.2062683,9.771745682,-0.001606528,-1.747958064,1.550170302,0.624347985,1.873774052, 
377,2289683752,-168.2348785,-80.27144623,121.2564621,9.766593933,0.063028984,-1.728305936,1.472205162,0.867028296,1.717049956, 
378,2289700419,-168.2651978,-80.25300598,121.3049011,9.751803398,0.065725714,-1.764271498,1.358036637,1.006066918,1.706561327, 
379,2289717086,-168.2814484,-80.23853302,121.3404846,9.736256599,0.035251599,-1.720651031,1.443122029,1.247274399,1.788688302, 
380,2289733753,-168.2905273,-80.2244873,121.3706207,9.762566566,0.033733279,-1.719290614,1.552513838,1.271862745,1.839248061, 
381,2289750420,-168.3065948,-80.21199036,121.4052505,9.723340034,0.04185272,-1.66606319,1.396327496,1.345691085,1.775331378, 
382,2289767087,-168.3041687,-80.19582367,121.4231567,9.745963097,0.040561829,-1.712739587,1.520369768,1.142454386,1.988928437, 
383,2289783754,-168.3016205,-80.18125916,121.4368286,9.794023514,0.065860577,-1.662513256,1.280122757,1.233469248,2.013171196, 
384,2289800421,-168.2833557,-80.16390991,121.4384308,9.789311409,0.044392746,-1.729209661,1.505732298,1.08405757,2.170996666, 
385,2289817088,-168.272644,-80.15174866,121.4476471,9.783851624,0.021958167,-1.737407207,1.502287388,1.362890244,2.03357172, 
386,2289833755,-168.2437286,-80.14002991,121.4435654,9.743354797,0.039485715,-1.715215921,1.812047243,1.399298787,2.162685394, 
387,2289850422,-168.2233887,-80.12892151,121.4479218,9.730457306,0.016580708,-1.734409451,1.797448397,1.406496048,2.072131634, 
388,2289867089,-168.1961975,-80.11908722,121.4432068,9.751661301,0.043965627,-1.656931281,1.673252225,1.488072395,2.148713589, 
389,2289883756,-168.1589966,-80.10916901,121.4314499,9.770866394,0.050547998,-1.7225703,1.855358362,1.48886621,2.222810984, 
390,2289900423,-168.1334229,-80.09928894,121.4273224,9.773240089,0.044594616,-1.677419901,1.610308886,1.46143508,2.147957802, 
391,2289917090,-168.1083679,-80.08625031,121.4263687,9.75940609,0.039631329,-1.668687105,1.764932871,1.259325266,2.156269312, 
392,2289933757,-168.0969849,-80.07322693,121.4348907,9.762435913,0.053763334,-1.667387843,1.509599805,1.221738458,2.062514067, 
393,2289950424,-168.0824127,-80.05818176,121.4376068,9.776072502,0.059308931,-1.670020342,1.357831717,1.102268219,2.148483038, 
394,2289967091,-168.0517731,-80.0437088,121.4220505,9.752299309,0.043255277,-1.7495749,1.239193559,1.168515325,2.327438593, 
395,2289983758,-168.0236359,-80.03475189,121.4155579,9.808129311,0.021765636,-1.703453541,1.62812233,1.459501147,2.170138359, 
396,2290000425,-167.9915161,-80.02573395,121.4052353,9.755155563,0.037396438,-1.659886122,1.642184019,1.452970266,2.209928036, 
397,2290017092,-167.9834595,-80.01322174,121.4163971,9.769183159,0.01119221,-1.634042263,1.46824789,1.190004349,2.037233829, 
398,2290033759,-167.9793243,-79.99547577,121.431694,9.745249748,0.048317097,-1.649317026,1.475867867,0.860445797,2.060643911, 
399,2290050426,-167.9725342,-79.97736359,121.4445496,9.75820446,0.048409261,-1.68681848,1.495486856,0.832784057,2.090687513, 
400,2290067093,-167.9584503,-79.9590683,121.451149,9.743367195,0.058829486,-1.637343645,1.562848568,0.821386576,2.159573317, 
401,2290083760,-167.9311981,-79.93709564,121.4446335,9.754092216,0.043298222,-1.662169337,1.579355836,0.622452676,2.341103077, 
402,2290100427,-167.9097595,-79.91606903,121.4407349,9.767853737,0.027299792,-1.659339547,1.387606502,0.661691308,2.304605007, 
403,2290117094,-167.8803864,-79.89517212,121.4297104,9.765790939,0.040622998,-1.693341017,1.441610694,0.674472034,2.376986504, 
404,2290133761,-167.8580322,-79.87493896,121.4252625,9.779715538,0.035763055,-1.715946436,1.40649581,0.691376388,2.303042889, 
405,2290150428,-167.8360596,-79.86068726,121.4222794,9.76415062,0.008346262,-1.684471369,1.475803733,1.024674416,2.21476841, 
406,2290167095,-167.8175812,-79.84685516,121.4239044,9.777374268,0.021364622,-1.677532673,1.539476752,1.02696681,2.162441492, 
407,2290183762,-167.7982788,-79.83248901,121.4249878,9.78345108,0.060855187,-1.664040089,1.555190444,0.990225494,2.174979448, 
408,2290200429,-167.7707367,-79.81296539,121.4170761,9.801875114,0.08764381,-1.646928072,1.522738934,0.696050704,2.335109711, 
409,2290217096,-167.7268219,-79.79438782,121.3920364,9.771104813,0.032488875,-1.7256037,1.491030574,0.779612184,2.504781246, 
410,2290233763,-167.6807251,-79.77707672,121.3662872,9.74993515,0.023447238,-1.684124827,1.584440112,0.848062158,2.498327017, 
411,2290250430,-167.6335449,-79.76030731,121.3400726,9.77214241,0.008205793,-1.672685623,1.623000026,0.86569649,2.498326778, 
412,2290267097,-167.5995331,-79.74502563,121.323082,9.754689217,0.010136889,-1.665452242,1.375632524,0.925809443,2.383825064, 
413,2290283764,-167.5802307,-79.72306824,121.3194046,9.749071121,0.056578372,-1.664677024,1.28299129,0.493838429,2.332189798, 
414,2290300431,-167.5610504,-79.70539093,121.3149948,9.762163162,-0.009605836,-1.690075994,1.230882406,0.739284933,2.286189556, 
415,2290317098,-167.5399323,-79.68675995,121.3083649,9.769003868,0.045250699,-1.677734852,1.216539145,0.679632962,2.322598219, 
416,2290333765,-167.5236053,-79.67044067,121.3063889,9.751529694,-0.019802934,-1.744647503,1.207651615,0.789191306,2.245183706, 
417,2290350432,-167.5178528,-79.65783691,121.3166351,9.743913651,-0.015984314,-1.668584466,1.293607712,0.973295331,2.067918062, 
418,2290367099,-167.5167236,-79.64170837,121.3347702,9.747450829,0.005030553,-1.6622504,1.481938004,0.74097544,2.030523539, 
419,2290383766,-167.5298767,-79.62420654,121.361618,9.720498085,0.039889909,-1.644916058,1.14034152,0.629752278,1.956490159, 
420,2290400433,-167.5411377,-79.60463715,121.3859558,9.748233795,0.014984938,-1.653869629,1.10703218,0.503981054,2.009124041, 
421,2290417100,-167.5403748,-79.5839386,121.3989944,9.771245956,0.029989604,-1.681693912,1.167324543,0.452064186,2.143270731, 
422,2290433767,-167.5419922,-79.56110382,121.4133377,9.77707386,0.045384813,-1.685530066,1.097440243,0.317277312,2.157767534, 
423,2290450434,-167.5288391,-79.53920746,121.418541,9.765445709,0.025033608,-1.707496524,1.447040677,0.385791302,2.243237019, 
424,2290467101,-167.5277405,-79.51940155,121.4340439,9.770805359,0.024921261,-1.682367921,1.333077073,0.471926749,2.108360529, 
425,2290483768,-167.5318756,-79.49918365,121.4531937,9.755921364,0.010758076,-1.684291363,1.23836112,0.431253791,2.073181391, 
426,2290500435,-167.5431366,-79.48047638,121.4794617,9.745449066,-0.003281575,-1.717173219,1.229255915,0.494939834,1.97855556, 
427,2290517102,-167.5590668,-79.46411896,121.5120163,9.749002457,0.004976725,-1.747716546,1.318682671,0.611003697,1.880509853, 
428,2290533769,-167.5822296,-79.44998932,121.5525055,9.745157242,0.051608533,-1.684455156,1.354297161,0.718910098,1.7643435, 
429,2290550436,-167.5968933,-79.43523407,121.5844727,9.748961449,0.027280571,-1.706522942,1.369216561,0.690608084,1.864976168, 
430,2290567103,-167.6071014,-79.42166138,121.6098251,9.7477808,0.023487851,-1.678365946,1.24431622,0.765205085,1.92006886, 
431,2290583770,-167.6099243,-79.40751648,121.6290588,9.768074989,-0.006478509,-1.653952003,1.323907614,0.743536711,1.993756533, 
432,2290600437,-167.6275177,-79.39212799,121.6602173,9.778231621,0.032749083,-1.655930519,1.14705193,0.626768351,1.880535722, 
433,2290617104,-167.6396637,-79.37528992,121.685997,9.767347336,0.029088987,-1.707988501,1.156848907,0.54890579,1.956106067, 
434,2290633771,-167.640564,-79.35782623,121.7025146,9.758885384,0.018938815,-1.753537178,1.285014868,0.525431752,2.065779686, 
435,2290650438,-167.6308746,-79.34440613,121.711174,9.752280235,0.014514037,-1.703457475,1.454673171,0.778293014,2.09810257, 
436,2290667105,-167.6161041,-79.33159637,121.7157745,9.739897728,0.007082149,-1.676665068,1.525697351,0.812703848,2.134178162, 
437,2290683772,-167.6104889,-79.31726837,121.7258453,9.73596859,-0.007760949,-1.722221375,1.297347188,0.704272389,2.094811678, 
438,2290700439,-167.6016693,-79.30432129,121.7350922,9.772595406,-0.003942923,-1.73966074,1.443480611,0.779138267,2.085744381, 
439,2290717106,-167.5945892,-79.29601288,121.7469788,9.759222984,0.01728458,-1.699671507,1.491312385,1.041284323,1.99679172, 
440,2290733773,-167.5994568,-79.287117,121.7678757,9.759977341,0.014841914,-1.681768179,1.313291192,0.976266503,1.906225324, 
441,2290750440,-167.6029053,-79.2795639,121.786293,9.790304184,0.031809904,-1.701071262,1.251231551,1.056049943,1.915484071, 
442,2290767107,-167.6068878,-79.27334595,121.8066711,9.767213821,0.045994453,-1.726619363,1.334524155,1.119006038,1.877513409, 
443,2290783774,-167.604126,-79.27057648,121.8221588,9.757019043,0.014045237,-1.728919506,1.453405499,1.329657674,1.88754046, 
444,2290800441,-167.6082611,-79.26947784,121.8450317,9.756203651,-0.002925806,-1.693271518,1.475765347,1.402769089,1.78597343, 
445,2290817108,-167.6099243,-79.26824951,121.8633194,9.742321014,0.006946541,-1.666915536,1.358356714,1.39646852,1.836379409, 
446,2290833775,-167.6266022,-79.26683044,121.893631,9.765267372,0.006531058,-1.683524489,1.170551658,1.352914095,1.706177354, 
447,2290850442,-167.6568298,-79.26435852,121.9397354,9.755786896,0.014822876,-1.681458831,1.282440543,1.249349117,1.548518181, 
448,2290867109,-167.6819611,-79.26212311,121.9822617,9.767823219,0.016460681,-1.658777475,1.383457184,1.257698774,1.583594799, 
449,2290883776,-167.7131042,-79.25680542,122.0269623,9.768834114,0.031410512,-1.662383318,1.150740266,1.0692662,1.599192977, 
450,2290900443,-167.7433472,-79.25048828,122.0695496,9.748742104,0.035623435,-1.652885318,1.08198297,1.00518322,1.634884357, 
451,2290917110,-167.7633209,-79.24372101,122.1047974,9.753373146,0.03631641,-1.696155548,1.263602614,0.994797349,1.720008135, 
452,2290933777,-167.7882233,-79.23728943,122.1430206,9.747126579,0.025488447,-1.674763441,1.150330305,0.996974349,1.683714986, 
453,2290950444,-167.8111877,-79.23027802,122.1803131,9.751939774,0.016230464,-1.676134348,1.204872727,0.96062994,1.701285362, 
454,2290967111,-167.8392487,-79.22595978,122.2219849,9.771074295,0.042210486,-1.695892453,1.163277745,1.102306604,1.618108153, 
455,2290983778,-167.8655701,-79.22086334,122.2616196,9.752246857,0.035217885,-1.696289897,1.151047468,1.055755496,1.64915061, 
456,2291000445,-167.8875427,-79.2170105,122.2987289,9.737945557,0.028356852,-1.678612828,1.261796832,1.127355695,1.662738085, 
457,2291017112,-167.8985901,-79.21285248,122.3254929,9.755217552,0.014251766,-1.631875038,1.309141874,1.129622459,1.778917313, 
458,2291033779,-167.9055786,-79.20376587,122.3469543,9.753673553,0.03133725,-1.65427649,1.238835216,0.844604433,1.899821997, 
459,2291050446,-167.9090729,-79.19490814,122.3669815,9.766017914,0.037487306,-1.682955623,1.364350319,0.857948661,1.911719203, 
460,2291067113,-167.9133911,-79.18631744,122.3889008,9.773954391,0.046050869,-1.672234058,1.427856684,0.861470222,1.887732625, 
461,2291083780,-167.8997345,-79.17507935,122.3955307,9.75932312,0.034559354,-1.690055728,1.609489322,0.734546661,2.089484215, 
462,2291100447,-167.891037,-79.16085052,122.4075546,9.744721413,0.024800804,-1.674877882,1.632604718,0.542784333,2.067700386, 
463,2291117114,-167.8733673,-79.14965057,122.4114609,9.76371479,0.021404339,-1.681068659,1.694075108,0.732792139,2.118182898, 
464,2291133781,-167.8595581,-79.13802338,122.4166794,9.757860184,0.046891063,-1.624952078,1.530806899,0.700481653,2.112278938, 
465,2291150448,-167.8551178,-79.1243515,122.426239,9.772528648,0.045762409,-1.668194413,1.228999972,0.563645899,2.088293314, 
466,2291167115,-167.8298187,-79.11110687,122.4166794,9.763943672,0.040200837,-1.704090714,1.346831203,0.632633686,2.295922518, 
467,2291183782,-167.8099976,-79.09862518,122.4145737,9.741019249,0.016514692,-1.700768948,1.473229527,0.648846507,2.203934431, 
468,2291200449,-167.7848816,-79.08669281,122.4074554,9.735717773,0.021327334,-1.66638267,1.498675823,0.691261172,2.250664711, 
469,2291217116,-167.7691956,-79.07479858,122.4075928,9.743857384,0.008403877,-1.668035507,1.353131771,0.668555439,2.172392368, 
470,2291233783,-167.7619171,-79.06625366,122.4150238,9.75160408,0.03511652,-1.708729506,1.283452272,0.846704543,2.045993567, 
471,2291250450,-167.7526703,-79.05725861,122.4217606,9.746905327,0.021899754,-1.704892874,1.365272164,0.813100755,2.060605764, 
472,2291267117,-167.7260742,-79.05099487,122.4156265,9.782128334,0.029935941,-1.64746964,1.644015074,1.00054729,2.169856548, 
473,2291283784,-167.7047729,-79.04224396,122.4140549,9.771195412,0.039730977,-1.666742921,1.600896239,0.837215185,2.149750948, 
474,2291300451,-167.6814117,-79.03364563,122.4108582,9.757538795,0.026443517,-1.694689631,1.644886136,0.842632174,2.16391468, 
475,2291317118,-167.6545563,-79.02603149,122.4085236,9.757463455,0.002976581,-1.679592252,1.905764103,0.899441183,2.142527819, 
476,2291333785,-167.6291199,-79.02079773,122.4093018,9.784636497,0.046546921,-1.631788015,1.99572897,1.022510409,2.07913661, 
477,2291350452,-167.6081696,-79.01337433,122.411087,9.78119278,0.031366065,-1.687952995,1.789533615,0.885033965,2.095080376, 
478,2291367119,-167.5853882,-79.00567627,122.4094772,9.742043495,-0.002759157,-1.716360927,1.699684501,0.880218923,2.136713982, 
479,2291383786,-167.5512695,-79.00025177,122.4006958,9.73605442,0.005128916,-1.674799085,1.959115505,1.021178365,2.188349247, 
480,2291400453,-167.5270233,-78.99543762,122.3984146,9.742180824,0.025123481,-1.644696355,1.751716495,1.036174655,2.106721401, 
481,2291417120,-167.4976807,-78.98536682,122.3913345,9.772843361,0.036916874,-1.664932132,1.771643281,0.735558391,2.229931355, 
482,2291433787,-167.462204,-78.97529602,122.375885,9.776392937,0.021693429,-1.679366469,1.655912399,0.751822531,2.322649479, 
483,2291450454,-167.4264679,-78.9634552,122.3625641,9.770069122,0.041969731,-1.699598908,1.796705365,0.637653708,2.323122978, 
484,2291467121,-167.3933563,-78.9519043,122.3504944,9.771109581,-0.000845258,-1.69672513,1.71292603,0.648206174,2.306846142, 
485,2291483788,-167.3619537,-78.93972015,122.3393478,9.746847153,0.029236427,-1.674157262,1.666759253,0.606611192,2.303337336, 
486,2291500455,-167.3316803,-78.92523956,122.3280182,9.735912323,0.006648506,-1.691580057,1.589139938,0.465933412,2.337824583, 
487,2291517122,-167.3052826,-78.90992737,122.3194122,9.745497704,0.0147138,-1.664238334,1.511277318,0.411711365,2.318487167, 
488,2291533789,-167.2789612,-78.89530182,122.3106003,9.76415062,0.006420573,-1.67706418,1.497215986,0.44376567,2.313287973, 
489,2291550456,-167.2628632,-78.87600708,122.3100433,9.749533653,0.019301841,-1.682131052,1.385134816,0.147785291,2.279312611, 
490,2291567123,-167.2464752,-78.85687256,122.310791,9.775553703,0.004598556,-1.677790999,1.480401397,0.145877138,2.26312542, 
491,2291583790,-167.2277374,-78.83900452,122.3081818,9.732113838,-0.018778116,-1.695405841,1.415242672,0.226569951,2.286227942, 
492,2291600457,-167.2203827,-78.82260895,122.3132401,9.755596161,0.01334395,-1.663605928,1.185714245,0.288642317,2.178539515, 
493,2291617124,-167.210495,-78.80297852,122.3171082,9.767998695,0.026809502,-1.690496325,1.274577618,0.099671826,2.235373974, 
494,2291633791,-167.2065735,-78.78378296,122.3244858,9.741663933,0.020488277,-1.713279128,1.115638018,0.110877387,2.190718412, 
495,2291650458,-167.1931763,-78.76580811,122.3259964,9.770496368,0.016344408,-1.709051847,1.343488574,0.195937157,2.240163565, 
496,2291667125,-167.1732635,-78.75069427,122.3208771,9.769684792,0.00099922,-1.691760063,1.343988061,0.373266697,2.279261589, 
497,2291683792,-167.1726227,-78.73484039,122.3298798,9.736289024,-0.004807987,-1.640731215,1.020678878,0.294315547,2.127467871, 
498,2291700459,-167.1746674,-78.7203598,122.3395615,9.78380394,-0.007629664,-1.730269074,0.914668024,0.361484826,2.099037647, 
499,2291717126,-167.1775665,-78.70716858,122.3522797,9.768179893,0.013499127,-1.728326082,1.032217503,0.428436458,2.048478127, 
500,2291733793,-167.162674,-78.69857788,122.3492203,9.73794651,0.04113289,-1.747171521,1.177723289,0.732933044,2.167154551, 
501,2291750460,-167.125824,-78.69104767,122.3288269,9.747950554,0.019052498,-1.745446324,1.48091352,0.838969529,2.352705956, 
502,2291767127,-167.0854645,-78.68558502,122.3040161,9.741836548,-0.005116467,-1.713197351,1.410914063,0.971797109,2.37916398, 
503,2291783794,-167.0466766,-78.67889404,122.2833099,9.783208847,-0.011631183,-1.665835381,1.586501837,0.886647701,2.344279528, 
504,2291800461,-167.0166168,-78.66954803,122.2698517,9.782119751,0.035090953,-1.636224389,1.484563351,0.706769705,2.297203064, 
505,2291817128,-166.9915009,-78.65631104,122.2581329,9.744534492,0.005860272,-1.720963001,1.294914007,0.463756293,2.331626415, 
506,2291833795,-166.9911499,-78.64419556,122.2658081,9.706168175,-0.044950359,-1.701059222,0.941420376,0.480455846,2.094222546, 
507,2291850462,-167.0042725,-78.63303375,122.290451,9.701022148,-0.058680613,-1.697375417,1.142223954,0.490252733,1.883289099, 
508,2291867129,-167.0384216,-78.62054443,122.3351517,9.713459015,-0.03798414,-1.730082273,1.060916424,0.349101096,1.668257594, 
509,2291883796,-167.1011353,-78.60666656,122.4053802,9.644818306,-0.046429455,-1.707942009,0.857321143,0.197204992,1.389386535, 
510,2291900463,-167.1846924,-78.59080505,122.4952469,9.720226288,0.005302154,-1.497125387,0.775501311,0.03283548,1.18264091, 
511,2291917130,-167.2700043,-78.55729675,122.5901871,9.828276634,0.036752827,-1.613491297,0.955776215,-1.019570947,1.356461167, 
512,2291933797,-167.3851318,-78.51880646,122.7022629,9.837371826,-0.013288646,-1.722800493,0.159874469,-1.360975504,1.217474103, 
513,2291950464,-167.5088348,-78.47989655,122.8296738,9.749203682,-0.02252195,-1.697921395,0.566604078,-1.430757165,1.030437231, 
514,2291967131,-167.6080017,-78.4360199,122.9420242,9.735843658,0.101585954,-1.493798137,1.166607261,-1.690124393,1.259414911, 
515,2291983798,-167.689209,-78.3481369,123.0308228,9.643610954,0.1405963,-1.439236403,0.836254835,-4.21061945,2.093659163, 
516,2292000465,-167.7579498,-78.23152924,123.0924149,9.640624046,-0.051878702,-1.343752384,-0.014503191,-5.838255405,2.770436287, 
517,2292017132,-167.8184662,-78.06021118,123.1553726,9.556968689,0.084667541,-1.236942887,0.580524862,-9.059361458,3.424213648, 
518,2292033799,-167.8353882,-77.8190918,123.1688843,9.689519882,0.305413753,-0.999085248,0.292535663,-13.0404911,4.892810345, 
519,2292050466,-167.7354126,-77.47875214,123.0903397,9.844329834,0.113743111,-0.844869912,1.918816566,-18.62219429,7.315816402, 
520,2292067133,-167.5259094,-77.02300262,122.9081116,9.752905846,0.223725647,-0.858901739,2.439321756,-25.10102081,10.22335052, 
521,2292083800,-167.194931,-76.43549347,122.5958023,9.848928452,0.261333704,-0.963968694,2.152616024,-32.37369156,13.91969299, 
522,2292100467,-166.7109222,-75.74210358,122.1625671,10.11459541,0.159480765,-0.864545405,4.360320091,-38.06542587,17.48804855, 
523,2292117134,-166.0489655,-74.94563293,121.5801392,10.45288467,0.252391756,-0.98358804,6.473228455,-43.33553314,21.85187531, 
524,2292133801,-165.2974854,-74.04467773,120.8863831,10.67826939,0.482533276,-1.065818429,5.558336735,-48.61916351,26.16269684, 
525,2292150468,-164.5170593,-73.06090546,120.0895233,11.52622128,0.698973358,-0.694594741,1.559411168,-52.49641418,30.45046616, 
526,2292167135,-163.7602692,-71.93849945,119.3418503,12.13349724,0.542249143,-0.857494593,3.234092236,-60.17100906,33.39828491, 
527,2292183802,-163.0487213,-70.66616058,118.6618195,12.89387894,1.729018927,-1.508453727,4.676261425,-68.54638672,36.36022949, 
528,2292200469,-162.111618,-69.23703766,118.2831802,14.24735451,0.309145361,-0.637115777,35.5450058,-78.65159607,35.15077591, 
529,2292217136,-160.3735809,-67.77749634,117.7974472,13.28276157,-0.180907696,-1.566110373,77.84844971,-78.72179413,40.32888412, 
530,2292233803,-158.3948517,-66.04036713,117.1665421,11.58204269,-2.402861834,-2.405920267,84.60388947,-91.60270691,52.66117477, 
531,2292250470,-156.3840637,-64.26292419,116.5990906,11.11346054,-4.617320538,-1.948992014,90.45091248,-92.24766541,56.25823975, 
532,2292267137,-154.1751099,-62.45910263,116.3003235,11.6936264,-4.937510967,-2.006170034,117.1871719,-94.27097321,54.56631851, 
533,2292283804,-151.7647247,-60.94817734,116.1669159,10.97831726,-0.42401126,-3.896270514,138.2233124,-78.38034821,46.54922867, 
534,2292300471,-149.4048157,-60.14412689,116.2596817,9.537438393,-1.419431329,-1.619243979,147.118454,-42.71627045,23.31813812, 
535,2292317138,-146.4737854,-60.02324677,116.3300476,7.816520214,1.378997564,2.105862856,180.205307,-6.630089283,4.10193491, 
536,2292333805,-143.3503265,-60.45029449,116.4009323,5.253840446,4.001108646,2.874277115,191.7942657,20.33865356,-14.35241318, 
537,2292350472,-141.0982819,-61.45851517,116.7821808,5.027335644,4.993803978,2.712773561,155.8555908,41.54827118,-43.63674545, 
538,2292367139,-139.9908905,-63.00549698,117.6453934,5.449794769,4.50178051,2.75944519,113.0498047,56.82977676,-75.30982971, 
539,2292383806,-140.0232239,-64.97669983,119.173111,6.955441475,2.531228065,1.527067423,81.26983643,65.22705841,-104.4027481, 
540,2292400473,-140.8206635,-67.34825134,121.2429047,8.2102108,1.3469491,0.190869361,66.6227951,78.10346985,-126.8554077, 
541,2292417140,-142.0676727,-70.0559082,123.7993622,9.345983505,0.640299261,-0.548654974,69.00609589,92.71276855,-142.2673492, 
542,2292433807,-143.713501,-72.9937439,126.9560089,10.40428734,-1.392539978,-1.418664932,81.83652496,104.7563705,-151.5867004, 
543,2292450474,-145.5668335,-76.03870392,130.8616333,11.78730965,-3.90973115,-2.889322042,115.5926895,113.2010193,-154.0647583, 
544,2292467141,-147.7604218,-79.13579559,135.8623505,12.57329178,-5.227130413,-4.11399889,162.3642883,120.2503433,-153.2794342, 
545,2292483808,-152.0232391,-82.10946655,143.6890411,11.77990723,-4.018630028,-5.084354401,208.5091858,116.3451309,-152.8491058, 
546,2292500475,-162.6688538,-84.57678223,157.9689178,11.9292326,-3.901098967,-5.151134014,213.2894592,98.27342224,-145.4338074, 
547,2292517142,176.8680878,-86.22498322,-178.2040558,12.01560402,-7.723125935,-4.74630928,198.233139,82.96273041,-122.352066, 
548,2292533809,144.7261353,-86.79338074,-143.2149048,10.07340813,-7.727846146,-4.079902172,167.8638306,73.27297974,-105.7075195, 
549,2292550476,118.8717499,-86.35535431,-114.9784622,9.787611008,-6.15306139,-3.819257736,140.6435242,58.98615646,-83.46103668, 
550,2292567143,103.4278946,-85.9119339,-97.73139954,8.759763718,-7.116571426,-3.693737268,106.4426422,56.69350433,-47.38079834, 
551,2292583810,94.39440155,-85.91980743,-87.66810608,8.16024971,-7.349145889,-3.94962883,60.7783699,43.92803955,-4.082777977, 
552,2292600477,89.26303101,-86.4778595,-81.9758606,6.076904774,-7.014055252,-6.346432686,33.37783051,25.18522835,34.69033051, 
553,2292617144,87.39492798,-87.37743378,-79.77039337,8.770285606,-7.998850346,-6.844026089,20.48031807,7.11213541,56.02161026, 
554,2292633811,76.3325119,-87.88816833,-69.35955811,9.839794159,9.362290382,-2.109783888,-39.21612167,22.89087296,35.62759018, 
555,2292650478,63.26240921,-87.67198944,-56.74666214,16.51918602,15.07086563,7.997680664,-27.54771233,33.62503433,-0.106645584, 
556,2292667145,52.7831192,-88.1999588,-44.73401642,13.99498177,-4.367372513,-1.822167873,92.05257416,6.862454891,42.56154251, 
557,2292683812,17.41829109,-89.1500473,-8.934598923,14.32361412,0.036153637,-11.64055347,26.11808968,-14.62275887,73.17285919, 
558,2292700479,-31.67648506,-88.63140869,39.58931732,9.774599075,2.947417736,1.156992435,-34.19937134,23.10272598,59.84280014, 
559,2292717146,-47.12073135,-87.98452759,54.84991837,5.781634808,-1.724007368,3.960075855,-10.84957886,14.35360146,47.31843948, 
560,2292733813,-56.30977631,-87.41419983,64.42166901,8.782419205,-3.747251511,-0.666000187,23.02882767,4.72767067,43.07086182, 
561,2292750480,-55.87833405,-86.87575531,64.59384155,9.450171471,-2.231074333,1.163510919,36.72214127,19.2788887,29.06487274, 
562,2292767147,-55.29434967,-86.53790283,64.37499237,9.721375465,1.69563663,1.222961545,22.44066048,13.75618267,18.23852348, 
563,2292783814,-56.32213211,-86.26021576,65.67171478,10.9572525,0.611416996,-1.596058249,16.49610138,6.971216202,18.48509789, 
564,2292800481,-56.19225693,-85.95272064,65.75640106,11.14243031,-0.379220635,-1.696950197,13.39157772,11.63752556,17.51456451, 
565,2292817148,-55.07710266,-85.6167984,64.97878265,9.775053978,0.267682523,-0.262843102,20.90734673,15.90467072,16.67852211, 
566,2292833815,-54.80050659,-85.30539703,65.09275055,9.683020592,0.206520289,-0.326363474,23.95466995,11.98332882,17.57849503, 
567,2292850482,-53.47463226,-85.01564026,64.09262085,9.772601128,-0.399616987,0.226961598,20.30757713,15.98745632,13.10905457, 
568,2292867149,-51.80312729,-84.77220154,62.63147736,9.549966812,-0.405777246,0.465640277,13.51332188,16.77070236,8.871294975, 
569,2292883816,-50.152565,-84.55241394,61.15813446,9.885737419,-0.364105433,0.011433947,11.56285667,16.38524818,7.054092884, 
570,2292900483,-48.43310928,-84.33663177,59.57195282,10.25142765,0.139405891,-0.240526408,8.992183685,17.12032127,5.788798809, 
571,2292917150,-46.86284256,-84.11873627,58.05140305,10.05886841,0.364370316,-0.2159096,3.994535923,17.28952789,5.481764793, 
572,2292933817,-45.36802292,-83.87910461,56.62758255,10.10497475,-0.084132478,-0.084070556,5.286251545,18.09894371,6.174513817, 
573,2292950484,-43.6196022,-83.6313324,55.00457764,9.827376366,-0.698303342,0.225204781,8.661729813,19.72952271,4.877588272, 
574,2292967151,-41.54388809,-83.38957214,53.05894089,9.542224884,-0.536230505,0.496587932,9.111721992,21.31182861,2.114217043, 
575,2292983818,-39.26325607,-83.17203522,50.88040543,9.647041321,-0.275305003,0.957605898,7.582538128,21.55654335,-1.169266462, 
576,2293000485,-37.09709549,-82.9839859,48.77722931,9.803971291,-0.111936778,0.612372756,5.2512393,19.95844841,-2.969368696, 
577,2293017152,-34.96334076,-82.78781891,46.64346313,9.818819046,-0.092351988,0.40654093,1.538941383,20.53140259,-3.880400419, 
578,2293033819,-32.93790436,-82.57455444,44.59189224,9.833995819,-0.002664997,0.480017692,-0.008855605,21.06200981,-3.833760023, 
579,2293050486,-31.07165146,-82.33435822,42.68717957,9.750574112,0.257735521,0.614845574,-0.76532799,21.8604126,-3.055568457, 
580,2293067153,-29.45993805,-82.08586884,41.03149414,9.835263252,0.362205654,0.895598471,-1.165821671,21.34578514,-2.073652506, 
581,2293083820,-28.1046505,-81.84171295,39.62106705,9.783146858,0.2586402,0.968348384,-1.921960354,20.21663284,-1.260153055, 
582,2293100487,-27.00615883,-81.61594391,38.45804977,9.649443626,-0.254205525,1.18208909,-2.590132236,18.32251549,-0.571682513, 
583,2293117154,-26.04447365,-81.43519592,37.43169022,9.53453064,-0.285984844,1.277143836,-2.653753281,15.42369938,-1.210271597, 
584,2293133821,-25.20263672,-81.29349518,36.52932358,9.467950821,-0.140734017,1.249060035,-2.464090347,12.8380785,-1.587751389, 
585,2293150488,-24.51772118,-81.18347931,35.77554703,9.575987816,0.088726699,1.080835104,-3.051324844,10.53289223,-1.409691453, 
586,2293167155,-23.95209503,-81.0802002,35.12466431,9.716383934,0.148918405,1.121205091,-4.095452785,9.767521858,-0.872849047, 
587,2293183822,-23.51067924,-80.98062134,34.62232208,9.677225113,-0.029925004,1.13794136,-2.732446909,8.99887085,0.182272851, 
588,2293200489,-23.14363289,-80.88180542,34.18714142,9.716609001,0.112786792,1.072241306,-3.206473827,8.711252213,0.653239191, 
589,2293217156,-22.83709145,-80.79288483,33.79668808,9.684796333,0.099086717,1.158197999,-4.177592754,8.00088501,0.739233971, 
590,2293233823,-22.52100182,-80.71526337,33.38651276,9.713898659,0.032671485,1.018682122,-4.770000935,7.44320488,0.238697588, 
591,2293250490,-22.09766006,-80.63773346,32.91366577,9.731573105,-0.09892866,0.940922081,-2.035665512,7.668840885,-0.388807237, 
592,2293267157,-21.65670395,-80.55375671,32.4291153,9.712311745,0.055078503,1.199496508,-1.665152431,8.066939354,-0.429275334, 
593,2293283824,-21.29156876,-80.48093414,32.01686859,9.658034325,0.150957465,1.280284762,-1.927554727,7.176014423,-0.086846292, 
594,2293300491,-21.01270485,-80.42735291,31.68928719,9.648939133,-0.005806445,1.258772612,-2.090194702,5.78012085,0.226723626, 
595,2293317158,-20.77339554,-80.38994598,31.40848541,9.651973724,-0.037607118,1.372104883,-1.689855456,4.708587646,0.292561054, 
596,2293333825,-20.59502602,-80.37004089,31.21464539,9.601136208,0.039834786,1.279322624,-0.20184727,3.407974482,0.718410552, 
597,2293350492,-20.4966507,-80.35372162,31.11354065,9.578318596,0.057380479,1.219334722,0.485821605,2.865778923,1.50705111, 
598,2293367159,-20.44273186,-80.33808136,31.05892944,9.661701202,0.125689223,1.197948337,0.573071361,2.663208485,1.93237555, 
599,2293383826,-20.42859077,-80.32624817,31.04767418,9.719880104,0.073840328,1.218100309,0.750977099,2.295435429,2.26537919, 
600,2293400493,-20.401474,-80.31651306,31.02361488,9.708200455,0.076713152,1.162742615,0.774143875,2.215947151,2.1011765, 
601,2293417160,-20.37058449,-80.31269836,30.99904633,9.725405693,0.025254354,1.201414347,0.973141789,1.885389209,1.976749659, 
602,2293433827,-20.29454422,-80.30854034,30.93757439,9.739802361,0.014200678,1.146006227,1.500097394,2.031778812,1.637560725, 
603,2293450494,-20.19160271,-80.30239868,30.84627914,9.673913002,0.049721103,1.277084351,1.352030396,2.241738796,1.394329667, 
604,2293467161,-20.0930233,-80.29907227,30.75119972,9.690475464,0.057442471,1.184578061,0.867809415,2.092288494,1.302546501, 
605,2293483828,-19.9321022,-80.29037476,30.60547447,9.704471588,0.016877878,1.210390806,1.614714026,2.567147732,0.93172586, 
606,2293500495,-19.7689476,-80.28163147,30.45249367,9.739677429,0.110440679,1.149924159,1.322921515,2.591928482,0.863429785, 
607,2293517162,-19.60898209,-80.27249908,30.30103493,9.756592751,0.116603456,1.168427587,1.219010711,2.597908497,0.880999982, 
608,2293533829,-19.45689011,-80.26363373,30.15540886,9.67932415,0.078178518,1.216487169,1.095211864,2.56517601,0.933518767, 
609,2293550496,-19.29655075,-80.25521088,29.9998436,9.667390823,0.04534829,1.227791667,1.003838539,2.560488701,0.825215578, 
610,2293567163,-19.13386536,-80.24692535,29.83249855,9.702314377,0.072005004,1.243177652,0.4505274,2.589994669,0.710022449, 
611,2293583830,-18.97320557,-80.24024963,29.65759277,9.70144558,0.090041332,1.253273129,-0.119118258,2.51676774,0.603153467, 
612,2293600497,-18.82307053,-80.23352051,29.49381638,9.709599495,0.070411965,1.222111344,-0.090483263,2.474455595,0.708805919, 
613,2293617164,-18.66236496,-80.23377991,29.31536293,9.725466728,0.095016643,1.270199299,-0.323123425,2.120065928,0.432790607, 
614,2293633831,-18.49268723,-80.23445129,29.12967873,9.683119774,0.105695188,1.275340438,-0.213424236,2.110742807,0.355273783, 
615,2293650498,-18.30686951,-80.23392487,28.94145203,9.684257507,0.079122707,1.240101337,0.606854498,2.182112455,0.355209738, 
616,2293667165,-18.13598633,-80.23167419,28.77255058,9.692138672,0.094966255,1.264463663,0.852710843,2.208544731,0.573032975, 
617,2293683832,-17.97712898,-80.22931671,28.61629105,9.648633003,0.112821996,1.357964277,0.882011712,2.167257071,0.698355854, 
618,2293700499,-17.8633461,-80.23374939,28.49712944,9.666423798,0.149947256,1.335336089,0.368810028,1.654772401,0.930726945, 
619,2293717166,-17.80127335,-80.24250793,28.41842651,9.691771507,0.150115237,1.303843856,-0.339797288,1.276985049,1.246800542, 
620,2293733833,-17.76055527,-80.25476837,28.36636925,9.706789017,0.101756483,1.288296342,-0.046301361,0.991326809,1.445171118, 
621,2293750500,-17.71925926,-80.26728821,28.32517052,9.68366909,0.1008012,1.276339531,0.63125056,0.941189826,1.548479676, 
622,2293767167,-17.69404602,-80.280159,28.30405807,9.650094986,0.140281931,1.305335879,0.85419637,0.847844481,1.735106826, 
623,2293783834,-17.7000351,-80.29716492,28.3138504,9.660581589,0.104539871,1.345198035,0.811115801,0.518337011,1.961753488, 
624,2293800501,-17.72134399,-80.31434631,28.34047699,9.704593658,0.105767861,1.246133924,0.885520756,0.452230662,2.121231079, 
625,2293817168,-17.72271347,-80.32984161,28.35351753,9.727633476,0.082421578,1.248221755,1.280225158,0.589194596,2.022443056, 
626,2293833835,-17.70226669,-80.34370422,28.35557365,9.694436073,0.110827923,1.235515714,1.938676476,0.708844304,1.946475387, 
627,2293850502,-17.68724632,-80.35256195,28.37014198,9.711101532,0.156398028,1.17133522,2.355190039,0.961142123,2.161365986, 
628,2293867169,-17.66994667,-80.35569763,28.38927078,9.679364204,0.11372298,1.30970633,2.761254311,1.270428419,2.311110973, 
629,2293883836,-17.68574905,-80.35588837,28.43827438,9.687947273,0.142500937,1.236392617,2.541599751,1.344282746,2.651644945, 
630,2293900503,-17.72116852,-80.35707092,28.49324417,9.66460228,0.169242054,1.310649633,1.717779636,1.269365311,2.692893505, 
631,2293917170,-17.76479721,-80.35586548,28.54859924,9.707165718,0.093793146,1.234262824,1.250552773,1.399260163,2.742658854, 
632,2293933837,-17.7675705,-80.34942627,28.57393456,9.731297493,0.057338502,1.23435998,1.922860503,1.789892197,2.551985264, 
633,2293950504,-17.74937057,-80.34036255,28.57550049,9.700713158,0.144434586,1.278112888,1.77630496,2.010149002,2.37313199, 
634,2293967171,-17.71562195,-80.33020782,28.55264854,9.665654182,0.108296305,1.317742348,1.261873603,2.140248537,2.157601118, 
635,2293983838,-17.6948719,-80.32083893,28.54112244,9.72851181,0.072980009,1.23083055,1.153519034,2.064498663,2.256286383, 
636,2294000505,-17.65647125,-80.31111145,28.5124855,9.749725342,0.093356095,1.255728006,1.197726607,2.12814641,2.096220016, 
637,2294017172,-17.60919571,-80.30621338,28.46796417,9.709407806,0.084569007,1.290845633,0.792290449,1.905572057,1.85811162, 
638,2294033839,-17.54845047,-80.30841827,28.40340042,9.664048195,0.073769458,1.301908374,0.414503127,1.553333402,1.536288261, 
639,2294050506,-17.45781517,-80.309021,28.31442833,9.711547852,0.02895507,1.29393208,0.75944221,1.711133361,1.328261733, 
640,2294067173,-17.34679794,-80.30774689,28.21325874,9.668072701,0.113182396,1.342975736,1.263359189,1.860275865,1.248158097, 
641,2294083840,-17.24075317,-80.31221008,28.11508179,9.702415466,0.115118548,1.320144773,1.139534831,1.5140692,1.173663497, 
642,2294100507,-17.14260101,-80.31838989,28.02741623,9.687969208,0.089765184,1.304451108,1.286269903,1.384251356,1.247902036, 
643,2294117174,-17.05723572,-80.32880402,27.94339943,9.680615425,0.117940724,1.365217924,0.732817709,1.125101805,1.209290743, 
644,2294133841,-16.99172974,-80.34085083,27.88072205,9.635739326,0.126102582,1.338178873,0.802343428,0.956493378,1.385109067, 
645,2294150508,-16.92469788,-80.35402679,27.82346725,9.678956032,0.089571543,1.329221606,1.214041948,0.878489912,1.423361659, 
646,2294167175,-16.85825348,-80.36728668,27.76066971,9.681833267,0.171138465,1.343592644,0.84945786,0.882818401,1.369152188, 
647,2294183842,-16.82777214,-80.38679504,27.72677612,9.675532341,0.114390828,1.326061368,0.399570912,0.437708199,1.541500449, 
648,2294200509,-16.81830025,-80.40999603,27.70402718,9.656634331,0.154366717,1.373942733,-0.203819454,0.19099389,1.586040735, 
649,2294217176,-16.82663536,-80.43595886,27.70262527,9.669548988,0.105423808,1.267197609,-0.011147928,-0.032534536,1.743597507, 
650,2294233843,-16.81896591,-80.45709229,27.68651962,9.69513607,0.115876012,1.250050187,0.077235103,0.284441859,1.687582493, 
651,2294250510,-16.82574463,-80.4784317,27.68174362,9.684631348,0.150292337,1.316406131,-0.119822621,0.2355216,1.792760968, 
652,2294267177,-16.83084106,-80.50227356,27.67476463,9.684897423,0.09207201,1.296119928,-0.151889712,0.101362258,1.731661677, 
653,2294283844,-16.81642151,-80.52620697,27.65641212,9.680381775,0.074544065,1.281879902,0.341660589,0.116243228,1.61885047, 
654,2294300511,-16.78830338,-80.54965973,27.62696075,9.674184799,0.1238866,1.305500746,0.508373678,0.178174734,1.525377154, 
655,2294317178,-16.76241112,-80.57540131,27.59928131,9.686413765,0.126372516,1.304543018,0.475166827,0.037637863,1.504425883, 
656,2294333845,-16.74853897,-80.59784698,27.58107376,9.689288139,0.126717657,1.288050652,0.313678712,0.198703319,1.652518511, 
657,2294350512,-16.72749138,-80.61986542,27.56466293,9.702813148,0.115706012,1.268300653,0.848996878,0.213353783,1.678015947, 
658,2294367179,-16.70675278,-80.64180756,27.55378151,9.688546181,0.139999434,1.277427197,1.156298161,0.205657154,1.733608365, 
659,2294383846,-16.69661331,-80.66379547,27.55316734,9.676169395,0.147400379,1.304666877,1.123296142,0.166623428,1.828567624, 
660,2294400513,-16.69241905,-80.68721771,27.55803299,9.684763908,0.121667698,1.278406024,1.08985889,0.0681554,1.856575012, 
661,2294417180,-16.67802429,-80.70764923,27.55815697,9.71704483,0.086829416,1.245806813,1.418457031,0.248520032,1.862683773, 
662,2294433847,-16.6504612,-80.72598267,27.54748726,9.65844059,0.11803171,1.326020956,1.566716194,0.399865478,1.800982594, 
663,2294450514,-16.62286377,-80.74768829,27.53041267,9.681568146,0.131940112,1.305641055,1.189043999,0.217989683,1.683228135, 
664,2294467181,-16.58405495,-80.77141571,27.49964714,9.6976614,0.110802166,1.265839338,1.045343876,0.13960202,1.524775147, 
665,2294483848,-16.53427696,-80.79401398,27.45870781,9.709554672,0.141903564,1.2258811,1.098899841,0.224277556,1.450933695, 
666,2294500515,-16.4726963,-80.81318665,27.40479279,9.706763268,0.138655961,1.228562236,1.036584377,0.458031952,1.393804669, 
667,2294517182,-16.39713287,-80.83164215,27.33503342,9.734295845,0.107616387,1.246162295,0.932622433,0.540376782,1.264319658, 
668,2294533849,-16.30056381,-80.85015869,27.24164772,9.707831383,0.105463319,1.272708058,0.788602114,0.591563702,1.046035409, 
669,2294550516,-16.19105911,-80.86981201,27.13264084,9.715773582,0.138180584,1.231332421,0.637692213,0.567795098,0.890451193, 
670,2294567183,-16.07142258,-80.88635254,27.01536369,9.686922073,0.132352218,1.244939566,0.752910912,0.765051365,0.870422006, 
671,2294583850,-15.9487381,-80.90054321,26.89949417,9.705700874,0.153734326,1.271922946,1.015735626,0.889439464,0.925463617, 
672,2294600517,-15.82747936,-80.91217804,26.78250122,9.69787693,0.190078408,1.25948894,0.858153582,1.031666636,0.958657801, 
673,2294617184,-15.72152805,-80.92517853,26.67762375,9.691975594,0.148754865,1.258832574,0.655569851,0.921199143,1.052092791, 
674,2294633851,-15.62761307,-80.9371109,26.58502007,9.680878639,0.157784447,1.286638379,0.655454576,0.945595205,1.181539416, 
675,2294650518,-15.54606438,-80.9520874,26.50671768,9.69056797,0.149434194,1.289152861,0.758981168,0.732715309,1.267277956, 
676,2294667185,-15.46116447,-80.96582031,26.42512703,9.69248867,0.155980855,1.268918872,0.758276701,0.801280499,1.256392598, 
677,2294683852,-15.38164806,-80.98193359,26.34929848,9.71723938,0.144714147,1.270989895,0.774502456,0.651574254,1.275858164, 
678,2294700519,-15.30209351,-80.99499512,26.2718029,9.699141502,0.16945377,1.252571344,0.672884047,0.824421585,1.308834672, 
679,2294717186,-15.22784328,-81.00785828,26.20161247,9.70452404,0.135720849,1.238094211,0.785157382,0.814586341,1.381677151, 
680,2294733853,-15.14109707,-81.01635742,26.12059975,9.699509621,0.16648078,1.281433105,0.887108624,1.089346409,1.352478504, 
681,2294750520,-15.06313515,-81.02503967,26.04212761,9.674419403,0.174528599,1.276330233,0.509487748,1.075758934,1.376900196, 
682,2294767187,-14.98623466,-81.0328598,25.96463203,9.663082123,0.121809021,1.267691135,0.498103023,1.115548253,1.398658276, 
683,2294783854,-14.91058826,-81.04217529,25.89587975,9.672406197,0.144397497,1.348475695,0.933838844,1.001469254,1.453712463, 
684,2294800521,-14.85084629,-81.05870819,25.84087753,9.699323654,0.192573711,1.290398479,0.791650176,0.547663569,1.468542576, 
685,2294817188,-14.82044983,-81.07927704,25.81226349,9.702035904,0.180469811,1.299447298,0.590667248,0.249992773,1.647011876, 
686,2294833855,-14.79555416,-81.10232544,25.79408264,9.689956665,0.125822753,1.264722943,0.87248379,0.078041889,1.702898622, 
687,2294850522,-14.76334858,-81.1230545,25.77491188,9.681202888,0.132505357,1.264173627,1.248888016,0.212803125,1.730727077, 
688,2294867189,-14.71473122,-81.14055634,25.74637604,9.63390255,0.175134838,1.306988358,1.674648046,0.420137972,1.697827578, 
689,2294883856,-14.68011189,-81.15879822,25.73064804,9.651441574,0.173146486,1.310891867,1.588781476,0.342928469,1.800368071, 
690,2294900523,-14.66534901,-81.17835999,25.73451805,9.690234184,0.17159538,1.240268826,1.553717732,0.221549869,1.956733584, 
691,2294917190,-14.65568066,-81.19576263,25.73955345,9.69797802,0.16283612,1.279483676,1.312881231,0.336281925,1.998315692, 
692,2294933857,-14.63775444,-81.21086121,25.74007988,9.689722061,0.180717856,1.237728953,1.536147237,0.483670205,1.994985819, 
693,2294950524,-14.61091232,-81.22141266,25.72812843,9.690239906,0.178428888,1.197492957,1.327237368,0.772248566,1.953775167, 
694,2294967191,-14.58067513,-81.22399139,25.72072792,9.689477921,0.132504582,1.179529309,1.795885563,1.224825025,2.1152246, 
695,2294983858,-14.5445137,-81.21964264,25.71373558,9.751227379,0.186340392,1.250719547,2.169190884,1.622077823,2.221235514, 
696,2295000525,-14.47770119,-81.21564484,25.68591118,9.753118515,0.235464394,1.289969802,2.767721653,1.647934198,2.032163143, 
697,2295017192,-14.43339539,-81.2111969,25.70631027,9.663536072,0.217489004,0.903074801,4.275042057,1.572440743,2.469897032, 
698,2295033859,-14.44594765,-81.19011688,25.77112579,9.763539314,0.196010172,1.285454869,3.489244223,2.426727057,3.109779119, 
699,2295050526,-14.52648449,-81.16498566,25.91744995,9.618853569,0.170590982,1.308690429,4.237404346,2.47873354,3.901749372, 
700,2295067193,-14.57643986,-81.12754822,26.05506516,9.603624344,0.140543595,1.348519087,5.54940176,3.199872017,4.012447834, 
701,2295083860,-14.73123932,-81.09196472,26.27786636,9.648330688,0.192539051,1.137454033,4.300630093,2.897860289,4.759263515, 
702,2295100527,-14.88694572,-81.03413391,26.50689507,9.767260551,0.259061456,1.358652711,4.608993053,4.161167622,5.171525002, 
703,2295117194,-15.07249451,-80.98020935,26.78594971,9.734707832,0.203255847,1.111213565,5.773424625,3.791884661,5.581687927, 
704,2295133861,-15.28210926,-80.91440582,27.07784081,9.817154884,0.197589293,1.030050397,5.081882,4.443266869,5.915241718, 
705,2295150528,-15.47158623,-80.83428192,27.33628845,9.804288864,0.115125887,1.319908738,4.300681114,5.328454971,5.865694046, 
706,2295167195,-15.56612301,-80.75282288,27.51290131,9.719145775,0.036668867,1.261381388,5.141647816,5.606058121,5.162432671, 
707,2295183862,-15.53164864,-80.66287231,27.58504677,9.702207565,-0.096920557,1.119158506,6.686209679,6.358354092,4.338984966, 
708,2295200529,-15.44187927,-80.56124878,27.61746788,9.695170403,-0.122645169,1.140262365,7.644855976,7.141489506,4.151295662, 
709,2295217196,-15.27478981,-80.45181274,27.56126404,9.772149086,0.204326004,1.450654745,7.03467083,7.825079918,3.415889978, 
710,2295233863,-15.1034708,-80.35641479,27.47751427,9.72772789,0.149815962,1.452691793,5.65331316,7.096601486,2.907976866, 
711,2295250530,-14.92801189,-80.26405334,27.39506912,9.659096718,-0.1128233,1.265852571,5.971934795,6.918517113,2.847633362, 
712,2295267197,-14.77453232,-80.17813873,27.32582664,9.667890549,0.04656326,1.324323416,5.427128315,6.509008408,2.850784063, 
713,2295283864,-14.61008263,-80.09372711,27.25478172,9.615970612,0.312794328,1.662928224,5.975739002,6.434782982,2.790376425, 
714,2295300531,-14.50856876,-80.02400208,27.24424744,9.631987572,0.020059707,1.486115217,5.766853333,5.420672417,3.157918215, 
715,2295317198,-14.39921188,-79.9569397,27.21609497,9.627827644,0.020382056,1.607042074,5.189517498,5.319477081,2.93187356, 
716,2295333865,-14.358922,-79.90759277,27.23233986,9.561546326,0.188759238,1.685942769,3.659479141,4.166521072,3.108601093, 
717,2295350532,-14.35908604,-79.86841583,27.28924179,9.595715523,0.270711273,1.804094315,3.627309561,3.463132143,3.371028662, 
718,2295367199,-14.41488075,-79.84416199,27.41020775,9.640888214,0.058297042,1.551971555,4.062955379,2.430722237,3.809850454, 
719,2295383866,-14.4993782,-79.81819916,27.55604362,9.61661911,0.126480386,1.65484488,3.802640915,2.456475735,4.091807842, 
720,2295400533,-14.63583851,-79.80472565,27.72846985,9.578828812,0.24780786,1.566585541,2.245593548,1.654401064,4.181964874, 
721,2295417200,-14.76109791,-79.7861557,27.88511467,9.623904228,0.160996214,1.654618979,1.977659106,1.97744143,4.097968102, 
722,2295433867,-14.84614182,-79.76722717,28.01398659,9.659113884,0.010156653,1.516881108,2.741391659,2.073553324,3.824514627, 
723,2295450534,-14.89020157,-79.75039673,28.09219933,9.648115158,0.0895264,1.511534691,2.20370388,2.088177919,3.271536112, 
724,2295467201,-14.91571903,-79.73482513,28.12205696,9.644359589,0.114353873,1.611123323,0.452730119,2.146011114,2.754504919, 
725,2295483868,-14.91674709,-79.72995758,28.09506798,9.711604118,0.012723072,1.490911245,-1.442667246,1.67870748,2.001260996, 
726,2295500535,-14.82157516,-79.71920013,27.97410583,9.687900543,0.037808832,1.57879734,-1.225420475,2.275509357,1.119082928, 
727,2295517202,-14.68281174,-79.71120453,27.81198502,9.638921738,-0.039290905,1.405518174,-1.047668219,2.229239464,0.647962868, 
728,2295533869,-14.4617033,-79.69763947,27.55318832,9.714244843,0.124523237,1.468062401,-1.81990397,2.794768095,-0.281746089, 
729,2295550536,-14.18402481,-79.68460846,27.23582458,9.663039207,-0.001735605,1.541741729,-1.892426252,2.915237665,-0.90623498, 
730,2295567203,-13.84235477,-79.67012024,26.84069633,9.690723419,0.004788834,1.509718895,-2.650702715,3.185195208,-1.710486412, 
731,2295583870,-13.45692158,-79.66092682,26.38702011,9.602754593,0.081669241,1.565535903,-3.484858274,2.996609449,-2.415732384, 
732,2295600537,-13.02585602,-79.65366364,25.88508606,9.598608971,0.020176401,1.698227286,-3.603226662,2.977297306,-2.961731195, 
733,2295617204,-12.57091141,-79.6556778,25.3512249,9.644440651,0.05245088,1.641970992,-4.065074444,2.462981224,-3.43758893, 
734,2295633871,-12.10156727,-79.66416168,24.79623985,9.619914055,0.112936772,1.640113354,-4.454067707,2.078969955,-3.751767397, 
735,2295650538,-11.63516331,-79.68086243,24.22591209,9.624833107,0.113955155,1.58774817,-5.546194553,1.581789613,-4.013517857, 
736,2295667205,-11.19602871,-79.71359253,23.68294907,9.63966465,0.144220695,1.48943758,-5.585791588,0.523805439,-3.905367374, 
737,2295683872,-10.74798679,-79.73940277,23.14213181,9.631908417,0.206833556,1.798649907,-4.921371937,0.874328017,-3.780467033, 
738,2295700539,-10.3123312,-79.78121185,22.63596153,9.504152298,0.157075509,1.756705999,-3.633565426,-0.19279322,-3.571096182, 
739,2295717206,-9.908614159,-79.83016968,22.16366386,9.519751549,0.260123044,1.840287566,-3.561875105,-0.720734954,-3.258479834, 
740,2295733873,-9.559394836,-79.8993454,21.73613548,9.529100418,0.189657509,1.644496083,-4.126352787,-2.053850174,-2.948693752, 
741,2295750540,-9.233381271,-79.96761322,21.34409904,9.626811028,0.18576321,1.600862861,-3.609130144,-2.091180801,-2.544026136, 
742,2295767207,-8.93558979,-80.04434204,20.99415779,9.641861916,0.203126118,1.456692576,-2.570957899,-2.703682899,-2.113297224, 
743,2295783874,-8.61874485,-80.1108017,20.64126778,9.657058716,0.17516841,1.546965003,-1.631945133,-2.11027503,-2.003534317, 
744,2295800541,-8.279688835,-80.180336,20.28216553,9.610294342,0.262533098,1.590182424,-1.216583967,-2.310041189,-2.119623661, 
745,2295817208,-7.938205719,-80.2529068,19.89873886,9.613028526,0.280267388,1.620629668,-1.574700832,-2.499114275,-2.225250721, 
746,2295833875,-7.602309704,-80.32633209,19.55180931,9.628091812,0.246570408,1.54490912,-1.629921913,-2.598286867,-2.04297781, 
747,2295850542,-7.273892879,-80.39847565,19.20057106,9.636191368,0.221804336,1.470991015,-0.5871135,-2.588310719,-1.816894531, 
748,2295867209,-6.974769115,-80.47224426,18.88963127,9.639162064,0.290694118,1.417282343,-0.570900619,-2.745623589,-1.453514218, 
749,2295883876,-6.689219475,-80.5460968,18.60517502,9.657122612,0.281645358,1.514448762,-0.227421582,-2.797118425,-1.197425723, 
750,2295900543,-6.415783882,-80.62191772,18.31918526,9.621545792,0.310873985,1.522443652,-0.26822263,-2.944749832,-1.091427684, 
751,2295917210,-6.175549984,-80.69984436,18.08087158,9.58814621,0.319414258,1.501692414,0.042004827,-3.133707047,-0.661723256, 
752,2295933877,-5.960242271,-80.77593231,17.8600235,9.618712425,0.323909342,1.501562357,0.701454997,-3.069880724,-0.31730932, 
753,2295950544,-5.757487774,-80.84736633,17.68105125,9.632086754,0.351637572,1.514546871,1.121362448,-2.834167242,-0.003733051, 
754,2295967211,-5.600066185,-80.92337799,17.48395538,9.669727325,0.367503464,1.398030877,0.867732704,-3.136998892,0.215735763, 
755,2295983878,-5.431160927,-80.99110413,17.28790283,9.695416451,0.340992451,1.400760889,0.522870481,-2.645414352,0.177444801, 
756,2296000545,-5.226017475,-81.05429077,17.10222054,9.678479195,0.213031203,1.366479516,1.317786336,-2.365224123,0.109379038, 
757,2296017212,-5.004430771,-81.11473846,16.9151783,9.666595459,0.283953428,1.278837919,1.608669758,-2.210728168,0.070665441, 
758,2296033879,-4.776391506,-81.17051697,16.68507195,9.67651844,0.369681358,1.410522699,1.404036999,-1.923814774,-0.070441328, 
759,2296050546,-4.522680283,-81.22951508,16.46681595,9.674858093,0.361774087,1.387977481,0.824882567,-2.117818117,-0.24532485, 
760,2296067213,-4.292908192,-81.29039764,16.22676849,9.694198608,0.371622652,1.36525631,0.434058458,-2.235111475,-0.178949535, 
761,2296083880,-4.054405689,-81.35332489,15.9747963,9.664617538,0.334816754,1.395771265,0.07370054,-2.364801407,-0.285280645, 
762,2296100547,-3.800222635,-81.41500854,15.73936176,9.675416946,0.342807651,1.422698498,0.323539644,-2.302152872,-0.26817137, 
763,2296117214,-3.509637833,-81.47442627,15.46525288,9.650539398,0.344853789,1.377735734,0.72514677,-2.168608189,-0.520507634, 
764,2296133881,-3.219177961,-81.53137207,15.19631195,9.644394875,0.31437698,1.296379805,1.204616547,-2.033821344,-0.413344175, 
765,2296150548,-2.942979813,-81.58870697,14.91557121,9.675264359,0.431665033,1.370762229,0.868168116,-2.074250698,-0.367791951, 
766,2296167215,-2.684317589,-81.6493454,14.60511112,9.667876244,0.457077175,1.387049437,0.571291268,-2.29252243,-0.365704536, 
767,2296183882,-2.439390659,-81.71028137,14.35254288,9.675849915,0.406708807,1.287309051,0.549597323,-2.33373332,-0.08058396, 
768,2296200549,-2.1726439,-81.76786804,14.09409332,9.708563805,0.392577082,1.276891351,0.675701499,-2.134402275,-0.168563589, 
769,2296217216,-1.911636829,-81.82185364,13.83258629,9.685259819,0.327022284,1.276828408,1.1437608,-1.937440753,-0.065754205, 
770,2296233883,-1.636508703,-81.87191772,13.57315922,9.669582367,0.422204345,1.272798419,1.090435147,-1.713431835,-0.105492301, 
771,2296250550,-1.364487648,-81.9207077,13.32517147,9.67595005,0.428079396,1.277340889,1.137203813,-1.65386951,-0.01938241, 
772,2296267217,-1.114539981,-81.96476746,13.05679417,9.685968399,0.428744823,1.260833502,1.01531291,-1.370874882,0.056053389, 
773,2296283884,-0.848941803,-82.00765991,12.82822704,9.666975975,0.424175113,1.253605008,1.156298161,-1.328818917,0.13494052, 
774,2296300551,-0.616816938,-82.04888153,12.60813141,9.662762642,0.465114236,1.308973789,0.932737708,-1.228071332,0.34070012, 
775,2296317218,-0.394010067,-82.09165192,12.40207195,9.663225174,0.458392948,1.307933927,1.464918256,-1.338692546,0.4973602, 
776,2296333885,-0.215778753,-82.13298798,12.245574,9.636386871,0.481657326,1.324805379,1.829092622,-1.258319974,0.932174325, 
777,2296350552,-0.081022568,-82.17978668,12.1195879,9.627710342,0.452689469,1.245116115,1.88331449,-1.601862907,1.266317487, 
778,2296367219,0.024134912,-82.22559357,12.02689266,9.645816803,0.503960848,1.360852718,1.735542059,-1.535641313,1.518999457, 
779,2296383886,0.081352353,-82.2778244,11.98513794,9.684414864,0.463349581,1.232588172,1.268878818,-1.931703448,1.88932085, 
780,2296400553,0.121045284,-82.32596588,11.97837925,9.634857178,0.44506374,1.207978845,1.474241376,-1.681966901,2.108347893, 
781,2296417220,0.138924241,-82.36976624,12.00002003,9.696597099,0.438958943,1.194658995,2.292490482,-1.426339388,2.372350931, 
782,2296433887,0.167350143,-82.40808105,12.00985146,9.763653755,0.464416534,1.114498138,2.32016468,-1.093079567,2.285830736, 
783,2296450554,0.191025287,-82.44038391,12.02686405,9.764720917,0.473889381,1.117107511,2.112931967,-0.735564649,2.315003633, 
784,2296467221,0.225159049,-82.46417236,12.04319096,9.720039368,0.455968827,1.170602202,2.269067526,-0.218597978,2.275445223, 
785,2296483888,0.26245755,-82.48184967,12.05037594,9.671375275,0.43152079,1.20686996,2.392789364,0.143584788,2.24105978, 
786,2296500555,0.27786082,-82.49829102,12.06767654,9.700099945,0.422189027,1.176404476,2.011801004,0.216312066,2.345009565, 
787,2296517222,0.302979589,-82.51017761,12.07073498,9.707069397,0.469746828,1.247503281,1.6419276,0.486410767,2.224001884, 
788,2296533889,0.3274436,-82.52388763,12.0891552,9.723172188,0.447182417,1.182790995,1.317491651,0.373036116,2.255697489, 
789,2296550556,0.330164045,-82.5345993,12.12179184,9.657745361,0.488216698,1.25067997,1.424309373,0.558869123,2.408183098, 
790,2296567223,0.310756922,-82.54683685,12.15477657,9.679153442,0.439467132,1.18806529,1.446336389,0.463999689,2.510608196, 
791,2296583890,0.29957372,-82.55273438,12.21021938,9.664422035,0.44310841,1.216488719,1.698045254,0.852838814,2.564906836, 
792,2296600557,0.2457394,-82.56136322,12.29738808,9.672587395,0.420715988,1.234314561,1.539784193,0.678698063,2.850693226, 
793,2296617224,0.190388024,-82.56834412,12.38650036,9.669293404,0.456215531,1.291218162,1.628211975,0.776692212,2.868327618, 
794,2296633891,0.093877546,-82.58243561,12.50511932,9.716842651,0.464333951,1.201052427,0.956647098,0.347897321,3.100635052, 
795,2296650558,0.009692881,-82.59612274,12.63288689,9.718460083,0.42714268,1.153562427,1.506833434,0.373125792,3.114504099, 
796,2296667225,-0.113914296,-82.60760498,12.78534889,9.679797173,0.439981431,1.165667653,1.810126781,0.495964378,3.390315294, 
797,2296683892,-0.289210677,-82.61387634,12.97125435,9.654411316,0.434880555,1.266096592,2.482037306,0.804187655,3.776221752, 
798,2296700559,-0.45929575,-82.62200928,13.20952225,9.665279388,0.392663091,1.250439405,2.360479355,0.692144871,3.917667627, 
799,2296717226,-0.624417365,-82.6317215,13.45944881,9.679824829,0.431948483,1.165421486,2.23848629,0.597275317,3.924493551, 
800,2296733893,-0.79828316,-82.64086151,13.70123196,9.738330841,0.387676567,1.184332013,2.345073223,0.625462174,3.938849688, 
801,2296750560,-0.980796397,-82.65150452,13.94228363,9.728096962,0.419576943,1.221028328,2.849707365,0.523587644,4.004238129, 
802,2296767227,-1.194163442,-82.66265106,14.19387722,9.710073471,0.453500181,1.189344049,2.86613822,0.479021609,4.1679039, 
803,2296783894,-1.432332635,-82.67613983,14.45945644,9.665799141,0.423028708,1.191328287,2.459843636,0.324948341,4.28346777, 
804,2296800561,-1.688429236,-82.68946838,14.76272964,9.705946922,0.37495929,1.187646985,2.057288885,0.319889814,4.452972412, 
805,2296817228,-1.948440433,-82.70069885,15.08076954,9.728620529,0.342468143,1.176185727,2.115404129,0.445494533,4.521217823, 
806,2296833895,-2.218800545,-82.71629333,15.39386845,9.748425484,0.427945614,1.211656928,2.081595182,0.165253133,4.527953625, 
807,2296850562,-2.519122124,-82.73888397,15.71704578,9.687531471,0.368631601,1.328685641,1.828606009,-0.282335222,4.640995979, 
808,2296867229,-2.877546787,-82.77243042,16.08446884,9.620788574,0.362588912,1.237337351,1.656719327,-0.966706574,4.973871231, 
809,2296883896,-3.317723989,-82.81078339,16.56851006,9.638010979,0.38773188,1.25258863,2.056558847,-1.321852207,5.693332195, 
810,2296900563,-3.857792854,-82.85565186,17.16177559,9.618919373,0.362731785,1.252928257,2.687912226,-1.779179931,6.451314449, 
811,2296917230,-4.543416977,-82.91146851,17.8936882,9.623746872,0.388178051,1.333585978,2.574551105,-2.562583447,7.392159939, 
812,2296933897,-5.356634617,-82.9781189,18.74845314,9.633982658,0.389465153,1.3139503,3.080260754,-3.370561361,8.196616173, 
813,2296950564,-6.32557869,-83.0613327,19.76169586,9.67373085,0.358272433,1.244467378,3.148339748,-4.562205791,9.104165077, 
814,2296967231,-7.422324181,-83.15200806,20.94411278,9.667198181,0.360063165,1.28033638,3.299275637,-5.221810341,9.926103592, 
815,2296983898,-8.678982735,-83.25192261,22.26674461,9.581788063,0.339385748,1.167322278,3.306563377,-6.078608513,10.66098499, 
816,2297000565,-10.10853481,-83.35417938,23.77009201,9.694917679,0.254237741,1.10632503,3.369135141,-6.584638596,11.55832672, 
817,2297017232,-11.64152813,-83.45213318,25.39028168,9.681414604,0.175025046,1.161576509,4.387010574,-6.707644463,12.05305099, 
818,2297033899,-13.31904507,-83.55025482,27.17235947,9.759716988,0.172268897,1.114674211,5.361869335,-7.178649426,12.74162292, 
819,2297050566,-15.03895187,-83.64334106,29.01439095,9.620741844,0.232603729,1.049213886,6.738503456,-7.268872738,12.79408169, 
820,2297067233,-16.9717865,-83.73903656,31.06671333,9.693811417,0.185312986,0.919903159,5.780407429,-8.053261757,13.60369778, 
821,2297083900,-18.98660851,-83.81359863,33.23743057,9.683679581,0.058917258,1.153093576,8.317670822,-7.432295322,14.24572372, 
822,2297100567,-21.17088509,-83.89189148,35.58561325,9.822715759,0.017521728,0.859421492,8.564090729,-8.394771576,14.74984646, 
823,2297117234,-23.50958633,-83.95091248,38.05296707,9.663899422,0.116617687,1.021813035,6.548086166,-8.051495552,15.34694195, 
824,2297133901,-25.99164391,-83.99752808,40.62231827,9.532969475,0.086236008,0.954464555,4.011785507,-8.112464905,15.72790241, 
825,2297150568,-28.62395096,-84.03353119,43.35555649,9.917879105,-0.129920855,0.702951372,4.763532639,-8.570321083,16.39954948, 
826,2297167235,-31.28825378,-84.04988098,46.13142776,10.15253544,-0.007198401,0.543911099,5.401379585,-8.281037331,16.69071579, 
827,2297183902,-33.84591675,-84.043396,48.78868103,9.968207359,-0.08394143,0.717111051,4.728404522,-7.369569302,16.35034561, 
828,2297200569,-36.34024429,-84.02968597,51.36679077,9.786753654,-0.261209667,0.544565856,3.779299021,-7.352754116,15.83170223, 
829,2297217236,-38.6545372,-83.99749756,53.78796387,9.724119186,-0.458209127,0.692410171,5.207143784,-6.479436874,15.39947128, 
830,2297233903,-40.84565735,-83.95409393,56.1120491,9.826136589,-0.321894407,0.899904132,6.796696186,-6.142976761,15.11918068, 
831,2297250570,-43.0950737,-83.90719604,58.48599625,9.74510479,-0.15853329,1.09301722,6.265295982,-6.757873535,15.28830147, 
832,2297267237,-45.58561325,-83.86573029,61.07109833,9.691630363,-0.212289259,1.023613572,4.373707294,-8.546104431,15.76245975, 
833,2297283904,-48.37076569,-83.83026123,63.93016052,9.641768456,-0.371876866,0.911013603,3.019062996,-10.76865101,16.30861473, 
834,2297300571,-51.38574219,-83.78186798,67.0009079,9.564705849,-0.319056541,0.865487337,1.841171622,-12.109478,17.24089432, 
835,2297317238,-54.68378448,-83.71035767,70.35579681,9.563569069,-0.275287181,0.757578015,1.777460575,-13.7134676,18.8338089, 
836,2297333905,-58.22294235,-83.61021423,73.90550232,9.701602936,-0.113025814,0.709415495,-1.114571095,-15.05879498,20.21344566, 
837,2297350572,-61.64948654,-83.47595978,77.28793335,9.707561493,-0.130439267,1.292844534,-4.386651993,-14.4837904,20.64102745, 
838,2297367239,-65.13723755,-83.33461761,80.72839355,9.509614944,-0.381766438,0.826954007,-4.668380737,-16.17479897,20.42783165, 
839,2297383906,-68.27577209,-83.17321014,83.87117004,9.733120918,-1.05432117,0.495385706,-1.522454143,-15.29262638,19.88413048, 
840,2297400573,-71.21600342,-83.00456238,86.80865479,9.86219883,-0.95296365,-0.237554401,-1.913893461,-15.16576385,19.06910324, 
841,2297417240,-73.68054962,-82.83675385,89.21594238,9.809351921,-0.731130362,-0.105612546,-5.008565426,-12.7018013,17.20473099, 
842,2297433907,-75.78849792,-82.68042755,91.29316711,9.930573463,-1.169623733,0.027672997,-3.313269377,-11.44456959,15.42712307, 
843,2297450574,-77.2051239,-82.55615997,92.72912598,9.691968918,-1.508699417,0.182910204,-0.033546258,-7.776335239,12.08137894, 
844,2297467241,-78.43016052,-82.49369049,93.95656586,9.935770988,-1.121359706,-0.291900039,-0.952965617,-7.326265812,7.931038857, 
845,2297483908,-79.16960907,-82.46932983,94.68582153,10.09055328,-1.198665142,0.062988743,-1.461953759,-4.080596447,4.792892456, 
846,2297500575,-79.8180542,-82.48438263,95.33149719,9.89321804,-1.179576039,-0.181928739,-0.976862073,-3.899540663,2.276124001, 
847,2297517242,-80.18048096,-82.53359985,95.72449493,9.915784836,-1.362649679,0.111329228,1.15725863,-2.284659147,-0.123126663, 
848,2297533909,-80.455513,-82.6245575,96.03302765,9.576511383,-1.090591669,-0.007153013,1.374057412,-2.019913673,-2.737953186, 
849,2297550576,-80.60864258,-82.74575043,96.19986725,9.77809906,-0.972425759,-0.131474838,0.258137554,-1.199154496,-4.725958824, 
850,2297567243,-80.56344604,-82.88683319,96.17071533,9.94635582,-1.010727644,-0.066454485,0.489151359,0.085123815,-6.149564743, 
851,2297583910,-80.27993774,-83.04238129,95.92079163,9.838075638,-1.04307282,0.168889046,1.635832191,1.513480306,-7.269774914, 
852,2297600577,-80.02249908,-83.21595001,95.69600677,9.693393707,-0.862001598,0.025747901,1.5626055,1.059623122,-8.302709579, 
853,2297617244,-79.64102936,-83.40489197,95.35968781,9.725916862,-0.931563199,0.231189817,2.346137047,1.56316936,-9.328668594, 
854,2297633911,-79.30119324,-83.60871124,95.09161377,9.754933357,-0.944823325,0.27006039,3.90370965,0.799961686,-10.12272453, 
855,2297650578,-78.91756439,-83.82486725,94.78957367,9.71808815,-0.884162903,0.25271979,4.491867542,0.741500795,-10.8766613, 
856,2297667245,-78.57894135,-84.05918121,94.53531647,9.629555702,-0.842148721,0.166823536,4.632865906,0.075813636,-11.86615849, 
857,2297683912,-78.12883759,-84.31390381,94.18717957,9.724379539,-0.687370479,0.395381242,5.71177721,0.223842353,-13.16331768, 
858,2297700579,-77.98139191,-84.57649994,94.18522644,9.708006859,-0.642806768,0.290017515,8.209402084,-2.019415855,-13.19046783, 
859,2297717246,-77.79696655,-84.84763336,94.17786407,9.992142677,-0.588306129,0.221979126,10.09763718,-2.145904779,-13.68996906, 
860,2297733913,-76.83287048,-85.14501953,93.50267792,10.05842018,-0.670951009,0.47050187,16.95238686,0.753296494,-15.9580555, 
861,2297750580,-75.55486298,-85.45240021,92.53853607,9.72134304,-0.516865671,-0.19059822,18.48971939,1.423518538,-16.8077507, 
862,2297767247,-74.46652222,-85.76242828,91.71716309,9.757441521,-0.46838361,0.138075471,15.60861015,0.053978857,-16.72415543, 
863,2297783914,-73.39452362,-86.07529449,90.91319275,9.840331078,-0.543278098,0.18651852,15.65612411,-0.682061017,-16.77269173, 
864,2297800581,-71.92504883,-86.40408325,89.72177887,9.752539635,-0.381462097,0.426270455,16.28782845,-0.184751183,-17.98255348, 
865,2297817248,-70.15189362,-86.74417877,88.2622757,9.752009392,-0.307226539,0.328553647,18.41475487,-0.475993961,-18.78549385, 
866,2297833915,-68.10559082,-87.10037994,86.53960419,9.822134018,-0.314701945,-0.008016631,19.00143242,-1.224808931,-19.7276516, 
867,2297850582,-64.77011108,-87.47625732,83.57644653,9.857932091,-0.502367973,0.076075509,21.97450256,-0.099640146,-21.80221367, 
868,2297867249,-59.32069397,-87.87119293,78.52355194,9.805862427,-0.27466473,-0.025924798,23.46506882,0.969367802,-24.4602623, 
869,2297883916,-50.31369019,-88.25012207,69.94772339,9.913243294,-0.065048687,-0.121491224,25.60317421,2.34480238,-26.35383224, 
870,2297900583,-34.84213257,-88.55436707,54.99908447,9.867997169,-0.056171369,0.025911832,31.13776016,4.742311001,-28.3961544, 
871,2297917250,-12.12891674,-88.69974518,32.84663391,9.893527031,-0.048342481,-0.071674079,33.44812775,5.968737125,-30.23181725, 
872,2297933917,13.26964664,-88.57728577,8.071910858,10.00217533,-0.197034746,-0.026457153,37.24282837,8.002592087,-32.9239769, 
873,2297950584,32.82183456,-88.19538879,-10.8938961,9.773139,0.267507523,0.170793861,35.03936005,9.494945526,-36.01405334, 
874,2297967251,45.66828918,-87.70041656,-23.16320038,9.633049965,0.553159237,0.349365711,34.49366379,7.386526108,-36.86170197, 
875,2297983918,54.8040657,-87.18068695,-31.7033062,9.571706772,0.699782729,0.342834681,35.65795517,3.491900682,-36.35218811, 
876,2298000585,61.72444916,-86.65052032,-37.9963913,9.616805077,0.774959683,0.454463542,37.57183456,0.587970614,-35.4961319, 
877,2298017252,67.80509186,-86.12071228,-43.44127655,9.532180786,0.993670702,0.665824771,38.18135834,-3.937292576,-35.30435181, 
878,2298033919,74.0160675,-85.62229919,-49.04795074,9.775954247,0.798929453,1.042292833,36.51137924,-11.9680233,-33.95584488, 
879,2298050586,80.75404358,-85.13458252,-55.21417236,9.539621353,1.148006916,1.562108755,34.89028168,-21.56426239,-32.83011246, 
880,2298067253,88.99031067,-84.6819458,-62.90306473,9.59077549,0.820872247,1.607118249,34.04686737,-37.21413803,-28.4505043, 
881,2298083920,98.47908783,-84.17539978,-71.9212265,10.13864136,0.17751731,1.78121376,30.18138123,-53.24105835,-24.61253548, 
882,2298100587,108.5414276,-83.57801056,-81.34815979,10.65888596,-1.141306996,1.391553402,40.75875092,-65.85875702,-18.45078278, 
883,2298117254,118.0642319,-82.89745331,-89.71192932,11.31327438,-3.753788233,1.623111606,72.49982452,-69.24557495,-11.84555054, 
884,2298133921,127.295372,-82.0394516,-96.87799072,10.26839447,-4.695040226,0.04539527,127.173645,-74.05631256,-10.67635155, 
885,2298150588,136.2376099,-81.00911713,-102.6549301,12.39667702,-4.026492119,-0.807865679,193.369339,-78.10531616,-9.923493385, 
886,2298167255,143.673111,-80.15380096,-105.7809067,12.95634842,-3.791610003,2.02304697,260.8671265,-57.88239288,-7.446699142, 
887,2298183922,153.4485168,-79.37480927,-110.0237503,10.83035469,-5.73751545,0.019793823,335.8857727,-62.30589294,16.23428535, 
888,2298200589,164.3494415,-78.56718445,-114.7280426,11.66570091,-5.414040565,-2.003216267,376.9890442,-63.46043015,34.87257004, 
889,2298217256,174.5061035,-77.92360687,-118.9828262,13.38211441,0.346749574,-0.535041153,359.5494385,-46.29354858,45.9005928, 
890,2298233923,-175.5447693,-77.56919098,-123.5586166,12.31854343,0.253747582,3.863382816,328.7370605,-20.59170914,59.91749191, 
891,2298250590,-166.2866058,-77.08833313,-127.7977753,10.40632248,0.255786479,3.106947184,307.5342102,-18.52700996,61.44580841, 
892,2298267257,-158.3968658,-76.71492004,-131.2711029,10.36247253,1.564528942,2.645307779,270.6982727,-5.919102192,53.56693268, 
893,2298283924,-151.7267456,-76.60119629,-134.2549286,9.980993271,3.004731178,3.312521696,226.3135681,12.28704739,42.11620331, 
894,2298300591,-146.1620636,-76.76979065,-137.0326233,9.280956268,3.941494942,3.2346313,172.044693,29.46902275,29.45161819, 
895,2298317258,-141.79599,-77.20393372,-139.5306091,8.954246521,4.237552643,2.688418865,116.3343506,41.8640213,13.79113007, 
896,2298333925,-138.1891937,-77.95475006,-141.8253326,8.735668182,2.337161064,2.511462212,82.37145233,54.45071411,-4.431783676, 
897,2298350592,-135.2583008,-79.02159119,-143.8587494,8.859077454,2.881507397,0.896026015,56.76665115,64.16001129,-24.28474998, 
898,2298367259,-132.1030121,-80.43336487,-146.3268585,9.28208828,2.598389149,-0.089024879,44.06106949,78.44078064,-41.11436081, 
899,2298383926,-127.6751175,-82.14270782,-149.9963074,9.588207245,1.377232194,-0.798442423,48.49301147,92.17488861,-55.34830475, 
900,2298400593,-120.2029266,-84.04264069,-156.4737396,10.23434734,0.995225906,-1.566879272,62.89892578,103.1535721,-66.38734436, 
901,2298417260,-104.114006,-85.96696472,-171.3191376,10.74988079,0.581699491,-1.596651196,78.26528168,115.6922073,-74.89749908, 
902,2298433927,-65.69634247,-87.21794128,151.7484131,11.14657688,0.40678516,-1.314975619,93.03160858,123.5181427,-80.41442871, 
903,2298450594,-17.26653481,-86.48810577,104.8766708,11.70102692,0.448635608,-1.229585886,97.5827713,130.4660797,-83.8620224, 
904,2298467261,5.242204189,-84.39846039,83.79017639,11.90793705,0.604787052,-1.442786694,89.35751343,133.9927979,-84.48412323, 
905,2298483928,14.73478222,-81.9729538,75.4720993,11.72307873,0.567899108,-2.125309467,74.12937927,133.6362762,-81.42848969, 
906,2298500595,19.47310829,-79.48712158,71.69802094,11.5267477,0.022020387,-2.830991983,60.94451523,132.7292328,-76.68127441, 
907,2298517262,22.44750404,-77.11643219,69.60516357,11.18082333,-0.602063835,-3.767517805,55.57236099,124.7164383,-72.64756775, 
908,2298533929,24.71301842,-75.02724457,68.17259979,10.98811913,-2.371618271,-4.99292469,52.4791069,107.6562805,-67.13426208, 
909,2298550596,26.46075058,-73.31460571,67.4067688,10.43163872,-4.781468391,-5.98300457,60.50121689,88.36449432,-53.76934052, 
910,2298567263,27.4743824,-71.9943924,67.29524231,9.624452591,-4.458316803,-6.230212688,54.13759995,70.83946991,-35.86403275, 
911,2298583930,27.95655251,-71.14603424,67.75579071,8.012517929,-3.550974846,-5.67325592,54.70532608,50.31820297,-14.18650723, 
912,2298600597,27.81303596,-70.91744995,68.51822662,7.672289848,-4.118690014,-5.666538715,34.07362366,20.31068611,8.41226387, 
913,2298617264,27.33921814,-71.31074524,69.59014893,7.947446823,-4.423061371,-5.910586834,31.71068382,-9.999464035,30.99098587, 
914,2298633931,26.3056488,-72.20088959,71.11538696,8.440078735,-4.166990757,-6.345491409,24.05183601,-33.39235306,51.21725845, 
915,2298650598,24.76099396,-73.4185791,73.06735229,9.034017563,-3.224070787,-5.533873081,18.19809723,-49.59872437,64.21989441, 
916,2298667265,23.38594627,-74.5343399,75.02513123,11.22336483,0.509390533,-1.563699841,29.25465012,-46.4190979,58.3706131, 
917,2298683932,22.83812523,-74.65633392,75.49758911,12.65908241,11.91364574,6.303442955,-6.780210018,-2.277444124,11.25305557, 
918,2298700599,23.44165039,-74.05113983,76.1417923,8.27759552,16.33231163,13.37613583,72.23284912,38.94787216,-3.162821054, 
919,2298717266,23.58257675,-74.69984436,75.86580658,9.220240593,0.454489678,-0.728315234,-8.490643501,-36.09661865,13.09453106, 
920,2298733933,22.58753395,-76.55576324,78.0403595,18.86944389,-9.829117775,-11.25160313,65.63658142,-88.32162476,75.10975647, 
921,2298750600,18.86848831,-76.69106293,81.49739838,17.0749836,-1.308591962,-1.967728615,-22.70060158,10.92168713,49.30075455, 
922,2298767267,16.0450573,-76.93773651,84.88632965,6.911394596,1.856908321,4.744429111,27.11621475,1.386924505,50.19563293, 
923,2298783934,13.53624439,-77.67089844,87.38336182,6.212232113,-0.910104632,4.730769634,-5.754851341,-32.53768921,44.60695267, 
924,2298800601,11.7858057,-78.25491333,89.27005005,8.465601921,-0.266088456,-0.291079342,4.378409386,-27.43931198,32.27429581, 
925,2298817268,10.20451927,-78.61429596,90.60842133,10.19412136,0.036841154,-0.911443114,-17.5420742,-16.49557304,21.48306847, 
926,2298833935,8.662461281,-78.79389954,92.01844025,10.94121742,1.097105742,-0.18476519,-10.95919609,-6.296151638,19.67962646, 
927,2298850602,6.941280365,-78.9391098,93.86951447,10.89963245,0.844458222,0.685078681,4.257844925,-4.080688477,23.99897766, 
928,2298867269,5.361223698,-79.05380249,95.62572479,10.11514568,-0.317724675,1.498867631,7.163609982,-3.033266306,22.30606079, 
929,2298883936,4.112462997,-79.23538971,96.92189026,9.391256332,-0.394069314,2.148999453,-0.014291904,-7.982169628,17.06919098, 
930,2298900603,3.092329264,-79.49221039,97.81523132,9.596040726,0.33448267,1.89995122,-9.985830307,-13.10137749,12.41953373, 
931,2298917270,2.08143425,-79.78850555,98.62725067,10.04753685,0.750990808,1.127795696,-14.17507076,-15.70069408,11.14626598, 
932,2298933937,1.078653216,-80.07790375,99.53153229,9.91277504,0.218676686,0.586655796,-8.207845688,-15.4330349,11.56477356, 
933,2298950604,0.181152001,-80.35262299,100.3569183,9.798516273,-0.066717662,0.549677432,-6.524600029,-14.71183872,10.21263504, 
934,2298967271,-0.575352013,-80.61527252,101.0350037,9.443984985,0.180883855,1.160990834,-6.769135952,-14.10376167,8.293611526, 
935,2298983938,-1.375050664,-80.84324646,101.6090393,9.474557877,0.501341522,1.213963747,-15.49560642,-12.09183788,6.948281288, 
936,2299000605,-2.202342033,-81.06620789,102.2023087,9.470982552,0.207807913,0.909333289,-15.99196625,-11.86172009,6.823559761, 
937,2299017272,-2.899571896,-81.25341034,102.7438202,9.788419724,-0.132763326,0.473641574,-11.24827385,-9.763480186,6.144228935, 
938,2299033939,-3.346428871,-81.36198425,103.1403122,9.859210014,0.301913232,0.622453213,-4.830670834,-5.010869503,4.897885799, 
939,2299050606,-3.927646637,-81.46530914,103.6761017,9.879010201,0.323311985,0.794392943,-4.636924267,-4.799718857,6.064455032, 
