PacketCounter,SampleTimeFine,Euler_X,Euler_Y,Euler_Z,Acc_X,Acc_Y,Acc_Z,Gyr_X,Gyr_Y,Gyr_Z,Velo_X,Velo_Y,Velo_Z,ANG_X,ANG_Y,ANG_Z
0,488271656,-68.15639496,74.90955353,-127.3750687,0.0,0.0,0.0,0.0,0.0,0.0,0.0,0.0,0.0,0.0,0.0,0.0
1,488288323,-67.73899078,74.88005829,-126.9721375,-9.358736992,-2.344453096,1.00513339,0.300366521,-2.111971855,1.416593552,-0.155979,-0.039074,0.016752,0.005006,-0.0352,0.02361
2,488304990,-67.34276581,74.85328674,-126.5546265,-9.366325378,-2.355592489,1.027114272,0.091226026,-2.076562405,1.272611737,-0.312084,-0.078334,0.033871,0.006526,-0.069809,0.04482
3,488321657,-66.98756409,74.82553864,-126.1784973,-9.358433723,-2.389789581,1.025468588,0.030395873,-2.169114113,1.234205604,-0.468058,-0.118164,0.050962,0.007033,-0.105961,0.06539
4,488338324,-66.71984863,74.79202271,-125.890686,-9.353351593,-2.419284821,1.014021516,0.07895755,-2.087204695,1.280795217,-0.623947,-0.158485,0.067862,0.008349,-0.140748,0.086737
5,488354991,-66.52139282,74.75844574,-125.651001,-9.394054413,-2.428047895,1.016523242,0.003963565,-2.193535566,1.540021181,-0.780515,-0.198952,0.084804,0.008415,-0.177307,0.112404
6,488371658,-66.36468506,74.72939301,-125.4708099,-9.389842033,-2.382605791,1.009596705,0.031228285,-2.163248777,1.600582361,-0.937012,-0.238662,0.101631,0.008935,-0.213361,0.13908
7,488388325,-66.22653198,74.71167755,-125.3117599,-9.367481232,-2.380130053,1.008126616,0.015604538,-2.127992868,1.561279893,-1.093137,-0.278331,0.118433,0.009195,-0.248828,0.165101
8,488404992,-66.08950043,74.69953156,-125.1485367,-9.369882584,-2.386149406,0.996502817,0.014375127,-2.289455175,1.550688863,-1.249302,-0.3181,0.135041,0.009435,-0.286986,0.190946
9,488421659,-65.95085907,74.68993378,-124.9866333,-9.394804001,-2.379854918,1.026311636,0.05471513,-2.514962435,1.523590684,-1.405882,-0.357764,0.152146,0.010347,-0.328902,0.216339
10,488438326,-65.80438232,74.68225861,-124.8203049,-9.428011894,-2.369189739,1.031693935,0.182151094,-2.590750217,1.470674753,-1.563016,-0.39725,0.169341,0.013383,-0.372081,0.24085
11,488454993,-65.65618134,74.67501831,-124.6602325,-9.411067963,-2.356234312,1.000506401,0.275599062,-2.613238335,1.294062495,-1.719867,-0.436521,0.186016,0.017976,-0.415635,0.262418
12,488471660,-65.50964355,74.66913605,-124.5033112,-9.384811401,-2.381314039,1.004894376,0.279043972,-2.69197154,1.205583215,-1.876281,-0.47621,0.202764,0.022627,-0.460501,0.282511
13,488488327,-65.35591888,74.66575623,-124.3383102,-9.358493805,-2.406199932,1.017117381,0.401600748,-2.786559582,1.357479572,-2.032256,-0.516313,0.219716,0.02932,-0.506944,0.305136
14,488504994,-65.19881439,74.66291809,-124.1652603,-9.348877907,-2.409520864,1.004120946,0.264355093,-2.879443884,1.497606635,-2.188071,-0.556472,0.236451,0.033726,-0.554935,0.330096
15,488521661,-65.06053162,74.65930939,-124.0089035,-9.333090782,-2.388303041,1.035263896,-0.098685741,-2.756835699,1.428337097,-2.343623,-0.596277,0.253705,0.032081,-0.600882,0.353902
16,488538328,-64.93477631,74.65483093,-123.8639679,-9.338697433,-2.382797241,1.043326139,-0.196308568,-2.58442378,1.305908442,-2.499268,-0.63599,0.271094,0.028809,-0.643956,0.375667
17,488554995,-64.82041168,74.65164948,-123.731514,-9.341479301,-2.375664234,1.055392981,-0.122518361,-2.331473112,1.274123192,-2.654959,-0.675584,0.288684,0.026767,-0.682814,0.396902
18,488571662,-64.69974518,74.65036774,-123.5941696,-9.344842911,-2.362119675,1.025813818,-0.157787025,-2.345201492,1.398165226,-2.810706,-0.714953,0.305781,0.024137,-0.721901,0.420205
19,488588329,-64.58116913,74.64996338,-123.4584274,-9.341418266,-2.371127605,1.042204499,-0.062584639,-2.284166098,1.37859714,-2.966396,-0.754472,0.323151,0.023094,-0.75997,0.443182
20,488604996,-64.4551239,74.65109253,-123.3192444,-9.3702631,-2.394533396,1.053344488,0.108540215,-2.303785563,1.474017262,-3.122567,-0.794381,0.340707,0.024903,-0.798366,0.467749
21,488621663,-64.32019043,74.65325928,-123.1781158,-9.38272953,-2.407371283,1.058534503,0.273883015,-2.352923632,1.578478694,-3.278946,-0.834504,0.358349,0.029468,-0.837581,0.494057
22,488638330,-64.16658783,74.65346527,-123.0174026,-9.404033661,-2.41566658,1.024612665,0.253700197,-2.674926758,1.61897254,-3.43568,-0.874765,0.375426,0.033696,-0.882163,0.52104
23,488654997,-64.01322937,74.652565,-122.8507614,-9.388279915,-2.406823397,1.057460666,0.217804015,-2.734603882,1.580015302,-3.592151,-0.914879,0.39305,0.037326,-0.92774,0.547374
24,488671664,-63.86240768,74.65275574,-122.6866989,-9.380799294,-2.411598682,1.045701146,0.193228632,-2.667242765,1.630177975,-3.748498,-0.955072,0.410478,0.040546,-0.972194,0.574544
25,488688331,-63.7169075,74.65168762,-122.532814,-9.364138603,-2.401802778,1.07487464,0.142528296,-2.639132738,1.540508151,-3.904567,-0.995102,0.428393,0.042921,-1.01618,0.600219
26,488704998,-63.56853867,74.65090942,-122.370842,-9.358183861,-2.407682896,1.078358412,0.212553442,-2.639555454,1.575879097,-4.060537,-1.03523,0.446366,0.046464,-1.060173,0.626484
27,488721665,-63.41874313,74.65113831,-122.2073441,-9.360198021,-2.427978754,1.062798738,0.23395279,-2.611790895,1.647773862,-4.21654,-1.075696,0.464079,0.050363,-1.103703,0.653947
28,488738332,-63.26871109,74.65345001,-122.0482712,-9.342432976,-2.426264286,1.064993024,0.288174897,-2.546491861,1.772584558,-4.372247,-1.116134,0.481829,0.055166,-1.146145,0.68349
29,488754999,-63.12514877,74.65692902,-121.8908844,-9.323005676,-2.428736448,1.108287096,0.200080022,-2.438495874,1.81937933,-4.52763,-1.156613,0.5003,0.058501,-1.186787,0.713813
30,488771666,-62.98806763,74.66111755,-121.7411575,-9.321593285,-2.438715219,1.08699286,0.045404915,-2.333304167,1.847271204,-4.68299,-1.197258,0.518417,0.059258,-1.225675,0.744601
31,488788333,-62.86727524,74.66845703,-121.6070251,-9.328180313,-2.420314074,1.107147455,-0.019363202,-2.013107061,1.924813509,-4.83846,-1.237597,0.536869,0.058935,-1.259227,0.776681
32,488805000,-62.75846863,74.67713928,-121.4752426,-9.343431473,-2.427925348,1.124311924,-0.158004731,-1.82024312,1.928796172,-4.994184,-1.278062,0.555608,0.056302,-1.289564,0.808828
33,488821667,-62.65814972,74.68972015,-121.3607407,-9.366110802,-2.414762497,1.094640732,-0.08687827,-1.547736883,2.072816372,-5.150286,-1.318308,0.573852,0.054854,-1.31536,0.843375
34,488838334,-62.56009293,74.70303345,-121.2422256,-9.366709709,-2.410897255,1.115211248,-0.108303294,-1.495102763,2.095995903,-5.306398,-1.35849,0.592439,0.053049,-1.340278,0.878308
35,488855001,-62.46916962,74.71755981,-121.1370239,-9.371879578,-2.413863897,1.101416945,-0.12003392,-1.347471476,2.105050325,-5.462596,-1.398721,0.610796,0.051048,-1.362736,0.913392
36,488871668,-62.3852272,74.73298645,-121.0329742,-9.371753693,-2.402485609,1.113166451,-0.047639623,-1.198930502,2.089260101,-5.618792,-1.438762,0.629349,0.050254,-1.382718,0.948213
37,488888335,-62.30085373,74.74874115,-120.9300003,-9.367690086,-2.388628483,1.131803751,-0.043221433,-1.185048461,2.10232234,-5.77492,-1.478572,0.648212,0.049534,-1.402469,0.983252
38,488905002,-62.22116089,74.76554871,-120.8300095,-9.361791611,-2.386705875,1.090742707,-0.112555012,-1.089282393,2.122850895,-5.93095,-1.51835,0.666391,0.047658,-1.420624,1.018633
39,488921669,-62.14151382,74.78523254,-120.734169,-9.355545044,-2.38031435,1.061152339,-0.169645727,-1.020614862,2.278499603,-6.086876,-1.558022,0.684077,0.044831,-1.437634,1.056608
40,488938336,-62.0687294,74.80605316,-120.64431,-9.343959808,-2.386161804,1.07528162,-0.102796569,-0.881115317,2.268497705,-6.242609,-1.597791,0.701998,0.043118,-1.452319,1.094416
41,488955003,-61.99489594,74.82785797,-120.5557327,-9.323477745,-2.394288301,1.047671437,-0.057615768,-0.860266507,2.319530964,-6.398,-1.637696,0.719459,0.042158,-1.466657,1.133075
42,488971670,-61.93334198,74.85089874,-120.4805374,-9.337569237,-2.403960228,1.068475604,0.048388794,-0.631903768,2.279396057,-6.553626,-1.677762,0.737267,0.042964,-1.477189,1.171065
43,488988337,-61.88963699,74.87687683,-120.4239655,-9.343654633,-2.412120819,1.080912948,0.078663006,-0.288770407,2.298426151,-6.709354,-1.717964,0.755282,0.044275,-1.482002,1.209372
44,489005004,-61.85573578,74.9019165,-120.3768845,-9.353414536,-2.410006285,1.07903266,-0.001293441,-0.193683252,2.188009739,-6.865244,-1.758131,0.773266,0.044253,-1.48523,1.245839
45,489021671,-61.82051468,74.92611694,-120.3288116,-9.364836693,-2.416615248,1.094555736,-0.067041241,-0.251145333,2.166021109,-7.021325,-1.798408,0.791509,0.043136,-1.489416,1.281939
46,489038338,-61.78799438,74.95053864,-120.2836761,-9.366353035,-2.406166553,1.088723779,-0.100952461,-0.209742412,2.166456699,-7.177431,-1.838511,0.809654,0.041453,-1.492912,1.318047
47,489055005,-61.76144791,74.97805023,-120.2442627,-9.352728844,-2.409062624,1.087681055,0.013645167,-0.007811874,2.26967597,-7.33331,-1.878662,0.827782,0.04168,-1.493042,1.355875
48,489071672,-61.75225449,75.00707245,-120.2211533,-9.356446266,-2.395529509,1.103804469,-0.155622765,0.244325951,2.246509552,-7.489251,-1.918587,0.846179,0.039086,-1.48897,1.393317
49,489088339,-61.75566864,75.03910828,-120.2094345,-9.351892471,-2.393574238,1.064985633,-0.216837123,0.500107229,2.321003675,-7.645116,-1.95848,0.863929,0.035472,-1.480635,1.432
50,489105006,-61.76626205,75.07230377,-120.2085876,-9.359932899,-2.405536175,1.053431988,-0.082857095,0.663055241,2.308389664,-7.801115,-1.998572,0.881486,0.034091,-1.469584,1.470473
51,489121673,-61.78001785,75.10434723,-120.216095,-9.398900032,-2.407320738,1.042448759,0.083657488,0.709093988,2.210997105,-7.957763,-2.038694,0.89886,0.035485,-1.457766,1.507323
52,489138340,-61.79145813,75.13560486,-120.218338,-9.425649643,-2.401400805,1.032150745,0.071875647,0.646112382,2.193977594,-8.114857,-2.078717,0.916063,0.036683,-1.446997,1.543889
53,489155007,-61.77706909,75.1614151,-120.1936569,-9.413226128,-2.34674859,1.053707838,0.159125313,0.140645742,2.088145971,-8.271744,-2.117829,0.933625,0.039335,-1.444653,1.578691
54,489171674,-61.75043488,75.18572998,-120.1594467,-9.394150734,-2.358025074,1.085225105,0.328514934,-0.034820464,2.073649168,-8.428313,-2.157129,0.951712,0.04481,-1.445233,1.613252
55,489188341,-61.72172165,75.20998383,-120.1261826,-9.378834724,-2.374815226,1.051252365,0.344753355,-0.054747149,2.084098816,-8.584627,-2.196709,0.969233,0.050556,-1.446145,1.647987
56,489205008,-61.70215988,75.23638916,-120.0989761,-9.352667809,-2.397461653,1.0204494,0.230840862,0.108527422,2.1445961,-8.740505,-2.236667,0.98624,0.054403,-1.444336,1.68373
57,489221675,-61.70231628,75.26181793,-120.0884857,-9.357374191,-2.381181717,1.029179335,0.074987583,0.312468499,1.9662292,-8.896461,-2.276353,1.003393,0.055653,-1.439128,1.7165
58,489238342,-61.71651077,75.28907776,-120.0895996,-9.350705147,-2.391853571,1.007716417,-0.133045167,0.508431256,1.991867542,-9.052306,-2.316217,1.020188,0.053436,-1.430654,1.749698
59,489255009,-61.73163223,75.31684875,-120.0895615,-9.332335472,-2.373396158,1.014849305,-0.106113404,0.534236073,2.013625622,-9.207845,-2.355774,1.037102,0.051667,-1.42175,1.783258
60,489271676,-61.73191452,75.34496307,-120.0754623,-9.367635727,-2.374281168,0.990725577,-0.13953799,0.328284383,2.156877518,-9.363972,-2.395345,1.053614,0.049341,-1.416279,1.819206
61,489288343,-61.72072601,75.37453461,-120.0468903,-9.363419533,-2.358974218,0.994263172,-0.430357426,0.135664076,2.35189271,-9.520029,-2.434661,1.070185,0.042168,-1.414018,1.858404
62,489305010,-61.71393585,75.40550995,-120.0166321,-9.389256477,-2.364845514,0.99414891,-0.569395959,0.200374559,2.416846514,-9.676517,-2.474075,1.086754,0.032678,-1.410678,1.898685
63,489321677,-61.70750809,75.43575287,-119.988121,-9.413292885,-2.355736732,0.978244483,-0.52844125,0.18815729,2.369590998,-9.833405,-2.513337,1.103058,0.023871,-1.407542,1.938178
64,489338344,-61.69585037,75.46309662,-119.9550476,-9.405779839,-2.356038094,0.95350045,-0.547548294,0.022852933,2.26252985,-9.990168,-2.552604,1.11895,0.014745,-1.407161,1.975887
65,489355011,-61.67496872,75.48993683,-119.9176712,-9.407758713,-2.372695446,0.969788373,-0.258841962,-0.062712699,2.264476538,-10.146964,-2.592149,1.135113,0.010431,-1.408206,2.013628
66,489371678,-61.66079712,75.51695251,-119.8862534,-9.415060043,-2.360874176,0.952386498,-0.324961156,0.013901292,2.242411137,-10.303882,-2.631497,1.150986,0.005015,-1.407974,2.051002
67,489388345,-61.64636612,75.54249573,-119.8538971,-9.386229515,-2.366791248,0.931269884,-0.294879019,-0.033424571,2.166610241,-10.460319,-2.670944,1.166507,0.0001,-1.408531,2.087112
68,489405012,-61.62602997,75.56608582,-119.8168182,-9.379846573,-2.386777163,0.988828599,-0.227696925,-0.164254248,2.103436708,-10.61665,-2.710724,1.182987,-0.003695,-1.411269,2.122169
69,489421679,-61.60279465,75.59004974,-119.7807999,-9.386946678,-2.379971027,0.980154097,-0.091975212,-0.164420739,2.137719154,-10.773099,-2.75039,1.199323,-0.005228,-1.414009,2.157798
70,489438346,-61.57423019,75.61553192,-119.7393265,-9.374926567,-2.388634682,0.998570085,-0.051494334,-0.187344104,2.256062746,-10.929348,-2.790201,1.215966,-0.006086,-1.417131,2.195399
71,489455013,-61.55369949,75.64291382,-119.7039719,-9.36995697,-2.393870831,0.983967066,-0.153612167,-0.048382394,2.322207451,-11.085514,-2.830099,1.232365,-0.008646,-1.417937,2.234102
72,489471680,-61.54759979,75.66882324,-119.6818695,-9.359937668,-2.386901855,0.965182066,-0.249909535,0.080615975,2.15871501,-11.241513,-2.869881,1.248451,-0.012811,-1.416593,2.270081
73,489488347,-61.53753281,75.69287109,-119.6557922,-9.385633469,-2.395572901,0.940836251,-0.190532863,-0.019004622,2.091513634,-11.39794,-2.909807,1.264132,-0.015987,-1.41691,2.30494
74,489505014,-61.52472687,75.71718597,-119.6307373,-9.398628235,-2.373873949,0.963096976,-0.138884872,-0.043067753,2.131008863,-11.554584,-2.949372,1.280184,-0.018302,-1.417628,2.340457
75,489521681,-61.49425507,75.73838043,-119.5833359,-9.398147583,-2.364622355,0.958896935,-0.276245803,-0.404975206,2.120546103,-11.71122,-2.988782,1.296166,-0.022906,-1.424378,2.375799
76,489538348,-61.45340347,75.76039886,-119.5236664,-9.393740654,-2.368620396,0.957137525,-0.258982807,-0.519335926,2.247405529,-11.867782,-3.028259,1.312118,-0.027222,-1.433034,2.413256
77,489555015,-61.41421509,75.78076172,-119.4673996,-9.408194542,-2.353600502,0.936869144,-0.207437262,-0.537674606,2.147528887,-12.024585,-3.067486,1.327732,-0.030679,-1.441995,2.449048
78,489571682,-61.37061691,75.79880524,-119.4076462,-9.413226128,-2.348437786,0.895254016,-0.198370367,-0.667415738,2.06131649,-12.181472,-3.106627,1.342653,-0.033985,-1.453119,2.483403
79,489588349,-61.31203461,75.81643677,-119.3302536,-9.418931961,-2.331183434,0.885572076,-0.261223912,-0.902156174,2.167916298,-12.338454,-3.14548,1.357413,-0.038339,-1.468155,2.519535
80,489605016,-61.24132156,75.83286285,-119.242363,-9.422355652,-2.33545804,0.889944613,-0.176753253,-1.090217471,2.183117867,-12.495493,-3.184404,1.372245,-0.041285,-1.486325,2.55592
81,489621683,-61.15914154,75.84426117,-119.1442337,-9.402742386,-2.316916943,0.891764104,-0.057961538,-1.370894074,1.996106625,-12.652205,-3.223019,1.387108,-0.042251,-1.509173,2.589188
82,489638350,-61.06557846,75.85366058,-119.036644,-9.413692474,-2.340527534,0.913279235,0.068315476,-1.560773969,1.9639498,-12.8091,-3.262028,1.402329,-0.041112,-1.535186,2.62192
83,489655017,-60.96483612,75.86005402,-118.9246063,-9.396510124,-2.349332094,0.935185373,0.23449707,-1.711466074,1.851682901,-12.965709,-3.301184,1.417915,-0.037204,-1.56371,2.652781
84,489671684,-60.85751724,75.86470032,-118.8023071,-9.395934105,-2.359189749,0.946372807,0.09309575,-1.887655735,1.834887266,-13.122308,-3.340504,1.433688,-0.035652,-1.595171,2.683362
85,489688351,-60.74953461,75.86733246,-118.6777649,-9.392757416,-2.367321968,0.948775351,-0.017775213,-1.98417747,1.760290623,-13.278854,-3.379959,1.449501,-0.035948,-1.628241,2.7127
86,489705018,-60.64803696,75.87132263,-118.5601425,-9.387154579,-2.371826887,0.965841711,-0.036459681,-1.867319345,1.798325419,-13.435307,-3.419489,1.465598,-0.036556,-1.659363,2.742672
87,489721685,-60.56212616,75.87545776,-118.4602051,-9.391366959,-2.379864931,0.936691046,-0.058268897,-1.665888429,1.710185647,-13.59183,-3.459153,1.48121,-0.037527,-1.687128,2.771175
88,489738352,-60.47506332,75.87978363,-118.3550644,-9.388958931,-2.365389347,0.908024907,-0.19486782,-1.714161992,1.755789042,-13.748313,-3.498576,1.496344,-0.040775,-1.715697,2.800438
89,489755019,-60.39282608,75.88201141,-118.2548752,-9.389048576,-2.35243845,0.920064867,-0.179084003,-1.719457507,1.622724652,-13.904797,-3.537783,1.511678,-0.04376,-1.744355,2.827483
90,489771686,-60.31871414,75.88508606,-118.1662369,-9.376976967,-2.350238085,0.954576433,0.02647713,-1.55087471,1.59485817,-14.06108,-3.576954,1.527588,-0.043319,-1.770203,2.854064
91,489788353,-60.25267792,75.88977051,-118.0884705,-9.393954277,-2.368350983,0.969722152,0.192133665,-1.368192077,1.609425187,-14.217646,-3.616427,1.54375,-0.040117,-1.793006,2.880888
92,489805020,-60.18001938,75.8939743,-118.0030212,-9.414031029,-2.374961853,0.932063818,0.177598462,-1.478525043,1.646550894,-14.374547,-3.65601,1.559284,-0.037157,-1.817648,2.908331
93,489821687,-60.08587265,75.89675903,-117.8911972,-9.446697235,-2.387345314,0.944594264,-0.061380837,-1.860993266,1.781715631,-14.531992,-3.695799,1.575027,-0.03818,-1.848665,2.938026
94,489838354,-59.98364258,75.89784241,-117.7709427,-9.430878639,-2.343255997,0.967438877,-0.117152497,-2.039923429,1.771188736,-14.689173,-3.734853,1.591151,-0.040133,-1.882664,2.967546
95,489855021,-59.87980652,75.89772034,-117.6509247,-9.444767952,-2.33862114,0.987330258,0.117568687,-2.051128864,1.706427097,-14.846586,-3.77383,1.607607,-0.038174,-1.916849,2.995986
96,489871688,-59.7809906,75.8968277,-117.5356827,-9.410098076,-2.366081715,0.949667156,0.051551957,-2.028026104,1.647786617,-15.003421,-3.813265,1.623435,-0.037315,-1.950649,3.023449
97,489888355,-59.67770004,75.89240265,-117.4166336,-9.374722481,-2.339939117,0.975176752,0.083126001,-2.194528103,1.5127244,-15.159666,-3.852264,1.639688,-0.03593,-1.987224,3.048661
98,489905022,-59.5871582,75.88661957,-117.3132095,-9.359789848,-2.361758709,0.936308205,0.157466874,-2.062898159,1.344116092,-15.315662,-3.891627,1.655293,-0.033306,-2.021606,3.071063
99,489921689,-59.49203491,75.88066101,-117.2042999,-9.361950874,-2.348436832,0.930759668,0.186761394,-2.130156994,1.387869,-15.471695,-3.930768,1.670806,-0.030193,-2.057109,3.094194
100,489938356,-59.38488388,75.87524414,-117.0788803,-9.365064621,-2.352844,0.948370218,0.050924454,-2.311751127,1.540520668,-15.627779,-3.969982,1.686612,-0.029344,-2.095638,3.119869
101,489955023,-59.26792908,75.8698349,-116.9425507,-9.388890266,-2.372797489,0.954967856,-0.103641793,-2.484572887,1.644393086,-15.784261,-4.009529,1.702528,-0.031071,-2.137048,3.147276
102,489971690,-59.14244461,75.86289978,-116.7928772,-9.408685684,-2.365345001,0.955385089,-0.308965951,-2.695288181,1.682081938,-15.941072,-4.048951,1.718451,-0.03622,-2.181969,3.175311
103,489988357,-59.00889587,75.85523987,-116.6349487,-9.420264244,-2.363673925,0.963373244,-0.292151272,-2.827040195,1.726878524,-16.098076,-4.088346,1.734507,-0.041089,-2.229086,3.204092
104,490005024,-58.86438751,75.84426117,-116.4670639,-9.420872688,-2.345330477,0.989641309,-0.326549172,-3.091786146,1.660324097,-16.255091,-4.127435,1.751001,-0.046531,-2.280616,3.231764
105,490021691,-58.72441101,75.83197021,-116.3044662,-9.41054821,-2.349816799,0.97737062,-0.325537384,-3.081988811,1.577518106,-16.411933,-4.166599,1.767291,-0.051957,-2.331982,3.258056
106,490038358,-58.57608032,75.81716156,-116.134552,-9.410391808,-2.367839098,0.95898062,-0.166123971,-3.245769501,1.509350061,-16.568773,-4.206063,1.783274,-0.054726,-2.386078,3.283212
107,490055025,-58.42247391,75.79875946,-115.9607697,-9.397715569,-2.380161285,0.966770113,-0.024658626,-3.409901857,1.374236584,-16.725402,-4.245732,1.799387,-0.055137,-2.44291,3.306116
108,490071692,-58.26137161,75.7776947,-115.7788696,-9.386024475,-2.361582518,0.970371187,-0.064582437,-3.613786221,1.325911999,-16.881836,-4.285092,1.81556,-0.056213,-2.50314,3.328215
109,490088359,-58.07472229,75.75510406,-115.5733566,-9.364898682,-2.359976768,1.000752926,0.114764109,-3.968636751,1.455486536,-17.037918,-4.324425,1.832239,-0.0543,-2.569284,3.352473
110,490105026,-57.87114334,75.72921753,-115.3497238,-9.356451988,-2.365656614,1.023586988,0.080443092,-4.315433025,1.451363087,-17.193859,-4.363853,1.849299,-0.052959,-2.641208,3.376662
111,490121693,-57.65851974,75.69985962,-115.1135254,-9.378472328,-2.377892017,1.067659378,-0.120392516,-4.599772453,1.405388117,-17.350167,-4.403485,1.867093,-0.054966,-2.717871,3.400085
112,490138360,-57.43809509,75.66802979,-114.8715744,-9.444972992,-2.411340475,1.035102963,0.019817825,-4.75914669,1.367532492,-17.507583,-4.443674,1.884345,-0.054636,-2.79719,3.422877
113,490155027,-57.19932938,75.63111877,-114.60952,-9.458677292,-2.411394596,1.025739908,0.022968194,-5.180118561,1.290400147,-17.665228,-4.483864,1.901441,-0.054253,-2.883525,3.444384
114,490171694,-56.93516159,75.58766174,-114.3185272,-9.399903297,-2.375737906,1.023265362,-0.091808729,-5.766456604,1.232732892,-17.821893,-4.52346,1.918495,-0.055783,-2.979633,3.46493
115,490188361,-56.64616394,75.53881836,-113.9972458,-9.366707802,-2.350578308,1.033278823,-0.401146114,-6.353358269,1.267438054,-17.978005,-4.562636,1.935716,-0.062469,-3.085522,3.486054
116,490205028,-56.31617355,75.48200226,-113.6364059,-9.371379852,-2.3551898,1.037879348,-0.255179346,-7.146456242,1.242901087,-18.134195,-4.601889,1.953014,-0.066722,-3.20463,3.506769
117,490221695,-55.98783493,75.42098999,-113.2765656,-9.388361931,-2.373834848,1.064958572,-0.346693575,-7.315219879,1.098919511,-18.290668,-4.641453,1.970763,-0.0725,-3.32655,3.525084
118,490238362,-55.66820908,75.35895538,-112.9266129,-9.422485352,-2.377129793,1.018851161,-0.300232053,-7.258677959,1.029700994,-18.447709,-4.681072,1.987744,-0.077504,-3.447528,3.542246
119,490255029,-55.31752014,75.28184509,-112.5493927,-9.435238838,-2.360258818,1.057281375,-0.016212841,-8.156365395,0.579557836,-18.604963,-4.72041,2.005365,-0.077774,-3.583467,3.551905
120,490271696,-54.92274094,75.18874359,-112.129982,-9.423289299,-2.395460606,1.093487024,0.223528489,-9.271069527,0.236373261,-18.762018,-4.760334,2.02359,-0.074049,-3.737985,3.555845
121,490288363,-54.50167084,75.09009552,-111.6848221,-9.434205055,-2.409412622,1.093276978,0.286817461,-9.847073555,0.297766894,-18.919255,-4.800491,2.041811,-0.069269,-3.902103,3.560808
122,490305030,-54.06221008,74.99013519,-111.2197571,-9.412960052,-2.405903101,1.040771365,0.388346225,-10.17576218,0.497328341,-19.076138,-4.840589,2.059157,-0.062797,-4.071699,3.569097
123,490321697,-53.62023163,74.88880157,-110.7569122,-9.375354767,-2.417423487,1.127900839,0.662415087,-10.26302433,0.528832018,-19.232394,-4.880879,2.077955,-0.051757,-4.242749,3.577911
124,490338364,-53.16807175,74.78027344,-110.2883072,-9.358422279,-2.422260046,1.185268164,0.908835113,-10.66632366,0.357572675,-19.388368,-4.92125,2.097709,-0.03661,-4.420521,3.583871
125,490355031,-52.6659584,74.65673828,-109.7872925,-9.360895157,-2.454492331,1.268722177,2.073355675,-11.67462063,0.076895766,-19.544383,-4.962158,2.118854,-0.002054,-4.615098,3.585153
126,490371698,-52.18086624,74.53148651,-109.3190994,-9.402537346,-2.454648495,1.248737216,2.97563982,-11.39117622,-0.176574022,-19.701092,-5.003069,2.139666,0.04754,-4.804951,3.58221
127,490388365,-51.71317291,74.40627289,-108.8642349,-9.32317543,-2.439531565,1.297362566,2.75927639,-11.28409004,-0.173334002,-19.856478,-5.043728,2.161289,0.093528,-4.993019,3.579321
128,490405032,-51.32767868,74.30109406,-108.5005112,-9.278876305,-2.434813261,1.332093596,3.112180948,-9.445773125,-0.028263623,-20.011126,-5.084308,2.183491,0.145398,-5.150449,3.57885
129,490421699,-50.95575714,74.19638824,-108.1609726,-9.249874115,-2.423511267,1.347093225,3.663775921,-9.177109718,-0.146479085,-20.165291,-5.1247,2.205943,0.206461,-5.303401,3.576409
130,490438366,-50.60679245,74.09199524,-107.8375626,-9.224279404,-2.435336828,1.341593027,3.33020854,-8.987472534,-0.230117351,-20.319029,-5.165289,2.228303,0.261964,-5.453192,3.572574
131,490455033,-50.28809357,73.98765564,-107.5267029,-9.321027756,-2.481151342,1.332686901,2.389824867,-8.842311859,-0.300308943,-20.474379,-5.206642,2.250514,0.301794,-5.600564,3.567569
132,490471700,-49.996521,73.88301086,-107.2466965,-9.323787689,-2.510401011,1.431357384,2.413440704,-8.53745842,-0.534575641,-20.629775,-5.248482,2.27437,0.342018,-5.742855,3.558659
133,490488367,-49.76844788,73.78895569,-107.0290298,-9.304121017,-2.45330596,1.456293464,2.12972188,-7.391237259,-0.636923909,-20.784844,-5.28937,2.298642,0.377513,-5.866042,3.548044
134,490505034,-49.54020691,73.70569611,-106.7997665,-9.195689201,-2.391355753,1.464974403,1.457727671,-7.153665543,0.046019621,-20.938105,-5.329226,2.323058,0.401808,-5.98527,3.548811
135,490521701,-49.27900314,73.6195755,-106.5334091,-9.279662132,-2.381822348,1.495186448,1.501358986,-7.729824066,0.332433701,-21.092766,-5.368923,2.347978,0.426831,-6.1141,3.554352
136,490538368,-48.99451828,73.52084351,-106.2419281,-9.231404305,-2.377440453,1.554770231,1.447329164,-8.583892822,0.097616427,-21.246623,-5.408547,2.373891,0.450953,-6.257165,3.555979
137,490555035,-48.70751953,73.42077637,-105.9429321,-9.188871384,-2.429978371,1.600825191,1.189537168,-8.763028145,0.18713282,-21.399771,-5.449047,2.400571,0.470779,-6.403215,3.559098
138,490571702,-48.44049072,73.3155899,-105.663414,-9.226242065,-2.446727753,1.643600106,1.047860503,-8.765217781,-0.181440368,-21.553542,-5.489826,2.427964,0.488243,-6.549302,3.556074
139,490588369,-48.19149017,73.20728302,-105.4031754,-9.23071003,-2.451392889,1.649466038,1.101800919,-8.670681,-0.479636282,-21.707387,-5.530683,2.455455,0.506606,-6.693813,3.54808
140,490605036,-47.95615387,73.10056305,-105.1587677,-9.248383522,-2.442058086,1.644631028,1.13179338,-8.447390556,-0.511114359,-21.861527,-5.571384,2.482866,0.525469,-6.834603,3.539561
141,490621703,-47.72586441,72.99481964,-104.9163208,-9.22865963,-2.427575827,1.649375796,0.99671191,-8.407971382,-0.443676084,-22.015338,-5.611844,2.510356,0.542081,-6.974736,3.532166
142,490638370,-47.52329636,72.88976288,-104.6933899,-9.224498749,-2.41278863,1.573387384,0.500260949,-8.149680138,-0.595021546,-22.16908,-5.652057,2.536579,0.550419,-7.110564,3.522249
143,490655037,-47.31846619,72.78491974,-104.4756699,-9.218157768,-2.428036451,1.590913057,0.884451509,-8.124682426,-0.587849975,-22.322716,-5.692524,2.563094,0.56516,-7.245975,3.512452
144,490671704,-47.11553955,72.67224121,-104.2587585,-9.257428169,-2.429561615,1.619420409,0.955123305,-8.441971779,-0.918689251,-22.477006,-5.733017,2.590084,0.581079,-7.386675,3.497141
145,490688371,-46.91831589,72.55927277,-104.0450439,-9.271157265,-2.468484879,1.619673967,0.666756272,-8.481006622,-0.886904001,-22.631525,-5.774158,2.617079,0.592192,-7.528025,3.482359
146,490705038,-46.71678162,72.44036102,-103.8185654,-9.274006844,-2.494617224,1.666843176,0.258259356,-8.922186852,-0.951678634,-22.786092,-5.815735,2.64486,0.596496,-7.676728,3.466498
147,490721705,-46.51013184,72.31574249,-103.5831299,-9.234194756,-2.494713306,1.693169355,0.036536526,-9.320912361,-1.020627975,-22.939995,-5.857314,2.673079,0.597105,-7.832077,3.449488
148,490738372,-46.31056976,72.18909454,-103.354866,-9.159407616,-2.514191151,1.744778752,0.006063809,-9.360266685,-1.135385633,-23.092652,-5.899217,2.702159,0.597206,-7.988081,3.430565
149,490755039,-46.12957001,72.0634079,-103.1433334,-9.143001556,-2.507954121,1.769529819,-0.114117429,-9.128100395,-1.252243638,-23.245035,-5.941016,2.731651,0.595304,-8.140216,3.409694
150,490771706,-45.95772552,71.94013214,-102.9428558,-9.159449577,-2.536575079,1.793192506,-0.002202693,-8.912004471,-1.241729617,-23.397692,-5.983292,2.761538,0.595267,-8.288749,3.388999
151,490788373,-45.78664398,71.82483673,-102.7455063,-9.207327843,-2.556432724,1.814628124,0.172098175,-8.563800812,-0.894856632,-23.551147,-6.025899,2.791782,0.598135,-8.431479,3.374085
152,490805040,-45.6203804,71.71070099,-102.5501328,-9.233860016,-2.568080187,1.821981788,-0.043118995,-8.531093597,-0.807184517,-23.705045,-6.0687,2.822148,0.597416,-8.573664,3.360632
153,490821707,-45.45088577,71.59091187,-102.3506851,-9.211688042,-2.576087713,1.842681289,-0.092705183,-8.860343933,-0.939691663,-23.858573,-6.111635,2.852859,0.595871,-8.721336,3.34497
154,490838374,-45.27364349,71.46251678,-102.1439056,-9.143087387,-2.585262775,1.873989105,-0.008823577,-9.352313042,-1.164289594,-24.010958,-6.154723,2.884092,0.595724,-8.877208,3.325565
155,490855041,-45.08752823,71.3307724,-101.9305649,-9.083439827,-2.578377008,1.911075711,0.118234672,-9.629302025,-1.148793936,-24.162349,-6.197696,2.915943,0.597695,-9.037696,3.306418
156,490871708,-44.92013931,71.2032547,-101.7368164,-9.07130146,-2.5873487,1.929446459,0.095477767,-9.222687721,-1.175098181,-24.313537,-6.240818,2.9481,0.599286,-9.191407,3.286833
157,490888375,-44.77910995,71.08318329,-101.5669937,-9.121183395,-2.610664368,1.971647382,-0.069243953,-8.594932556,-1.144644737,-24.465557,-6.284329,2.980961,0.598132,-9.334656,3.267756
158,490905042,-44.66033173,70.96977997,-101.4157257,-9.138226509,-2.608071566,1.983624697,-0.409226984,-8.101361275,-1.064873934,-24.617861,-6.327797,3.014021,0.591312,-9.469679,3.250008
159,490921709,-44.53433609,70.85565186,-101.2543411,-9.140303612,-2.595874786,2.004317284,-0.520795882,-8.288719177,-0.917254806,-24.770199,-6.371062,3.047426,0.582632,-9.607824,3.23472
160,490938376,-44.40407944,70.73622131,-101.0947876,-9.074710846,-2.585932493,2.013106346,-0.25498727,-8.5406847,-1.103036761,-24.921444,-6.414161,3.080978,0.578382,-9.750169,3.216336
161,490955043,-44.27799988,70.61978912,-100.9421005,-9.044540405,-2.603373528,2.019946575,0.021444235,-8.309875488,-1.068177819,-25.072186,-6.457551,3.114644,0.578739,-9.888667,3.198533
162,490971710,-44.16211319,70.50588226,-100.802597,-9.049699783,-2.642564535,2.071623802,0.017986521,-8.076927185,-1.072621703,-25.223014,-6.501594,3.149171,0.579039,-10.023282,3.180656
163,490988377,-44.05027008,70.39457703,-100.6621323,-9.057808876,-2.626663685,2.067055464,-0.296082824,-8.003278732,-0.906817734,-25.373977,-6.545372,3.183622,0.574104,-10.15667,3.165542
164,491005044,-43.94948959,70.28888702,-100.529686,-9.080506325,-2.616237164,2.056993246,-0.450924456,-7.659453392,-0.770135581,-25.525319,-6.588976,3.217905,0.566589,-10.284328,3.152706
165,491021711,-43.84014893,70.18347931,-100.3935013,-9.051671028,-2.63091588,2.108315229,-0.199510142,-7.733217239,-0.653841078,-25.67618,-6.632825,3.253044,0.563264,-10.413215,3.141809
166,491038378,-43.74343491,70.08004761,-100.2742462,-8.995449066,-2.615224838,2.096007824,0.133986458,-7.398115158,-0.829236925,-25.826104,-6.676412,3.287977,0.565497,-10.536517,3.127988
167,491055045,-43.67058563,69.98677826,-100.185318,-9.021107674,-2.650070906,2.130822182,0.276815683,-6.58067131,-0.790894687,-25.976456,-6.72058,3.323491,0.570111,-10.646195,3.114806
168,491071712,-43.61607742,69.90274811,-100.1121979,-9.059966087,-2.709290743,2.182584047,0.08007171,-5.965787411,-0.623784542,-26.127455,-6.765735,3.359867,0.571446,-10.745625,3.10441
169,491088379,-43.55305099,69.82191467,-100.0256348,-9.071327209,-2.739757299,2.160438776,-0.254116416,-6.049514771,-0.241233215,-26.278644,-6.811398,3.395874,0.567211,-10.84645,3.100389
170,491105046,-43.49035645,69.74819946,-99.94007111,-9.045875549,-2.740500212,2.21536994,-0.145595402,-5.723029613,0.03921945,-26.429409,-6.857073,3.432797,0.564784,-10.941834,3.101043
171,491121713,-43.43210602,69.67959595,-99.86430359,-8.983809471,-2.739324331,2.251969576,0.14708735,-5.366886139,0.126110554,-26.579139,-6.902728,3.47033,0.567235,-11.031282,3.103145
172,491138380,-43.38164139,69.61483002,-99.80836487,-8.929546356,-2.756399155,2.259009361,0.763072729,-4.928152084,0.014247063,-26.727965,-6.948668,3.50798,0.579953,-11.113418,3.103382
173,491155047,-43.35162354,69.56168365,-99.78572845,-8.933294296,-2.781049252,2.26890254,1.419782281,-3.945892096,0.003131152,-26.876853,-6.995019,3.545795,0.603616,-11.179183,3.103434
174,491171714,-43.32178497,69.50978851,-99.76455688,-8.971381187,-2.754492044,2.256468773,1.487502337,-3.87187171,0.050284129,-27.026376,-7.040927,3.583403,0.628408,-11.243714,3.104272
175,491188381,-43.29473495,69.46607208,-99.73770142,-9.025985718,-2.736650705,2.202886343,1.026768327,-3.59105444,0.484291375,-27.176809,-7.086538,3.620118,0.645521,-11.303565,3.112344
176,491205048,-43.24080276,69.42139435,-99.68276978,-8.994228363,-2.765122652,2.254790068,0.990872204,-4.065427303,0.910589218,-27.326713,-7.132623,3.657698,0.662036,-11.371322,3.12752
177,491221715,-43.2008934,69.3911438,-99.64803314,-8.895829201,-2.785861254,2.27922678,1.288286805,-3.146008253,1.209066868,-27.474977,-7.179054,3.695685,0.683507,-11.423755,3.147671
178,491238382,-43.21710205,69.38725281,-99.67768097,-8.884860039,-2.796850443,2.31960988,1.573279381,-1.05439806,1.303654432,-27.623058,-7.225668,3.734345,0.709728,-11.441328,3.169399
179,491255049,-43.26068115,69.4012146,-99.73430634,-8.870394707,-2.802617311,2.31700182,1.450690627,0.122377485,1.640813589,-27.770898,-7.272378,3.772962,0.733906,-11.439288,3.196746
180,491271716,-43.30881882,69.42047119,-99.79139709,-8.89945507,-2.784000635,2.280874491,1.203342319,0.360658824,1.865507364,-27.919222,-7.318778,3.810977,0.753962,-11.433277,3.227838
181,491288383,-43.36106873,69.44561768,-99.84425354,-8.907298088,-2.757653236,2.290755749,0.699105024,0.550653875,2.195642471,-28.067677,-7.364739,3.849156,0.765614,-11.424099,3.264432
182,491305050,-43.42222977,69.48383331,-99.89676666,-8.930913925,-2.734315872,2.29029417,0.096771181,1.104528427,2.770391464,-28.216526,-7.410311,3.887328,0.767227,-11.40569,3.310605
183,491321717,-43.51697159,69.53931427,-99.97676849,-8.986515999,-2.708723307,2.299988985,-0.321887672,2.26441288,3.063733816,-28.366301,-7.455456,3.925661,0.761862,-11.36795,3.361667
184,491338384,-43.62231445,69.60386658,-100.0694809,-9.03574276,-2.688989639,2.284305811,-0.244575679,2.838111401,3.265792131,-28.516897,-7.500272,3.963733,0.757786,-11.320648,3.416097
185,491355051,-43.72793198,69.67166138,-100.1670456,-9.023485184,-2.676796675,2.266261339,-0.067489468,3.020345449,3.365169048,-28.667288,-7.544885,4.001504,0.756661,-11.270309,3.472183
186,491371718,-43.84415436,69.74277496,-100.2777481,-8.997179031,-2.635500431,2.242956161,0.00717796,3.340466499,3.335139036,-28.817241,-7.58881,4.038887,0.756781,-11.214635,3.527769
187,491388385,-43.99117279,69.83044434,-100.4179306,-8.964199066,-2.659125805,2.237746954,-0.082831472,4.494702339,3.577601194,-28.966644,-7.633129,4.076183,0.7554,-11.139723,3.587396
188,491405052,-44.18693924,69.94432068,-100.6075134,-8.982803345,-2.699542046,2.198295116,-0.322220653,6.295416832,4.002107143,-29.116357,-7.678121,4.112821,0.75003,-11.034799,3.654098
189,491421719,-44.41911316,70.08470154,-100.8321991,-9.068615913,-2.749141455,2.199157476,-0.488959372,7.919710159,4.641195297,-29.267501,-7.72394,4.149474,0.741881,-10.902804,3.731451
190,491438386,-44.67764664,70.24214935,-101.0798111,-9.05676651,-2.733185053,2.148910999,-0.817929089,8.930452347,5.11439085,-29.418447,-7.769493,4.185289,0.728249,-10.753963,3.816691
191,491455053,-44.9707756,70.41879272,-101.3576584,-8.986158371,-2.710640669,2.116890192,-1.1236552,10.14342308,5.566277027,-29.568216,-7.81467,4.220571,0.709521,-10.584906,3.909462
192,491471720,-45.34661484,70.62792969,-101.7163162,-8.999392509,-2.759084702,2.111291409,-1.571455359,12.58911705,5.942386627,-29.718206,-7.860655,4.255759,0.68333,-10.375087,4.008502
193,491488387,-45.76822281,70.85814667,-102.1269455,-9.030946732,-2.817194939,2.065148115,-1.413104892,14.11111641,6.305063248,-29.868722,-7.907608,4.290178,0.659778,-10.139902,4.113586
194,491505054,-46.19653702,71.10205841,-102.5558014,-9.027852058,-2.874091387,2.038642168,-0.659873366,14.86112213,6.817204475,-30.019186,-7.95551,4.324155,0.64878,-9.892217,4.227206
195,491521721,-46.61259079,71.35887146,-102.9796982,-8.953994751,-2.846211672,2.006449461,-0.231449366,15.20315456,7.676267624,-30.168419,-8.002947,4.357596,0.644923,-9.638831,4.355144
196,491538388,-47.03647232,71.63934326,-103.4073334,-8.850946426,-2.791796446,2.013699293,-0.426682442,16.11084938,8.868067741,-30.315935,-8.049477,4.391158,0.637812,-9.370317,4.502945
197,491555055,-47.50749207,71.95613098,-103.8842087,-8.837506294,-2.710492849,2.010098219,-0.493852019,18.11157799,10.10789394,-30.463227,-8.094652,4.42466,0.629581,-9.068457,4.67141
198,491571722,-48.05532074,72.3117218,-104.4421692,-8.973118782,-2.681401491,1.942226291,-0.445520878,20.59568977,11.12231636,-30.612779,-8.139342,4.45703,0.622156,-8.725196,4.856782
199,491588389,-48.63596344,72.69263458,-105.0385056,-9.029943466,-2.613704205,1.902899384,-0.14460963,21.89639091,12.1596632,-30.763278,-8.182904,4.488745,0.619746,-8.360256,5.059443
200,491605056,-49.27012253,73.10167694,-105.6808853,-9.005311966,-2.564164639,1.910229445,-0.651896179,23.34031868,13.30731106,-30.913367,-8.22564,4.520582,0.608881,-7.971251,5.281232
201,491621723,-49.93861008,73.53460693,-106.3601913,-8.956205368,-2.510730743,1.868487835,-0.523768425,24.43235397,14.45252705,-31.062637,-8.267486,4.551723,0.600152,-7.564045,5.522107
202,491638390,-50.68502808,73.99681091,-107.1231537,-8.912270546,-2.53795743,1.786843181,-0.335796356,26.25191689,15.42978477,-31.211175,-8.309785,4.581504,0.594555,-7.126513,5.77927
203,491655057,-51.52630615,74.48577118,-107.9768448,-8.961596489,-2.545315504,1.699777126,-0.741592765,27.94735336,16.3843689,-31.360535,-8.352207,4.609834,0.582195,-6.660724,6.052343
204,491671724,-52.49159622,75.00687408,-108.9509201,-9.054920197,-2.582896948,1.604387641,-1.047653437,30.08897209,17.45996094,-31.51145,-8.395255,4.636574,0.564734,-6.159241,6.343342
205,491688391,-53.61602783,75.57227325,-110.0791397,-9.185425758,-2.549457788,1.503581762,-1.525756121,32.8645668,19.07806587,-31.66454,-8.437746,4.661634,0.539305,-5.611498,6.66131
206,491705058,-54.91732025,76.17832184,-111.373085,-9.32015419,-2.47532177,1.373147488,-2.261364937,35.37777328,20.75538445,-31.819876,-8.479001,4.68452,0.501616,-5.021868,7.007233
207,491721725,-56.36824417,76.81311798,-112.8110352,-9.331454277,-2.443181276,1.261608481,-2.608766556,36.90543747,22.38105011,-31.9754,-8.519721,4.705547,0.458137,-4.406777,7.380251
208,491738392,-57.98517227,77.47303009,-114.4179306,-9.261957169,-2.34624052,1.179810762,-2.65044713,38.24051285,23.98694229,-32.129766,-8.558825,4.725211,0.413963,-3.769435,7.780033
209,491755059,-59.88103485,78.16872406,-116.2861328,-9.243239403,-2.328562737,1.052494645,-3.633210421,40.58925247,25.87139511,-32.28382,-8.597634,4.742753,0.353409,-3.092947,8.211223
210,491771726,-62.12348938,78.89517975,-118.4911575,-9.280777931,-2.284336567,0.831212759,-4.559659958,42.90025711,27.72988129,-32.4385,-8.635706,4.756607,0.277415,-2.377943,8.673388
211,491788393,-64.71416473,79.63918304,-121.0329742,-9.270085335,-2.178081036,0.737507522,-5.277812481,44.14109039,29.58022499,-32.593001,-8.672007,4.768899,0.189451,-1.642258,9.166392
212,491805060,-67.67047882,80.38629913,-123.9305496,-9.239691734,-2.070772409,0.639853835,-5.809321404,44.45839691,31.2087841,-32.746996,-8.70652,4.779563,0.092629,-0.901285,9.686538
213,491821727,-71.27339935,81.14376831,-127.4578094,-9.220087051,-1.959995985,0.502446592,-6.967190266,46.52157974,33.0255928,-32.900664,-8.739187,4.787937,-0.023491,-0.125925,10.236965
214,491838394,-75.84145355,81.89237976,-131.919632,-9.435161591,-1.827287793,0.287769943,-9.004394531,49.35970306,34.26102829,-33.057917,-8.769642,4.792733,-0.173564,0.696737,10.807982
215,491855061,-81.54321289,82.59377289,-137.5046387,-9.627234459,-1.791786551,0.195376188,-9.77776432,51.37253571,34.75866699,-33.218371,-8.799505,4.795989,-0.336527,1.552946,11.387293
216,491871728,-88.42734528,83.22320557,-144.265976,-9.60830307,-1.770607591,-0.031730253,-10.27108955,51.94943237,35.57117081,-33.378509,-8.829015,4.79546,-0.507712,2.41877,11.980146
217,491888395,-96.42962646,83.77789307,-152.1273499,-9.475071907,-1.853595734,-0.083138749,-11.36188698,50.67816925,37.84093857,-33.536427,-8.859908,4.794074,-0.697077,3.263406,12.610828
218,491905062,-105.894165,84.21385956,-161.5092468,-9.096090317,-1.886503696,0.02954153,-7.498479843,51.49210358,39.3842926,-33.688029,-8.89135,4.794566,-0.822052,4.121608,13.267233
219,491921729,-117.6467438,84.4648056,-173.2053223,-9.089179993,-1.766957402,-0.150847375,-6.280685902,57.46674728,41.99287415,-33.839515,-8.920799,4.792052,-0.92673,5.079387,13.967114
220,491938396,-131.0331116,84.46685791,173.4784698,-9.519627571,-1.645617127,-0.419170141,-7.433520317,62.27900314,45.9442482,-33.998175,-8.948226,4.785066,-1.050622,6.11737,14.732851
221,491955063,-144.2081299,84.23258209,160.396759,-9.919222832,-1.560594082,-0.656852663,-8.92334938,61.15595627,50.06095505,-34.163495,-8.974236,4.774118,-1.199344,7.136636,15.5672
222,491971730,-156.4650269,83.77597046,148.2466278,-10.1903038,-1.391394019,-0.897636354,-9.952287674,60.17403412,55.08334351,-34.333333,-8.997426,4.759157,-1.365215,8.139537,16.485256
223,491988397,-167.4271698,83.07672119,137.3650208,-10.43865681,-1.182157278,-1.146993279,-8.712769508,61.72666168,60.559021,-34.507311,-9.017129,4.74004,-1.510428,9.168315,17.494573
224,492005064,-176.5826111,82.1634903,128.2805481,-10.84020519,-1.015928864,-1.451790333,-8.389864922,62.70888901,64.22480774,-34.687981,-9.034061,4.715843,-1.650259,10.213463,18.564986
225,492021731,176.1351471,81.15280151,121.1169739,-11.27906895,-0.850149333,-1.796946764,-11.33057308,59.17512131,65.1294632,-34.875965,-9.04823,4.685894,-1.839102,11.199715,19.650477
226,492038398,170.4033966,80.19741058,115.5274887,-11.36003113,-0.394132555,-2.092091322,-12.66831493,49.38837051,63.24909592,-35.065299,-9.054799,4.651026,-2.050241,12.022855,20.704629
227,492055065,165.8655548,79.27068329,111.0644531,-11.21613121,-0.003090256,-2.172459602,-8.505090714,43.45039749,60.71443939,-35.252235,-9.054851,4.614818,-2.191993,12.747028,21.716536
228,492071732,162.3234711,78.24738312,107.5366669,-11.40219021,0.460232764,-2.481538057,-4.674993515,46.60509109,59.08945465,-35.442272,-9.04718,4.573459,-2.26991,13.52378,22.70136
229,492088399,159.6343842,77.12993622,104.8974457,-11.80160904,0.928781867,-2.903752327,-6.415427685,51.25001907,56.34098053,-35.638965,-9.0317,4.525063,-2.376834,14.377947,23.640376
230,492105066,157.4740753,76.05947113,102.9088135,-11.98426914,1.348964214,-3.295761347,-13.35160065,48.52827454,51.77556229,-35.838703,-9.009217,4.470134,-2.599361,15.186752,24.503302
231,492121733,155.6407776,75.13486481,101.3226852,-12.42217541,1.330886006,-3.349340439,-17.63885689,40.32136154,46.29650497,-36.045739,-8.987036,4.414312,-2.893342,15.858775,25.27491
232,492138400,154.3329468,74.30786133,100.1955261,-12.85620403,1.544820428,-3.56345129,-13.06195736,36.25965881,39.61368179,-36.260009,-8.961289,4.354921,-3.111041,16.463103,25.935138
233,492155067,153.3491211,73.552948,99.35774231,-12.73885345,1.613115311,-3.893547773,-10.56689739,33.34339905,34.91765976,-36.472323,-8.934404,4.290029,-3.287156,17.018826,26.517099
234,492171734,152.3438416,72.89442444,98.4724884,-12.26884556,1.92747438,-3.786947489,-9.311849594,26.95975494,34.11067963,-36.676804,-8.902279,4.226913,-3.442353,17.468155,27.08561
235,492188401,151.2176666,72.35129547,97.4737854,-11.94595623,2.234243155,-3.738484383,-10.23566723,19.03882027,33.58618546,-36.875903,-8.865042,4.164605,-3.612947,17.785469,27.64538
236,492205068,150.0724487,71.99091339,96.48465729,-11.6199894,2.178869486,-3.958855391,-12.06311989,8.711577415,28.80433846,-37.069569,-8.828728,4.098624,-3.813999,17.930662,28.125452
237,492221735,149.0105438,71.79046631,95.57439423,-11.39730453,2.020207167,-4.041804314,-11.64574242,0.507836938,23.06447983,-37.259524,-8.795058,4.031261,-4.008095,17.939126,28.50986
238,492238402,148.030426,71.65190125,94.72612762,-11.27517414,1.797045231,-3.928025246,-10.3186388,-2.522925854,20.2693634,-37.447444,-8.765107,3.965794,-4.180072,17.897077,28.847683
239,492255069,147.0417786,71.4955368,93.8526535,-11.43283367,1.578999758,-3.646643877,-9.432887077,-2.282281399,21.31779671,-37.637991,-8.73879,3.905017,-4.337287,17.859039,29.20298
240,492271736,146.0001984,71.32646179,92.93943787,-11.35359859,1.434528708,-3.385289669,-10.39473915,-2.490424156,22.47236443,-37.827218,-8.714881,3.848596,-4.510533,17.817532,29.577519
241,492288403,145.1119995,71.15786743,92.18578339,-11.05844498,1.203191638,-3.303367138,-10.31130028,-1.198951721,20.03553009,-38.011525,-8.694828,3.79354,-4.682388,17.797549,29.911445
242,492305070,144.5120544,70.99623108,91.68377686,-10.89747715,1.331634879,-3.364844561,-7.342982769,0.979866087,15.91700268,-38.19315,-8.672634,3.737459,-4.804771,17.81388,30.176728
243,492321737,144.1696472,70.86215973,91.40631866,-10.72148228,1.647049308,-3.392523289,-4.649212837,2.041909456,11.47268963,-38.371841,-8.645183,3.680917,-4.882258,17.847912,30.367939
244,492338404,143.916275,70.79969025,91.20011902,-10.52534485,1.713906288,-3.255573511,-3.356346369,-0.678768754,7.860513687,-38.547263,-8.616618,3.626657,-4.938197,17.836599,30.498948
245,492355071,143.6277618,70.822052,90.93127441,-10.31339359,1.576561332,-3.044968367,-1.910394073,-5.550010681,5.857638836,-38.719153,-8.590342,3.575908,-4.970037,17.744099,30.596575
246,492371738,143.2937927,70.91195679,90.59477234,-10.11082172,1.445194364,-2.88147831,-0.791234255,-9.60283947,4.489139557,-38.887667,-8.566255,3.527883,-4.983224,17.584052,30.671394
247,492388405,142.9368896,71.07743073,90.20664215,-9.989383698,1.337048411,-2.699908733,0.78290385,-13.81321335,2.503847599,-39.054157,-8.543971,3.482885,-4.970176,17.353832,30.713125
248,492405072,142.6358032,71.32613373,89.86054993,-9.707306862,1.293848276,-2.53809166,1.784118295,-17.24789619,-1.284574151,-39.215945,-8.522407,3.440583,-4.940441,17.066367,30.691715
249,492421739,142.4218292,71.64452362,89.60942078,-9.672795296,1.037536621,-2.290665627,1.651432514,-19.36885834,-5.394125462,-39.377158,-8.505115,3.402405,-4.912917,16.743553,30.601813
250,492438406,142.3218384,72.04769135,89.45828247,-9.635137558,0.709263206,-2.130399466,2.833577633,-22.16027832,-10.07583332,-39.537744,-8.493294,3.366898,-4.865691,16.374215,30.433882
251,492455073,142.3001251,72.58426666,89.33811188,-9.367788315,0.507422268,-2.02558279,5.793678761,-28.07077408,-15.45790482,-39.693874,-8.484837,3.333138,-4.76913,15.906369,30.17625
252,492471740,142.5398712,73.24136353,89.40187836,-8.876929283,0.364668518,-1.947472692,10.9726572,-31.78933716,-22.39957619,-39.841823,-8.478759,3.30068,-4.586252,15.376547,29.802924
253,492488407,142.9150238,74.02211761,89.54044342,-8.616638184,0.311024159,-1.862149596,14.79139423,-37.06932068,-27.658535,-39.985434,-8.473575,3.269644,-4.339729,14.758725,29.341948
254,492505074,143.2125549,74.9431839,89.55250549,-8.206406593,0.273336142,-1.500903249,17.43576622,-45.25018311,-30.74863052,-40.122207,-8.469019,3.244629,-4.049133,14.004555,28.829471
255,492521741,143.5762024,75.94039917,89.60733795,-8.06548214,0.296788663,-1.24058795,18.94478035,-48.70914459,-33.69569778,-40.256632,-8.464073,3.223953,-3.733387,13.192736,28.267876
256,492538408,144.075882,77.00642395,89.78049469,-7.946881771,0.180508316,-1.275137663,20.21377754,-51.33086777,-37.03679657,-40.38908,-8.461065,3.202701,-3.396491,12.337222,27.650596
257,492555075,144.8804779,78.14519501,90.21321106,-7.699829578,0.197966158,-1.220864177,23.28551483,-53.47997284,-41.54395676,-40.51741,-8.457766,3.182353,-3.008399,11.445889,26.958197
258,492571742,146.0065765,79.32692719,90.96096039,-7.468596458,0.163385481,-0.981735051,23.95818901,-54.51482391,-44.71271133,-40.641887,-8.455043,3.165991,-2.609096,10.537309,26.212985
259,492588409,147.811676,80.45858002,92.34487152,-7.485649586,0.105334662,-1.150134802,26.98405457,-49.99960709,-46.5426712,-40.766648,-8.453287,3.146822,-2.159362,9.703982,25.437274
260,492605076,150.3351288,81.61437988,94.3164444,-7.594741821,0.004910433,-0.997541249,35.00661469,-51.06162643,-48.69891739,-40.893227,-8.453205,3.130196,-1.575918,8.852955,24.625625
261,492621743,153.7805023,82.82250214,97.07270813,-7.505290031,-0.092477724,-0.725634992,43.34613419,-54.5658493,-50.97945023,-41.018315,-8.454746,3.118102,-0.853482,7.943524,23.775967
262,492638410,158.310318,83.95993042,100.9067459,-6.921594143,-0.349032432,-0.848362505,43.77206802,-52.58256531,-49.11454391,-41.133675,-8.460563,3.103963,-0.123948,7.067148,22.957391
263,492655077,163.9428711,84.88388824,105.9204178,-6.681750774,-0.442123592,-1.109374881,39.08766937,-43.93969345,-42.79738998,-41.245038,-8.467932,3.085473,0.527513,6.33482,22.244101
264,492671744,170.9456787,85.61863708,112.2812195,-6.580295563,-0.575526178,-1.242377877,40.37970734,-37.08731461,-37.60380554,-41.35471,-8.477524,3.064767,1.200508,5.716698,21.617371
265,492688411,179.190155,86.10997009,119.8171082,-6.785612583,-0.392597735,-1.099140286,44.27673721,-27.50852394,-32.19240952,-41.467804,-8.484067,3.046448,1.938454,5.258223,21.080831
266,492705078,-172.2065582,86.42007446,127.7026825,-7.008777142,-0.280064702,-1.157080173,44.64918518,-21.39102554,-26.80724907,-41.584617,-8.488735,3.027163,2.682607,4.901706,20.634044
267,492721745,-165.1472321,86.43927002,134.0864716,-7.671914101,0.039720666,-1.303440452,41.89247894,-6.816110611,-20.35227013,-41.712482,-8.488073,3.005439,3.380815,4.788104,20.294839
268,492738412,-159.3100891,86.28859711,139.3621826,-8.196621895,0.117008597,-1.968478918,34.94692993,1.446549177,-19.08561897,-41.849092,-8.486123,2.972631,3.963264,4.812213,19.976745
269,492755079,-152.6669769,86.29302979,145.2657166,-8.546912193,0.043069992,-2.418632984,45.7375946,-10.61537457,-18.06570053,-41.991541,-8.485405,2.93232,4.725557,4.63529,19.67565
270,492771746,-144.1993103,86.41996765,152.974411,-8.7348423,0.263016731,-1.905434489,47.1171608,-22.96432114,-18.3145256,-42.137122,-8.481021,2.900563,5.510843,4.252551,19.370408
271,492788413,-135.3570709,86.48509216,161.175766,-8.600846291,0.329543233,-1.497513175,40.03351212,-23.75581551,-18.02890587,-42.280469,-8.475529,2.875604,6.178068,3.856621,19.069926
272,492805080,-128.7108154,86.34194183,167.2752075,-8.864292145,0.427364856,-1.041953683,34.20552826,-12.42635059,-19.03363419,-42.428207,-8.468406,2.858238,6.74816,3.649515,18.752699
273,492821747,-123.4243088,86.09651184,171.95401,-9.088691711,-0.071661696,-1.693894029,37.75324249,-7.478068352,-20.17563438,-42.579685,-8.4696,2.830006,7.377381,3.524881,18.416438
274,492838414,-117.7558365,85.89673615,177.0519409,-9.243505478,-0.168516085,-1.761848688,35.66638947,-13.49325943,-18.59335709,-42.733743,-8.472409,2.800642,7.971821,3.299993,18.106549
275,492855081,-112.6288528,85.7177887,-178.3913269,-9.437932014,-0.586364448,-1.774534941,35.65147781,-14.76973629,-15.65232944,-42.891042,-8.482182,2.771066,8.566012,3.053831,17.845677
276,492871748,-108.5252151,85.54711151,-174.8621674,-9.662200928,-0.384117931,-1.536649227,35.79530716,-12.78442764,-12.71094418,-43.052079,-8.488584,2.745455,9.1626,2.840757,17.633828
277,492888415,-104.8752213,85.36769104,-171.8733978,-9.901368141,-0.534933686,-1.429420829,40.9731102,-11.83015823,-11.85865211,-43.217102,-8.4975,2.721631,9.845485,2.643588,17.436184
278,492905082,-100.8553391,85.20233154,-168.5490112,-10.02384567,-0.395967036,-1.265265942,43.14060974,-15.1179409,-10.81201649,-43.384166,-8.504099,2.700543,10.564495,2.391622,17.255984
279,492921749,-94.68782806,85.06159973,-162.9325562,-9.756889343,-0.562228799,-1.377809644,35.02297211,-28.54835129,-9.744174004,-43.546781,-8.513469,2.67758,11.148211,1.915816,17.093581
280,492938416,-87.46077728,84.85463715,-156.283905,-9.36011219,-0.75782311,-0.973979294,37.01641464,-36.19644547,-10.58564758,-43.702783,-8.526099,2.661347,11.765151,1.312542,16.917154
281,492955083,-82.34650421,84.60064697,-151.824707,-8.918000221,-0.732846856,-0.50205946,41.20800018,-27.24740028,-10.54030323,-43.851416,-8.538313,2.652979,12.451951,0.858419,16.741482
282,492971750,-81.35385895,84.40658569,-151.511322,-8.9535532,-0.657289565,-0.542186439,41.63245773,-4.847343445,-8.830285072,-44.000642,-8.549268,2.643943,13.145825,0.77763,16.594311
283,492988417,-82.70059204,84.27474976,-153.5397034,-9.427697182,-0.459818512,-0.850309968,41.09230423,9.368634224,-7.071115017,-44.15777,-8.556932,2.629771,13.830697,0.933774,16.476459
284,493005084,-84.1000824,84.1920166,-155.4640961,-9.840325356,-0.250604481,-1.299288273,31.6984787,9.514681816,-3.868986368,-44.321775,-8.561109,2.608116,14.359005,1.092352,16.411976
285,493021751,-84.0928421,84.10897827,-155.8378601,-9.889266968,-0.225209638,-1.318450212,23.53455734,0.285479724,-2.82313323,-44.486596,-8.564862,2.586142,14.751248,1.09711,16.364924
286,493038418,-83.87004089,84.01300049,-155.9684296,-9.718039513,-0.285047412,-1.211451769,21.95197678,-1.311340451,-3.485913515,-44.648563,-8.569613,2.565951,15.117114,1.075254,16.306825
287,493055085,-83.62569427,83.93431091,-155.9821625,-9.627960205,-0.333276689,-1.278635383,16.28339386,-1.976489186,-2.400981903,-44.809029,-8.575168,2.54464,15.388504,1.042313,16.266809
288,493071752,-83.05994415,83.88948822,-155.611557,-9.570670128,-0.444948673,-1.326357365,12.63384151,-4.240984917,-0.140748262,-44.96854,-8.582584,2.522534,15.599068,0.97163,16.264463
289,493088419,-82.5970459,83.87202454,-155.2719727,-9.445520401,-0.613359272,-1.27483201,8.324501038,-3.913832903,1.457875133,-45.125965,-8.592807,2.501287,15.73781,0.906399,16.288761
290,493105086,-82.43521118,83.86825562,-155.2376404,-9.334774017,-0.91696018,-1.171206594,8.476794243,-1.912558198,2.017935276,-45.281545,-8.60809,2.481767,15.87909,0.874523,16.322393
291,493121753,-83.034935,83.88983917,-155.9539642,-9.415408134,-0.979736507,-1.136826396,7.558348179,3.008417368,2.887640476,-45.438468,-8.624419,2.46282,16.005062,0.924663,16.37052
292,493138420,-84.0100174,83.94022369,-157.044754,-9.641348839,-1.011999249,-1.186966181,7.389714241,5.501340389,4.405539513,-45.599157,-8.641286,2.443037,16.128224,1.016352,16.443946
293,493155087,-85.0460434,84.02073669,-158.1746979,-9.670002937,-0.882419467,-1.071401477,6.077204227,5.770159245,6.295039654,-45.760324,-8.655993,2.42518,16.229511,1.112521,16.548863
294,493171754,-86.5265274,84.13178253,-159.7250366,-9.747610092,-0.841785789,-1.021182775,4.510270596,8.267295837,8.089633942,-45.922784,-8.670023,2.40816,16.304682,1.250309,16.68369
295,493188421,-88.34183502,84.27628326,-161.5787659,-9.872101784,-0.822892547,-1.013908267,2.551385403,9.785761833,10.29811859,-46.087319,-8.683738,2.391262,16.347205,1.413405,16.855325
296,493205088,-90.25567627,84.45903015,-163.4853516,-9.909410477,-0.76068151,-1.04546845,-0.177412912,9.511706352,12.94753647,-46.252476,-8.696416,2.373838,16.344248,1.571933,17.071117
297,493221755,-92.04268646,84.67910767,-165.2326508,-9.863170624,-0.583595276,-1.092010379,-2.040969133,7.781748295,15.50483036,-46.416862,-8.706143,2.355638,16.310232,1.701629,17.329531
298,493238422,-93.58540344,84.93492889,-166.6997528,-9.852194786,-0.412646949,-1.057862282,-4.104126453,5.306305408,17.79381943,-46.581065,-8.71302,2.338007,16.24183,1.790067,17.626095
299,493255089,-95.15784454,85.21504974,-168.2010956,-9.895709991,-0.354110301,-0.994954884,-3.797543049,4.506893635,19.39771652,-46.745993,-8.718922,2.321424,16.178538,1.865182,17.94939
300,493271756,-96.62893677,85.52617645,-169.5629578,-9.861925125,-0.266315907,-0.805556893,-6.039402008,2.700799942,21.25495338,-46.910358,-8.723361,2.307998,16.077881,1.910195,18.303639
301,493288423,-98.52059174,85.87355804,-171.3141785,-9.778001785,-0.269967824,-0.776488543,-7.912541866,3.102101564,23.71639824,-47.073325,-8.72786,2.295057,15.946005,1.961897,18.698912
302,493305090,-100.5749435,86.24271393,-173.1802521,-9.897625923,-0.096672222,-0.614588678,-10.79852867,1.951257467,25.06597328,-47.238285,-8.729471,2.284814,15.76603,1.994418,19.116678
303,493321757,-101.058548,86.6532135,-173.4712372,-9.795825005,-0.065652594,-0.350540251,-10.83277512,-5.5333004,26.32232094,-47.401549,-8.730565,2.278972,15.585484,1.902196,19.555383
304,493338424,-99.73664856,87.10559082,-171.9219666,-9.70098877,-0.105308354,0.213154659,-12.74805832,-11.84667969,27.68205261,-47.563232,-8.73232,2.282525,15.373016,1.704751,20.016751
305,493355091,-96.58231354,87.55447388,-168.5361786,-9.712977409,-0.400838435,0.828215539,-12.91820717,-15.13793945,27.18227577,-47.725115,-8.739001,2.296329,15.157713,1.452452,20.469789
306,493371758,-95.95586395,87.94358063,-167.7359467,-9.675507545,-0.646238148,1.323155522,-9.645978928,-6.336335659,24.8782196,-47.886373,-8.749772,2.318382,14.996947,1.346846,20.884426
307,493388425,-101.8151855,88.28034973,-173.4387817,-9.868380547,-0.817711353,1.291931033,-8.858230591,6.163454533,23.53805923,-48.050846,-8.763401,2.339914,14.84931,1.44957,21.276727
308,493405092,-111.9681702,88.57317352,176.5723572,-10.29596233,-0.917917669,1.064567208,-9.374624252,8.844356537,23.38396645,-48.222445,-8.7787,2.357657,14.693066,1.596976,21.66646
309,493421759,-122.1432343,88.84174347,166.5280914,-10.48705196,-0.909934163,0.951617122,-7.241985798,3.022125006,22.38791084,-48.397229,-8.793866,2.373517,14.572366,1.647345,22.039592
310,493438426,-131.8572693,89.12911987,156.9348602,-10.0826149,-0.858617425,0.960248351,-6.640264511,-3.929078817,21.75879669,-48.565273,-8.808176,2.389521,14.461695,1.58186,22.402239
311,493455093,-148.3765106,89.32189178,140.4379883,-9.861380577,-0.686643779,0.880880952,-0.767722428,-1.881184578,19.47352791,-48.729629,-8.81962,2.404202,14.4489,1.550507,22.726798
312,493471760,-170.6444855,89.38962555,118.1260757,-9.580779076,-0.370328188,0.685272157,3.179038525,-0.068456404,17.33811188,-48.889309,-8.825792,2.415623,14.501884,1.549366,23.015767
313,493488427,169.4020081,89.38962555,98.03874969,-9.352430344,-0.106160432,0.629260063,8.667871475,-1.712127447,14.74578476,-49.045183,-8.827561,2.426111,14.646349,1.520831,23.26153
314,493505094,151.8340149,89.40357208,80.27878571,-8.984255791,0.065643482,0.809830666,12.24398518,-6.181125641,12.17814732,-49.194921,-8.826467,2.439608,14.850415,1.417812,23.464499
315,493521761,138.9667053,89.37505341,67.20058441,-8.749004364,0.041432913,0.950989664,13.26213074,-4.824343204,9.799149513,-49.340738,-8.825776,2.455458,15.071451,1.337406,23.627818
316,493538428,135.2545776,89.29335022,63.25606918,-8.811766624,-0.047182158,0.899268866,14.61575985,0.239030764,7.290443897,-49.487601,-8.826562,2.470446,15.315047,1.34139,23.749325
317,493555095,139.0702362,89.17884827,66.84502411,-9.000614166,-0.144831732,0.782280266,14.33491611,5.537483215,4.49121666,-49.637611,-8.828976,2.483484,15.553962,1.433681,23.824179
318,493571762,146.2168732,89.0459137,73.79129791,-9.223027229,-0.171300799,0.565702856,12.71963692,8.812236786,1.619197845,-49.791328,-8.831831,2.492912,15.765956,1.580552,23.851166
319,493588429,153.3466797,88.96997833,80.74427032,-9.345695496,-0.173436508,0.455790132,11.36589813,6.171613693,-2.014484644,-49.94709,-8.834722,2.500509,15.955388,1.683412,23.817591
320,493605096,161.9941711,88.99712372,89.22809601,-9.25074482,-0.279345423,0.475280255,10.55281067,0.58723557,-7.013484955,-50.101269,-8.839378,2.50843,16.131268,1.693199,23.7007
321,493621763,175.8451691,88.98721313,102.8944931,-9.109199524,-0.277188748,0.513441861,11.85602665,2.027439117,-12.06448269,-50.253089,-8.843998,2.516987,16.328868,1.72699,23.499625
322,493638430,-168.987381,88.85295105,117.8648911,-9.367930412,-0.099147096,0.431947768,12.67739582,5.641500473,-15.38493824,-50.409221,-8.84565,2.524186,16.540158,1.821015,23.243209
323,493655097,-155.335907,88.69659424,131.3193817,-9.593560219,0.03475247,0.434993386,12.68638802,2.301292181,-17.30154037,-50.569114,-8.845071,2.531436,16.751598,1.85937,22.95485
324,493671764,-139.9394684,88.56932831,146.5441132,-9.41006279,-0.067779571,0.609802604,11.24202728,-6.505684853,-20.46404648,-50.725948,-8.846201,2.541599,16.938965,1.750942,22.613783
325,493688431,-126.7260056,88.30142212,159.550293,-9.010931969,-0.165086597,0.786839962,13.40952587,-5.742145538,-24.27108955,-50.87613,-8.848952,2.554713,17.162457,1.65524,22.209265
326,493705098,-121.7735062,87.86018372,164.3890228,-9.217744827,-0.313589394,0.638600826,7.681191444,5.649855614,-25.39661407,-51.029759,-8.854178,2.565356,17.290477,1.749404,21.785988
327,493721765,-122.1749115,87.34229279,164.0292969,-9.762042046,-0.620522261,-0.225331962,-1.840783596,16.04347038,-23.93918037,-51.19246,-8.86452,2.5616,17.259797,2.016795,21.387002
328,493738432,-129.4837341,86.64164734,156.8274841,-11.12290382,-0.98734051,-1.592627645,-6.319911003,41.76470184,-18.82053947,-51.377842,-8.880976,2.535056,17.154465,2.712873,21.073326
329,493755099,-139.0095978,85.7321701,147.2889099,-12.87374306,-1.309741378,-3.14749527,0.192277357,63.96955109,-10.48397541,-51.592404,-8.902805,2.482598,17.15767,3.779032,20.898593
330,493771766,-143.7229156,85.19364166,142.2616882,-13.1684618,-0.995923102,-3.897831202,18.57252693,38.8286438,0.436340779,-51.811878,-8.919404,2.417634,17.467212,4.426176,20.905865
331,493788433,-141.535202,85.49889374,144.1745911,-10.77494717,-0.210845828,-3.396187305,17.55271721,-21.56718063,5.671961784,-51.99146,-8.922918,2.361031,17.759757,4.066723,21.000398
332,493805100,-133.2436371,86.18115234,152.1426697,-7.728345394,0.4872832,-1.508393764,21.35921669,-54.94720078,4.086812019,-52.120266,-8.914797,2.335891,18.115744,3.150936,21.068512
333,493821767,-129.1619415,86.28490448,155.5826263,-6.774400711,0.818403184,0.301266938,39.61316299,-15.73373413,-2.359284401,-52.233173,-8.901157,2.340912,18.775963,2.888707,21.029191
334,493838434,-135.291687,85.72685242,149.0303345,-8.205874443,0.620445311,-0.369330376,25.11351967,41.3022728,-4.473326206,-52.369938,-8.890816,2.334756,19.194522,3.577078,20.954636
335,493855101,-142.1140594,84.95469666,142.1297913,-10.5230875,-0.09880273,-2.103460789,4.017255306,55.51440811,-3.425691128,-52.545323,-8.892463,2.299698,19.261476,4.502318,20.897541
336,493871768,-145.1314545,84.41152954,139.0792084,-10.98051262,-0.258145273,-2.730049372,1.89556551,34.83520126,-3.840007067,-52.728332,-8.896765,2.254197,19.293069,5.082905,20.833541
337,493888435,-146.7390137,84.06060028,137.5792389,-10.22423649,-0.407578319,-2.417140484,-6.212927818,21.0031414,-2.494610786,-52.898736,-8.903558,2.213911,19.18952,5.432957,20.791964
338,493905102,-148.4855347,83.70119476,135.8874969,-9.283098221,-0.402495146,-2.072170973,-3.184900045,22.47321129,-0.621640563,-53.053454,-8.910266,2.179375,19.136438,5.807511,20.781603
339,493921769,-150.3968658,83.26996613,134.0049744,-9.029229164,-0.245561108,-1.802113295,-1.756453037,27.2207489,-0.327337593,-53.203941,-8.914359,2.14934,19.107164,6.26119,20.776147
340,493938436,-152.1800232,82.81297302,132.3987579,-9.298301697,-0.131590888,-1.855430007,-10.64136028,28.07777977,-1.163095474,-53.358913,-8.916552,2.118416,18.929808,6.729153,20.756762
341,493955103,-153.3805542,82.41522217,131.486969,-9.735566139,-0.163966313,-2.047097683,-17.0764122,22.83438873,-2.904738188,-53.521172,-8.919285,2.084298,18.645201,7.109726,20.70835
342,493971770,-154.1092377,82.07739258,131.1578369,-9.882983208,-0.400802553,-2.168693304,-23.45887756,17.73756409,-4.843920231,-53.685888,-8.925965,2.048153,18.25422,7.405352,20.627618
343,493988437,-154.705246,81.7816925,131.0683441,-9.837841034,-0.630501747,-2.238706112,-29.75210381,14.69310284,-5.269750118,-53.849852,-8.936473,2.010841,17.758352,7.650237,20.539789
344,494005104,-155.1903076,81.52309418,131.1479645,-9.458752632,-0.951593578,-2.249041319,-33.12991333,12.10147762,-5.490829468,-54.007498,-8.952333,1.973357,17.206187,7.851928,20.448275
345,494021771,-155.947052,81.23142242,130.9559937,-9.117757797,-1.153717518,-2.139652252,-33.3201828,14.96960449,-3.963334322,-54.159461,-8.971562,1.937696,16.650851,8.101421,20.382219
346,494038438,-157.0662384,80.96230316,130.3939056,-9.210786819,-1.372917175,-2.102433681,-33.12906265,15.19229603,0.058461256,-54.312974,-8.994444,1.902655,16.0987,8.354626,20.383193
347,494055105,-158.8171387,80.70407867,129.2104492,-9.309117317,-1.408268571,-2.296114445,-34.2588501,16.893713,6.382487774,-54.468126,-9.017915,1.864386,15.527719,8.636188,20.489568
348,494071772,-161.2880249,80.44432831,127.2734299,-9.906596184,-1.517446518,-2.09130311,-32.90912628,19.41153145,14.30089664,-54.633236,-9.043206,1.829531,14.979234,8.959714,20.727916
349,494088439,-164.0464172,80.31578827,125.061554,-10.23775578,-1.29276216,-1.770169377,-33.96461487,12.22461987,20.61463547,-54.803865,-9.064752,1.800028,14.413157,9.163458,21.071493
350,494105106,-166.5525208,80.37108612,123.1256943,-9.972675323,-1.101398945,-1.326242566,-35.17963409,-0.00177369,21.43574524,-54.970076,-9.083109,1.777924,13.82683,9.163428,21.428755
351,494121773,-168.427597,80.4621582,121.6930695,-9.585562706,-1.200629115,-0.970835745,-27.0737915,-3.960384607,16.91011429,-55.129835,-9.103119,1.761743,13.3756,9.097422,21.71059
352,494138440,-170.1694336,80.47857666,120.3366623,-9.202641487,-1.223320723,-0.557900786,-23.58233833,-0.167641997,15.19261169,-55.283212,-9.123508,1.752445,12.982561,9.094628,21.9638
353,494155107,-172.4512482,80.36830139,118.516777,-9.509175301,-1.266408205,-0.816633284,-28.57767868,7.612190247,18.74378586,-55.441698,-9.144615,1.738834,12.506266,9.221498,22.276196
354,494171774,-175.1511536,80.29756927,116.3398285,-10.08234215,-1.174849391,-1.571603537,-32.57935333,4.934724808,23.14967155,-55.609737,-9.164196,1.712641,11.963277,9.303743,22.662024
355,494188441,-178.13974,80.28177643,113.837822,-10.42016602,-0.874346316,-2.572247267,-30.70716095,0.789528906,27.03751373,-55.783406,-9.178768,1.66977,11.451491,9.316902,23.112649
356,494205108,178.7753296,80.34534454,111.0927963,-10.59820271,-0.124446869,-3.46391201,-22.09812546,-5.326218605,29.55963135,-55.960043,-9.180842,1.612038,11.083189,9.228132,23.60531
357,494221775,176.286026,80.5514679,108.7425613,-11.01873016,0.646013737,-3.102612495,-9.665462494,-15.05182934,24.66485214,-56.143689,-9.170075,1.560328,10.922098,8.977268,24.016391
358,494238442,175.3045044,80.97324371,107.825264,-11.06620312,0.792578697,-1.538852215,-3.930747986,-27.60136986,8.756727219,-56.328126,-9.156865,1.53468,10.856586,8.517245,24.162336
359,494255109,175.7476044,81.182724,108.496788,-9.597138405,0.119641155,-1.022718787,-12.58050728,-13.74728298,-5.431276321,-56.488078,-9.154871,1.517635,10.646911,8.288124,24.071815
360,494271776,176.4896545,80.99169159,109.6417389,-9.054739952,-0.396901071,-1.577077746,-22.69762611,10.46502781,-8.069562912,-56.63899,-9.161486,1.49135,10.268617,8.462541,23.937322
361,494288443,177.0046844,80.71539307,110.5748672,-8.937888145,-0.606112003,-2.240735531,-23.73756599,15.37647343,-6.169739723,-56.787955,-9.171588,1.454004,9.872991,8.718816,23.834493
362,494305110,177.1414032,80.56752014,111.0879135,-8.966744423,-0.467955053,-2.139251471,-21.53015709,7.416798115,-2.76144433,-56.937401,-9.179387,1.41835,9.514155,8.842429,23.788469
363,494321777,176.8705139,80.5663681,111.1878662,-9.364025116,-0.246036604,-2.004232407,-21.5280304,-1.590954781,0.810515285,-57.093468,-9.183488,1.384946,9.155354,8.815913,23.801978
364,494338444,176.4665833,80.76576996,111.1219406,-9.674103737,-0.249496803,-1.867984056,-19.69325256,-13.69486141,1.733342767,-57.254703,-9.187646,1.353813,8.827133,8.587665,23.830867
365,494355111,176.1580811,81.00870514,111.0804291,-9.740463257,-0.375382394,-1.614123225,-15.41283417,-16.28443718,1.245061159,-57.417044,-9.193902,1.326911,8.570252,8.316258,23.851618
366,494371778,175.924408,81.13614655,111.0850677,-9.929787636,-0.426245093,-1.666295052,-13.6533308,-9.337226868,1.223020315,-57.58254,-9.201006,1.299139,8.342696,8.160638,23.872002
367,494388445,175.7084351,81.23908997,111.084343,-10.12924099,-0.325506657,-1.822855473,-12.27980614,-7.862034321,1.357166648,-57.751361,-9.206431,1.268758,8.138033,8.029604,23.894621
368,494405112,175.5365753,81.3657608,111.1148376,-9.959310532,-0.176267326,-1.916350842,-11.48186874,-9.263845444,0.949156165,-57.91735,-9.209369,1.236819,7.946669,7.875207,23.91044
369,494421779,175.5727844,81.48576355,111.2760468,-9.698799133,-0.057348061,-1.88543117,-6.749160767,-8.778993607,-0.188579977,-58.078997,-9.210325,1.205395,7.834183,7.72889,23.907297
370,494438446,175.7728577,81.58492279,111.5417328,-9.587710381,-0.080044821,-1.813472271,-3.117149591,-7.470938683,-0.982445776,-58.238792,-9.211659,1.17517,7.782231,7.604374,23.890923
371,494455113,175.9119568,81.67150116,111.7353516,-9.517350197,-0.170186967,-1.764379621,-2.504480362,-6.775629044,-0.258079976,-58.397415,-9.214495,1.145764,7.74049,7.491447,23.886622
372,494471780,175.9600372,81.74642944,111.8313675,-9.474675179,-0.245758086,-1.689285994,-2.174473763,-6.140140057,0.660359561,-58.555326,-9.218591,1.117609,7.704249,7.389111,23.897628
373,494488447,175.9356232,81.80518341,111.8327103,-9.445791245,-0.207631588,-1.634727955,-0.899742246,-5.234640598,1.55102849,-58.712756,-9.222052,1.090364,7.689253,7.301867,23.923478
374,494505114,175.8972626,81.85088348,111.8011093,-9.52904129,-0.068013869,-1.669665098,0.214634418,-4.4643507,1.888449788,-58.871573,-9.223186,1.062536,7.69283,7.227461,23.954952
375,494521781,175.9077454,81.89068604,111.7908401,-9.668497086,0.047949661,-1.638931751,1.881726742,-4.102495193,1.732020497,-59.032715,-9.222387,1.03522,7.724192,7.159086,23.983819
376,494538448,176.0104065,81.93691254,111.8465347,-9.740112305,0.103363849,-1.600326777,3.494225502,-4.448868752,1.148742437,-59.19505,-9.220664,1.008548,7.782429,7.084938,24.002965
377,494555115,176.1629944,81.98168945,111.9478149,-9.731060982,0.10237734,-1.569764972,3.782586098,-4.332650661,0.778715789,-59.357234,-9.218958,0.982385,7.845472,7.012727,24.015944
378,494571782,176.3306427,82.01771545,112.0746002,-9.673230171,0.133546516,-1.591050029,3.167983294,-3.795411587,0.60933882,-59.518455,-9.216732,0.955867,7.898272,6.94947,24.0261
379,494588449,176.4641266,82.04549408,112.1828918,-9.62135601,0.189238802,-1.63190937,2.218546629,-3.311895609,0.799180388,-59.678811,-9.213578,0.928669,7.935248,6.894272,24.03942
380,494605116,176.5540771,82.07888031,112.2631073,-9.614249229,0.176365539,-1.656502128,1.280980825,-3.666887045,1.012009144,-59.839048,-9.210639,0.901061,7.956598,6.833157,24.056287
381,494621783,176.6037292,82.10553741,112.3108749,-9.627552032,0.126011059,-1.642445803,0.780214071,-3.271695852,1.301944733,-59.999507,-9.208539,0.873687,7.969602,6.778629,24.077986
382,494638450,176.608017,82.12884521,112.3193054,-9.619774818,0.08929088,-1.669239283,0.401543081,-3.093354464,1.635242701,-60.159837,-9.207051,0.845866,7.976294,6.727073,24.10524
383,494655117,176.5765381,82.15467834,112.2926254,-9.628554344,0.049737833,-1.658247948,0.351150125,-3.27136302,1.910528183,-60.320313,-9.206222,0.818229,7.982147,6.67255,24.137082
384,494671784,176.5250854,82.18795013,112.2324142,-9.629306793,-0.001838112,-1.587001443,1.138830304,-3.728306532,2.152094364,-60.480801,-9.206253,0.791779,8.001128,6.610412,24.17295
385,494688451,176.4601288,82.20575714,112.1522369,-9.684922218,-0.029625583,-1.594929934,1.509036541,-2.801216602,2.366063356,-60.642216,-9.206747,0.765197,8.026279,6.563725,24.212384
386,494705118,176.4116516,82.22736359,112.0716324,-9.672140121,-0.031826399,-1.571785569,2.539179087,-3.045023918,2.353090286,-60.803418,-9.207277,0.739001,8.068599,6.512975,24.251602
387,494721785,176.382843,82.2339325,111.9971848,-9.700128555,0.005574747,-1.542761207,3.340613842,-2.130548,2.356727362,-60.965087,-9.207184,0.713288,8.124276,6.477466,24.290881
388,494738452,176.3790588,82.24207306,111.9492035,-9.734129906,0.015234891,-1.55088985,3.272842169,-2.209101677,2.135369301,-61.127322,-9.20693,0.68744,8.178823,6.440648,24.32647
389,494755119,176.3679352,82.24845886,111.8989944,-9.730834007,0.060898449,-1.537544012,2.955538988,-2.097327948,2.15881753,-61.289503,-9.205915,0.661814,8.228082,6.405693,24.36245
390,494771786,176.3555908,82.26924896,111.8491211,-9.719168663,0.118927017,-1.544602633,2.877254248,-2.970555067,2.098756313,-61.451489,-9.203933,0.636071,8.276036,6.356184,24.397429
391,494788453,176.361969,82.2989502,111.8222122,-9.701796532,0.12735635,-1.5448035,2.622318029,-3.477033138,1.874696136,-61.613186,-9.20181,0.610324,8.319741,6.298233,24.428674
392,494805120,176.3756104,82.33560944,111.8139725,-9.686493874,0.114368126,-1.524144173,1.96236825,-3.897593737,1.69499743,-61.774628,-9.199904,0.584922,8.352447,6.233273,24.456924
393,494821787,176.405899,82.37638855,111.8328171,-9.713717461,0.094046734,-1.52395618,1.340581656,-4.117440224,1.461576104,-61.936523,-9.198337,0.559523,8.37479,6.164649,24.481284
394,494838454,176.4644318,82.42798615,111.879364,-9.715455055,0.047358785,-1.485810995,1.391563773,-4.754044533,1.20092833,-62.098447,-9.197548,0.534759,8.397983,6.085415,24.501299
395,494855121,176.5057526,82.47433472,111.9141617,-9.708132744,-0.012994455,-1.417380452,1.054641366,-4.438354969,1.315583587,-62.260249,-9.197765,0.511136,8.41556,6.011442,24.523225
396,494871788,176.5162506,82.50548553,111.9252167,-9.70324707,-0.03018471,-1.466127038,0.618405938,-3.541897297,1.559352517,-62.42197,-9.198268,0.486701,8.425867,5.95241,24.549214
397,494888455,176.5222168,82.54128265,111.9201508,-9.739405632,-0.0110656,-1.476103425,1.301266074,-3.817630529,1.66738677,-62.584293,-9.198452,0.462099,8.447555,5.888783,24.577004
398,494905122,176.5785675,82.5953064,111.9476013,-9.70674324,-0.003811238,-1.427441239,2.403675318,-4.905478954,1.352081776,-62.746072,-9.198516,0.438308,8.487616,5.807025,24.599539
399,494921789,176.6976929,82.63350677,112.0222702,-9.711765289,-0.013561763,-1.423044682,3.345864773,-3.921708584,1.048135996,-62.907935,-9.198742,0.414591,8.54338,5.741663,24.617008
400,494938456,176.8216095,82.67378235,112.1110687,-9.725893021,-0.001768869,-1.474470854,2.801107407,-4.045455456,0.942137659,-63.070033,-9.198771,0.390016,8.590065,5.674239,24.63271
401,494955123,176.9381561,82.71684265,112.1904221,-9.674591064,0.027453724,-1.49667418,2.910191774,-4.207635403,1.011138201,-63.231276,-9.198313,0.365071,8.638568,5.604112,24.649562
402,494971790,177.0366821,82.75189209,112.2577744,-9.66308403,0.066669539,-1.460383773,2.554136992,-3.74509573,1.135462284,-63.392327,-9.197202,0.340731,8.681137,5.541694,24.668486
403,494988457,177.1277008,82.78794861,112.313591,-9.697195053,0.089290179,-1.467443347,2.786405325,-3.806168556,1.221636057,-63.553947,-9.195714,0.316274,8.727577,5.478258,24.688847
404,495005124,177.2261963,82.82756042,112.3848114,-9.685435295,0.111115009,-1.520913839,2.314133167,-4.007664204,1.099783897,-63.715371,-9.193862,0.290925,8.766146,5.411464,24.707177
405,495021791,177.3282928,82.87701416,112.4659653,-9.706962585,0.05648692,-1.518389463,1.945233583,-4.601341248,1.000893235,-63.877154,-9.192921,0.265619,8.798567,5.334775,24.723859
406,495038458,177.4264374,82.90998077,112.5482635,-9.674217224,0.042591549,-1.514227867,1.641582012,-3.614957094,1.045023799,-64.038391,-9.192211,0.240382,8.825927,5.274526,24.741276
407,495055125,177.5176392,82.9357605,112.6269608,-9.658316612,0.021103516,-1.503856778,1.430315733,-3.175264359,1.092957973,-64.199363,-9.191859,0.215318,8.849766,5.221605,24.759492
408,495071792,177.5801697,82.9549408,112.6902924,-9.677194595,0.013455774,-1.499079823,0.6278826,-2.792866707,1.225759983,-64.36065,-9.191635,0.190333,8.860231,5.175057,24.779921
409,495088459,177.6447601,82.96542358,112.7588654,-9.671985626,-0.00697507,-1.504721165,0.443432629,-2.276949644,1.209162712,-64.52185,-9.191751,0.165254,8.867622,5.137108,24.800074
410,495105126,177.6876831,82.9677124,112.807312,-9.684654236,-0.005049537,-1.532980204,0.305149734,-1.788643718,1.374710441,-64.683261,-9.191835,0.139704,8.872708,5.107297,24.822986
411,495121793,177.7094116,82.97789001,112.8358917,-9.677435875,-0.006705892,-1.50368166,0.190238312,-2.269560575,1.498253226,-64.844552,-9.191947,0.114643,8.875879,5.069471,24.847957
412,495138460,177.7042542,82.98474121,112.8425446,-9.678714752,-0.0110323,-1.489211679,-0.067431837,-2.07281661,1.669205427,-65.005864,-9.192131,0.089823,8.874755,5.034924,24.875777
413,495155127,177.6990967,82.98586273,112.8518066,-9.66050148,-0.044818159,-1.472526312,-0.303926706,-1.738020062,1.656206846,-65.166872,-9.192878,0.065281,8.86969,5.005957,24.90338
414,495171794,177.6744843,82.97231293,112.844101,-9.679701805,-0.043420035,-1.485161424,-0.388525397,-0.86049062,1.821203828,-65.3282,-9.193602,0.040528,8.863215,4.991615,24.933733
415,495188461,177.6256561,82.95939636,112.8130798,-9.708000183,-0.050038099,-1.492213726,-0.434013575,-0.897744358,1.991951108,-65.49,-9.194436,0.015658,8.855981,4.976653,24.966932
416,495205128,177.5739594,82.94239807,112.7749786,-9.690969467,-0.019983128,-1.493905544,-0.163159311,-0.658073545,2.057557821,-65.651516,-9.194769,-0.00924,8.853262,4.965685,25.001225
417,495221795,177.5177307,82.92871094,112.7288895,-9.703557968,-0.033541072,-1.493205428,0.011935518,-0.864524722,2.10535121,-65.813242,-9.195328,-0.034127,8.853461,4.951276,25.036314
418,495238462,177.4459686,82.91933441,112.6695251,-9.705161095,-0.04225881,-1.493570209,-0.200412974,-1.123917341,2.18774724,-65.974995,-9.196032,-0.05902,8.850121,4.932544,25.072776
419,495255129,177.3713074,82.9072113,112.6133423,-9.692638397,-0.035506677,-1.454338074,-0.47070384,-0.956282198,2.178501129,-66.136539,-9.196624,-0.083259,8.842276,4.916606,25.109084
420,495271796,177.2791748,82.88925934,112.5418015,-9.705657959,-0.059627328,-1.436857462,-0.718660355,-0.619782507,2.303516626,-66.2983,-9.197618,-0.107207,8.830298,4.906276,25.147476
421,495288463,177.2046051,82.87509155,112.486557,-9.713127136,-0.085652754,-1.43642354,-0.544647694,-0.832700908,2.18015337,-66.460185,-9.199046,-0.131147,8.821221,4.892398,25.183812
422,495305130,177.1472473,82.85726929,112.4418335,-9.725427628,-0.106798515,-1.453427672,-0.169472829,-0.617157161,2.112868547,-66.622275,-9.200826,-0.155371,8.818396,4.882112,25.219026
423,495321797,177.0890045,82.85131836,112.3903809,-9.727648735,-0.149348572,-1.463098526,0.170644626,-1.327871323,2.129427195,-66.784402,-9.203315,-0.179756,8.82124,4.859981,25.254516
424,495338464,177.0167389,82.84317017,112.3215027,-9.694860458,-0.132602513,-1.459109306,0.397035271,-1.197861195,2.270476341,-66.945983,-9.205525,-0.204074,8.827857,4.840017,25.292357
425,495355131,176.9321136,82.83379364,112.2368393,-9.684788704,-0.097322434,-1.434651375,0.440845817,-1.143920898,2.384081364,-67.107396,-9.207147,-0.227985,8.835204,4.820952,25.332092
426,495371798,176.8606415,82.82944489,112.1683121,-9.714299202,-0.09813752,-1.404412985,0.497424275,-1.423457861,2.265455961,-67.269301,-9.208783,-0.251392,8.843494,4.797228,25.36985
427,495388465,176.8005219,82.81913757,112.1061478,-9.718032837,-0.102554947,-1.400682807,0.738811135,-1.063458443,2.23564291,-67.431268,-9.210492,-0.274737,8.855808,4.779504,25.407111
428,495405132,176.7475281,82.81108856,112.0547104,-9.750166893,-0.119136289,-1.434570432,0.377748907,-1.198680758,2.138673306,-67.593771,-9.212478,-0.298647,8.862104,4.759526,25.442756
429,495421799,176.7209167,82.80625916,112.0329742,-9.738200188,-0.112343736,-1.443292737,0.331786931,-1.376484156,1.917853594,-67.756074,-9.21435,-0.322702,8.867634,4.736585,25.47472
430,495438466,176.69664,82.80647278,112.0170746,-9.68944931,-0.089514107,-1.424761057,0.118381895,-1.675486803,1.856549382,-67.917565,-9.215842,-0.346448,8.869607,4.70866,25.505662
431,495455133,176.6689758,82.79881287,112.0006943,-9.69510746,-0.048608199,-1.40484643,-0.040256757,-1.198437452,1.889525533,-68.07915,-9.216652,-0.369862,8.868936,4.688686,25.537154
432,495471800,176.6451569,82.79290771,111.9944382,-9.748913765,-0.037945215,-1.425095081,-0.499044269,-1.30301404,1.802032709,-68.241632,-9.217284,-0.393614,8.860619,4.666969,25.567188
433,495488467,176.6413269,82.80587769,112.0125656,-9.711910248,-0.059051599,-1.378470421,-0.686964691,-2.415668249,1.556752801,-68.403497,-9.218268,-0.416589,8.84917,4.626708,25.593134
434,495505134,176.6639862,82.80516052,112.05867,-9.699778557,-0.092580378,-1.44651413,-0.709721565,-1.5911057,1.399465084,-68.56516,-9.219811,-0.440698,8.837341,4.60019,25.616458
435,495521801,176.6867981,82.80098724,112.1002655,-9.757212639,-0.109523289,-1.480180025,-0.700167954,-1.385294914,1.427677512,-68.72778,-9.221636,-0.465368,8.825672,4.577102,25.640253
436,495538468,176.7168884,82.80271149,112.1403427,-9.737041473,-0.104492053,-1.483657956,0.018415531,-1.72981143,1.431186438,-68.890064,-9.223378,-0.490096,8.825979,4.548272,25.664106
437,495555135,176.7489777,82.8102951,112.1822968,-9.685786247,-0.077281937,-1.419873357,0.165867865,-2.073277712,1.40887785,-69.051494,-9.224666,-0.513761,8.828743,4.513717,25.687587
438,495571802,176.7949066,82.80892944,112.243721,-9.672582626,-0.069876194,-1.401199698,-0.19837676,-1.540712714,1.290892839,-69.212704,-9.225831,-0.537114,8.825437,4.488038,25.709102
439,495588469,176.8292999,82.80307007,112.3031769,-9.718450546,-0.094292872,-1.476414561,-0.846237123,-1.264735818,1.316351891,-69.374678,-9.227403,-0.561721,8.811333,4.466959,25.731041
440,495605136,176.8366241,82.80458832,112.3383636,-9.726545334,-0.111104786,-1.48382318,-0.96689868,-1.716966629,1.478262544,-69.536787,-9.229255,-0.586451,8.795218,4.438343,25.755679
441,495621803,176.8238983,82.80456543,112.3523788,-9.733388901,-0.103228092,-1.440883756,-0.933333218,-1.630882144,1.641684413,-69.69901,-9.230975,-0.610466,8.779662,4.411162,25.78304
442,495638470,176.8152924,82.80979919,112.3688812,-9.708041191,-0.073746495,-1.421226621,-0.935369313,-1.943792462,1.598257899,-69.860811,-9.232204,-0.634153,8.764073,4.378765,25.809678
443,495655137,176.8098907,82.81690216,112.3922806,-9.680027008,-0.089625426,-1.40893352,-1.110547423,-2.06273818,1.546520352,-70.022145,-9.233698,-0.657635,8.745564,4.344386,25.835453
444,495671804,176.8233337,82.81695557,112.4397888,-9.664391518,-0.131257027,-1.432438016,-1.37261641,-1.619663715,1.389706612,-70.183218,-9.235886,-0.681509,8.722687,4.317392,25.858615
445,495688471,176.8326721,82.80739594,112.483963,-9.696563721,-0.106640056,-1.455660224,-1.422394872,-1.044492245,1.447091937,-70.344827,-9.237663,-0.70577,8.69898,4.299984,25.882733
446,495705138,176.8180847,82.8032074,112.5130463,-9.724225044,-0.095552757,-1.484970093,-1.793625236,-1.367084265,1.554690719,-70.506897,-9.239256,-0.73052,8.669086,4.277199,25.908645
447,495721805,176.7917023,82.80336761,112.531929,-9.70015049,-0.088281132,-1.416476488,-1.873908281,-1.629959941,1.620669127,-70.668566,-9.240727,-0.754128,8.637854,4.250033,25.935656
448,495738472,176.7637787,82.80170441,112.5514755,-9.693894386,-0.133137405,-1.425422907,-2.125924826,-1.524679422,1.610398769,-70.830131,-9.242946,-0.777885,8.602422,4.224622,25.962496
449,495755139,176.7261963,82.79480743,112.5595856,-9.69792366,-0.136009991,-1.469912887,-2.173935652,-1.2232306,1.705805898,-70.991763,-9.245213,-0.802384,8.56619,4.204235,25.990926
450,495771806,176.6895447,82.7901001,112.5702896,-9.715331078,-0.141580731,-1.47512567,-2.254846096,-1.344865322,1.681653261,-71.153685,-9.247573,-0.826969,8.528609,4.181821,26.018954
451,495788473,176.664505,82.7844696,112.5838242,-9.715434074,-0.13860254,-1.447632432,-1.951002598,-1.297865868,1.648535728,-71.315609,-9.249883,-0.851096,8.496092,4.16019,26.04643
452,495805140,176.6280823,82.77762604,112.5946655,-9.739213943,-0.127274513,-1.403631806,-2.156301022,-1.22375536,1.696700454,-71.477929,-9.252004,-0.87449,8.460154,4.139794,26.074708
453,495821807,176.5865173,82.77555847,112.6045074,-9.728720665,-0.104233474,-1.419185042,-2.515775442,-1.507505774,1.68334341,-71.640074,-9.253741,-0.898143,8.418224,4.114669,26.102764
454,495838474,176.5467834,82.77944183,112.622261,-9.713359833,-0.138136119,-1.389678121,-2.830043077,-1.858041167,1.6075809,-71.801963,-9.256043,-0.921304,8.371057,4.083702,26.129557
455,495855141,176.5248718,82.78368378,112.6562119,-9.702834129,-0.164229289,-1.408985019,-2.890015125,-1.876392603,1.471654415,-71.963677,-9.25878,-0.944787,8.32289,4.052429,26.154085
456,495871808,176.5115662,82.794487,112.6988373,-9.722445488,-0.162422761,-1.406418324,-2.742883205,-2.250619888,1.392703295,-72.125718,-9.261487,-0.968227,8.277175,4.014919,26.177297
457,495888475,176.5085297,82.80052948,112.750061,-9.709815979,-0.179773107,-1.392924309,-2.544512749,-1.966190577,1.352273583,-72.287548,-9.264483,-0.991442,8.234766,3.982149,26.199835
458,495905142,176.5161743,82.80958557,112.8126755,-9.741640091,-0.205353975,-1.383296847,-2.582573414,-2.135695696,1.260452271,-72.449909,-9.267906,-1.014497,8.191723,3.946554,26.220843
459,495921809,176.5193634,82.82110596,112.8688202,-9.713805199,-0.24637489,-1.40117681,-2.621133089,-2.292074203,1.292749763,-72.611806,-9.272012,-1.03785,8.148037,3.908353,26.242389
460,495938476,176.5330505,82.83150482,112.9313965,-9.721849442,-0.223694086,-1.381971478,-2.299296856,-2.219372272,1.25993979,-72.773837,-9.27574,-1.060883,8.109715,3.871363,26.263388
461,495955143,176.5375366,82.84508514,112.9805298,-9.705405235,-0.18979311,-1.350862384,-2.095803976,-2.415616751,1.346152186,-72.935594,-9.278903,-1.083397,8.074785,3.831103,26.285824
462,495971810,176.5511627,82.85864258,113.0362473,-9.715770721,-0.216522351,-1.368044972,-1.947340131,-2.411723852,1.300677061,-73.097524,-9.282512,-1.106198,8.042329,3.790908,26.307502
463,495988477,176.5661621,82.87445831,113.0979156,-9.729825974,-0.212900355,-1.416293859,-2.060150862,-2.536816359,1.26125896,-73.259688,-9.28606,-1.129803,8.007993,3.748628,26.328523
464,496005144,176.5812988,82.88986206,113.1576614,-9.735151291,-0.197952658,-1.415941834,-2.083164215,-2.518451929,1.272707939,-73.421941,-9.289359,-1.153402,7.973274,3.706654,26.349735
465,496021811,176.6246033,82.91319275,113.2467041,-9.763898849,-0.176255137,-1.413598776,-2.160886288,-2.975024462,1.030296564,-73.584673,-9.292297,-1.176962,7.937259,3.65707,26.366907
466,496038478,176.6702118,82.94940186,113.3403244,-9.731333733,-0.179635972,-1.383662701,-2.333195686,-3.752305746,0.952894986,-73.746862,-9.295291,-1.200023,7.898372,3.594532,26.382789
467,496055145,176.7220154,82.97468567,113.4431686,-9.687894821,-0.193770185,-1.358529329,-2.598389149,-3.100231409,0.924413502,-73.908327,-9.298521,-1.222665,7.855066,3.542861,26.398196
468,496071812,176.7789764,82.99140167,113.554657,-9.702204704,-0.206067532,-1.409785986,-2.673997879,-2.573339701,0.905050457,-74.07003,-9.301955,-1.246161,7.810499,3.499972,26.41328
469,496088479,176.8171234,83.019104,113.6513062,-9.693862915,-0.195764691,-1.334570527,-2.884701014,-3.234749556,0.981453061,-74.231594,-9.305218,-1.268404,7.762421,3.44606,26.429638
470,496105146,176.871933,83.03829956,113.7583694,-9.713640213,-0.205646053,-1.348816752,-2.455290556,-2.722469568,0.943469405,-74.393488,-9.308645,-1.290884,7.721499,3.400686,26.445362
471,496121813,176.917923,83.05867004,113.8568573,-9.742346764,-0.216986135,-1.389730811,-2.406652927,-2.788730145,1.010408401,-74.55586,-9.312261,-1.314046,7.681388,3.354207,26.462202
472,496138480,176.9810791,83.08959198,113.9582443,-9.757535934,-0.226377279,-1.424553514,-1.599366188,-3.429713964,0.958094418,-74.718486,-9.316034,-1.337789,7.654732,3.297045,26.47817
473,496155147,177.0577545,83.13236237,114.0695877,-9.71740818,-0.218610674,-1.371727467,-1.373231173,-4.125866413,0.858742654,-74.880443,-9.319678,-1.360651,7.631845,3.228281,26.492482
474,496171814,177.144104,83.17758179,114.190033,-9.678841591,-0.191681251,-1.318177462,-1.350705147,-4.270783901,0.795863509,-75.041757,-9.322873,-1.382621,7.609333,3.157101,26.505746
475,496188481,177.2332001,83.21840668,114.316246,-9.695222855,-0.195251346,-1.34989202,-1.47358191,-4.014541149,0.782660127,-75.203344,-9.326127,-1.405119,7.584773,3.090192,26.51879
476,496205148,177.2973328,83.25460052,114.4267273,-9.714496613,-0.224479273,-1.344994187,-2.183501959,-3.741829634,0.908520818,-75.365252,-9.329868,-1.427536,7.548381,3.027828,26.533932
477,496221815,177.3387909,83.28875732,114.5256729,-9.704949379,-0.217663899,-1.364693284,-2.602474451,-3.620208263,1.016068816,-75.527001,-9.333496,-1.450281,7.505006,2.967491,26.550866
478,496238482,177.3621674,83.32032776,114.5992508,-9.725842476,-0.23572509,-1.354498863,-2.24191165,-3.473050356,1.20183754,-75.689098,-9.337425,-1.472856,7.467641,2.909607,26.570897
479,496255149,177.3766785,83.35755157,114.6567764,-9.736484528,-0.22728771,-1.355417132,-1.915836334,-3.810420036,1.29897356,-75.851373,-9.341213,-1.495446,7.43571,2.8461,26.592547
480,496271816,177.4136047,83.40501404,114.7294083,-9.723906517,-0.223279238,-1.323920369,-1.636247873,-4.440274715,1.164135575,-76.013438,-9.344934,-1.517511,7.408439,2.772095,26.611949
481,496288483,177.4481201,83.44665527,114.8043518,-9.710617065,-0.184775576,-1.3277632,-1.868068695,-4.083042145,1.17339468,-76.175282,-9.348014,-1.53964,7.377305,2.704044,26.631506
482,496305150,177.509964,83.48741913,114.9045181,-9.703079224,-0.182876453,-1.284314036,-1.647312999,-4.016154766,1.014506221,-76.337,-9.351062,-1.561045,7.34985,2.637108,26.648414
483,496321817,177.5387878,83.52976227,114.9749374,-9.712801933,-0.184015781,-1.278558731,-1.876277804,-4.131450653,1.218396425,-76.49888,-9.354129,-1.582354,7.318579,2.56825,26.668721
484,496338484,177.53685,83.57209015,115.0165176,-9.750524521,-0.192771032,-1.292286277,-2.054811001,-4.134344578,1.414102793,-76.661389,-9.357342,-1.603892,7.284332,2.499344,26.692289
485,496355151,177.5124664,83.63049316,115.0415726,-9.784586906,-0.186583728,-1.258807898,-2.34974122,-5.096716404,1.489160895,-76.824465,-9.360452,-1.624872,7.24517,2.414399,26.717108
486,496371818,177.5009613,83.69739532,115.0802307,-9.741991997,-0.167856395,-1.206296563,-2.367503405,-5.599326611,1.37916708,-76.986832,-9.36325,-1.644977,7.205712,2.321077,26.740094
487,496388485,177.5318909,83.76438904,115.1631393,-9.742787361,-0.191813797,-1.18063426,-2.469160557,-5.597099304,1.093495965,-77.149212,-9.366447,-1.664654,7.164559,2.227792,26.758319
488,496405152,177.6179962,83.84234619,115.3038559,-9.749729156,-0.210487396,-1.154879689,-2.718154669,-6.243692398,0.698945045,-77.311707,-9.369955,-1.683902,7.119256,2.12373,26.769968
489,496421819,177.7530823,83.93169403,115.4939117,-9.80290699,-0.214539334,-1.168157101,-2.6904037,-6.902349472,0.379272997,-77.475089,-9.373531,-1.703371,7.074416,2.008691,26.776289
490,496438486,177.8934174,84.04286957,115.691658,-9.826891899,-0.214808077,-1.078920603,-2.734777927,-8.220085144,0.319889873,-77.638871,-9.377111,-1.721353,7.028836,1.87169,26.78162
491,496455153,178.0740662,84.17708588,115.9300613,-9.800426483,-0.226440132,-1.039303303,-2.76378417,-9.593951225,0.065440476,-77.802211,-9.380885,-1.738675,6.982773,1.711791,26.782711
492,496471820,178.3402557,84.32691193,116.253891,-9.782933235,-0.290346324,-0.980358183,-2.786950827,-10.51530361,-0.411372125,-77.96526,-9.385724,-1.755014,6.936324,1.536536,26.775855
493,496488487,178.7342834,84.47483063,116.6926804,-9.747356415,-0.366544306,-0.941952944,-1.989383936,-10.39977741,-0.976964772,-78.127716,-9.391833,-1.770713,6.903168,1.363206,26.759572
494,496505154,179.2357635,84.61453247,117.2231903,-9.802159309,-0.370656818,-0.95348084,-0.940914929,-9.907757759,-1.350359559,-78.291085,-9.398011,-1.786604,6.887486,1.198077,26.737066
495,496521821,179.7257538,84.77119446,117.7442245,-9.77701664,-0.395461679,-0.89022547,-1.144228578,-10.94817066,-1.151925206,-78.454035,-9.404602,-1.801441,6.868416,1.015607,26.717867
496,496538488,-179.7709656,84.93167877,118.2647934,-9.723383904,-0.442183584,-0.910996974,-0.309997022,-11.21249485,-0.977489948,-78.616091,-9.411972,-1.816624,6.863249,0.828732,26.701576
497,496555155,-179.2760162,85.0880127,118.7606125,-9.699771881,-0.454292774,-0.919279337,0.658912599,-10.97976589,-0.676361263,-78.777754,-9.419544,-1.831945,6.874231,0.645736,26.690303
498,496571822,-178.6963959,85.26322937,119.3150482,-9.712956429,-0.445870668,-0.965714097,2.23204565,-12.13738441,-0.773561656,-78.939637,-9.426975,-1.84804,6.911432,0.443446,26.67741
499,496588489,-178.0308228,85.42744446,119.9406815,-9.72082901,-0.435990095,-0.949819207,3.116669893,-11.50622177,-0.922128081,-79.101651,-9.434242,-1.86387,6.963376,0.251676,26.662041
500,496605156,-177.2359619,85.56951141,120.6654129,-9.749539375,-0.423379242,-0.928776622,4.936324596,-10.22339535,-1.213062763,-79.264143,-9.441298,-1.87935,7.045648,0.081286,26.641823
501,496621823,-176.3371887,85.70235443,121.4802551,-9.702264786,-0.387946218,-0.891135097,5.778624058,-9.741262436,-1.417426467,-79.425847,-9.447764,-1.894202,7.141958,-0.081068,26.618199
502,496638490,-175.2843323,85.82608032,122.4325104,-9.605186462,-0.480440885,-0.886887312,6.786664486,-9.282693863,-1.813309789,-79.585933,-9.455771,-1.908983,7.255069,-0.23578,26.587977
503,496655157,-174.2076416,85.90825653,123.3884583,-9.606128693,-0.550280213,-0.897526026,7.989244938,-6.853878021,-1.808404684,-79.746035,-9.464942,-1.923942,7.388223,-0.350011,26.557837
504,496671824,-173.1688995,85.97415924,124.3062515,-9.737704277,-0.516375065,-0.984683394,7.993406296,-5.933356285,-1.576135635,-79.90833,-9.473548,-1.940353,7.521446,-0.4489,26.531568
505,496688491,-171.9549866,86.061203,125.4029007,-9.82981205,-0.493126392,-0.981424809,7.787173271,-7.345961571,-1.987834334,-80.07216,-9.481767,-1.95671,7.651232,-0.571333,26.498437
506,496705158,-170.5856628,86.16549683,126.6756439,-9.769883156,-0.45925951,-0.88917917,6.568109989,-8.54162693,-2.29539156,-80.234991,-9.489421,-1.97153,7.7607,-0.713693,26.46018
507,496721825,-169.1496124,86.27311707,128.0114136,-9.728884697,-0.472738922,-0.875473619,6.778608322,-8.847327232,-2.194823503,-80.397139,-9.4973,-1.986121,7.873677,-0.861148,26.4236
508,496738492,-167.7969208,86.36466217,129.2698364,-9.810665131,-0.531351686,-0.825371683,6.401921749,-7.922836781,-1.775338531,-80.56065,-9.506156,-1.999877,7.980376,-0.993195,26.394011
509,496755159,-166.4369659,86.44355774,130.5340118,-9.796825409,-0.513937771,-0.884029567,6.489657879,-7.244983196,-1.701151133,-80.72393,-9.514722,-2.014611,8.088537,-1.113945,26.365658
510,496771826,-164.8362732,86.52441406,132.0350494,-9.778120041,-0.480078876,-0.931517422,6.748667717,-7.652239323,-2.259572506,-80.886899,-9.522723,-2.030136,8.201015,-1.241482,26.327998
511,496788493,-163.0391235,86.60961914,133.7293701,-9.709396362,-0.391984016,-0.883563936,6.943170547,-8.167336464,-2.549700499,-81.048722,-9.529256,-2.044862,8.316735,-1.377604,26.285503
512,496805160,-161.3836365,86.67457581,135.2732239,-9.761311531,-0.312031716,-0.889042616,7.437264919,-6.933007717,-2.091578484,-81.211411,-9.534457,-2.059679,8.440689,-1.493154,26.250643
513,496821827,-160.0778046,86.73997498,136.4905396,-9.851508141,-0.113600843,-0.936686993,6.028283596,-6.665675163,-0.776634872,-81.375603,-9.53635,-2.07529,8.54116,-1.604249,26.237699
514,496838494,-158.9694519,86.83467865,137.564682,-9.818624496,0.022889525,-0.953322053,2.737089157,-8.158857346,0.48598823,-81.539247,-9.535969,-2.091179,8.586778,-1.74023,26.245799
515,496855161,-157.9406891,86.94469452,138.6024628,-9.757962227,0.098298684,-0.872693062,0.152011409,-8.962302208,1.162291765,-81.70188,-9.534331,-2.105724,8.589312,-1.889602,26.265171
516,496871828,-156.7692566,87.07444,139.8208466,-9.771952629,0.129485995,-0.693970799,-2.123927355,-10.23793125,1.351403356,-81.864746,-9.532173,-2.11729,8.553913,-2.060234,26.287694
517,496888495,-155.412796,87.21857452,141.2721863,-9.933725357,0.033597261,-0.568005085,-4.998609543,-11.23675251,1.402398586,-82.030308,-9.531613,-2.126757,8.470603,-2.247513,26.311067
518,496905162,-153.7994537,87.39015961,143.0319824,-10.06957722,-0.146316379,-0.399999112,-8.061187744,-13.02201176,1.794567943,-82.198134,-9.534052,-2.133424,8.33625,-2.464547,26.340976
519,496921829,-152.6087799,87.5535202,144.4157257,-10.09567547,-0.377480865,-0.316749036,-10.91226864,-11.97144413,3.002400398,-82.366395,-9.540343,-2.138703,8.154379,-2.664071,26.391016
520,496938496,-152.6130371,87.69200134,144.6542816,-10.09474754,-0.514534712,-0.392847955,-13.94237137,-9.24474144,5.160222054,-82.534641,-9.548919,-2.14525,7.922006,-2.81815,26.47702
521,496955163,-153.7018585,87.82022095,143.8219452,-10.00605297,-0.466765225,-0.558441281,-14.85313416,-7.533259869,7.063209057,-82.701409,-9.556698,-2.154557,7.674454,-2.943704,26.59474
522,496971830,-154.7568512,87.9681778,142.9828796,-9.853829384,-0.456497967,-0.555169642,-12.38698578,-8.779408455,7.389014721,-82.865639,-9.564306,-2.16381,7.468004,-3.090027,26.71789
523,496988497,-155.1450653,88.14945221,142.7256775,-9.601802826,-0.440241367,-0.298580736,-7.28915596,-11.19059944,6.926766872,-83.025669,-9.571643,-2.168786,7.346518,-3.276537,26.833336
524,497005164,-155.6277771,88.31786346,142.2821655,-9.333153725,-0.399538308,-0.045607269,-1.798274875,-10.39405441,6.801110268,-83.181222,-9.578302,-2.169546,7.316547,-3.449771,26.946688
525,497021831,-157.0229645,88.42567444,140.8639984,-9.213873863,-0.399351507,0.117634401,1.965173244,-6.544974804,6.683123112,-83.334787,-9.584958,-2.167585,7.3493,-3.558854,27.058073
526,497038498,-160.2400055,88.44304657,137.6231842,-9.361960411,-0.487496555,0.136153251,1.937729359,-0.591493428,7.186861515,-83.49082,-9.593083,-2.165316,7.381595,-3.568712,27.177854
527,497055165,-164.4440155,88.43077087,133.4680786,-9.556142807,-0.445779055,0.141157061,-2.440858841,1.21390152,8.120944023,-83.650089,-9.600513,-2.162963,7.340914,-3.54848,27.313203
528,497071832,-167.8953094,88.44178772,130.0862732,-9.488524437,-0.469596475,0.183285967,-3.658602476,-0.865165114,7.401456833,-83.808231,-9.60834,-2.159908,7.279937,-3.562899,27.436561
529,497088499,-170.7205048,88.40787506,127.2675476,-9.48582077,-0.374103129,0.393063843,0.128575772,1.341593266,6.057865143,-83.966328,-9.614575,-2.153357,7.28208,-3.540539,27.537525
530,497105166,-173.40625,88.31101227,124.5469055,-9.699676514,-0.347826838,0.396934122,2.620103121,4.873969555,5.698647976,-84.127989,-9.620372,-2.146741,7.325748,-3.459306,27.632502
531,497121833,-176.4283447,88.20039368,121.508728,-9.833315849,-0.361960322,0.219831198,1.470489621,5.581431866,6.813774109,-84.291878,-9.626405,-2.143077,7.350256,-3.366282,27.746065
532,497138500,-179.9582367,88.06983948,117.9650345,-9.736377716,-0.222130433,0.018296704,1.327583432,6.516871452,8.545859337,-84.454151,-9.630107,-2.142772,7.372382,-3.257667,27.888496
533,497155167,176.6318359,87.97184753,114.5680695,-9.703398705,-0.137829155,-0.091422811,-0.332420975,4.184796333,9.081728935,-84.615874,-9.632404,-2.144296,7.366842,-3.18792,28.039858
534,497171834,173.5858154,87.91568756,111.5020447,-9.604556084,-0.257467389,0.077824347,1.671856642,1.299844861,8.739093781,-84.77595,-9.636695,-2.142999,7.394706,-3.166256,28.18551
535,497188501,171.0055847,87.80982971,108.862915,-9.517203331,-0.38972944,0.295317978,4.011168003,4.006378174,8.579706192,-84.93457,-9.64319,-2.138077,7.461559,-3.099483,28.328505
536,497205168,169.006073,87.64749146,106.7960434,-9.38926506,-0.524723053,0.316697091,4.515789986,7.268157959,8.411714554,-85.091058,-9.651935,-2.132799,7.536822,-2.978347,28.4687
537,497221835,167.5999146,87.45071411,105.312233,-9.214342117,-0.571690619,0.110850364,5.175970554,9.304880142,8.003933907,-85.24463,-9.661463,-2.130951,7.623088,-2.823266,28.602099
538,497238502,166.5133362,87.2507782,104.1173019,-9.104828835,-0.576555312,0.070813365,7.006012917,9.499526024,7.809393406,-85.396377,-9.671072,-2.129771,7.739855,-2.664941,28.732256
539,497255169,165.3326569,87.06175232,102.7802658,-9.002557755,-0.627364874,0.082142524,9.867211342,8.582989693,8.514948845,-85.54642,-9.681528,-2.128402,7.904309,-2.521891,28.874172
540,497271836,164.2234955,86.84055328,101.4710541,-9.074988365,-0.611061037,0.089461274,12.49134159,10.28722477,9.422706604,-85.69767,-9.691712,-2.126911,8.112498,-2.350437,29.031217
541,497288503,163.8427124,86.56191254,100.8386002,-9.356799126,-0.626368523,0.019490566,15.34282875,14.00722599,8.607457161,-85.853617,-9.702151,-2.126586,8.368212,-2.116983,29.174675
542,497305170,163.9286652,86.32006836,100.6478653,-9.638526917,-0.621498883,-0.028976468,17.15319824,12.33627415,6.631472111,-86.014259,-9.712509,-2.127069,8.654099,-1.911378,29.2852
543,497321837,164.2597961,86.10328674,100.728035,-9.659564018,-0.53971833,-0.082021892,15.69571304,11.19486523,5.186284542,-86.175252,-9.721504,-2.128436,8.915694,-1.724797,29.371638
544,497338504,164.7150116,85.88858032,100.9359589,-9.72161293,-0.515166104,-0.04670389,15.43767548,11.23808575,4.537910461,-86.337279,-9.73009,-2.129214,9.172989,-1.537496,29.44727
545,497355171,165.1671143,85.69297791,101.1376724,-9.687807083,-0.646332145,-0.020748267,15.60118675,10.15542221,4.127107143,-86.498742,-9.740862,-2.12956,9.433009,-1.368239,29.516055
546,497371838,165.5401764,85.46331024,101.2689514,-9.638009071,-0.716592729,-0.097378694,15.09672165,12.10719109,4.844199657,-86.659375,-9.752805,-2.131183,9.684621,-1.166452,29.596792
547,497388505,165.8479767,85.26683044,101.306778,-9.461924553,-0.672108591,-0.150026247,16.76502037,10.09502888,4.689154148,-86.817074,-9.764007,-2.133683,9.964038,-0.998202,29.674945
548,497405172,166.2899933,85.08917236,101.4456635,-9.347608566,-0.664444387,-0.020231158,18.76892281,9.155989647,3.849798918,-86.972867,-9.775081,-2.13402,10.276853,-0.845602,29.739108
549,497421839,166.9043884,84.8815155,101.7417068,-9.257871628,-0.614052355,0.09534622,19.73140335,11.12019634,3.346035957,-87.127165,-9.785315,-2.132431,10.60571,-0.660265,29.794875
550,497438506,167.4585114,84.68323517,101.955162,-9.485351563,-0.608354032,0.178275123,21.05182457,10.51243305,3.479274511,-87.285254,-9.795454,-2.12946,10.956574,-0.485058,29.852863
551,497455173,167.7960052,84.50545502,101.9527435,-9.635037422,-0.769753695,0.283926576,20.93691063,9.103782654,4.283373356,-87.445838,-9.808283,-2.124728,11.305523,-0.333328,29.924253
552,497471840,167.9460297,84.32732391,101.7880325,-9.638205528,-0.978322148,0.30897674,19.3867588,8.939973831,5.176898479,-87.606475,-9.824588,-2.119578,11.628636,-0.184328,30.010535
553,497488507,168.2108154,84.11750031,101.7416534,-9.589107513,-1.035342693,0.232188851,19.20396423,10.97197533,4.878484726,-87.766293,-9.841844,-2.115708,11.948702,-0.001462,30.091843
554,497505174,168.7168121,83.89789581,101.8787613,-9.63901329,-0.974627674,0.184552774,22.72110367,11.81004333,3.806952715,-87.926943,-9.858088,-2.112632,12.327387,0.195372,30.155292
555,497521841,169.2515106,83.66374207,101.993721,-9.894693375,-0.903132379,0.386070937,25.76738167,12.67367268,3.974589586,-88.091855,-9.87314,-2.106197,12.756843,0.4066,30.221535
556,497538508,169.5940247,83.43239594,101.8971863,-10.08674049,-0.807682395,0.421673298,26.84793282,12.28342915,5.220012665,-88.259967,-9.886601,-2.099169,13.204309,0.611324,30.308535
557,497555175,169.6691437,83.20701599,101.5322723,-10.33550262,-0.589802444,0.435740501,26.78956795,11.62738132,6.980762482,-88.432225,-9.896431,-2.091907,13.650802,0.805114,30.424881
558,497571842,169.345459,83.02377319,100.8096924,-10.43459797,-0.097011916,0.285309851,24.15838242,8.666770935,9.157870293,-88.606135,-9.898048,-2.087152,14.053442,0.94956,30.577512
559,497588509,168.7782135,82.72184753,99.92327881,-10.74430847,0.313828617,-0.237511814,19.27615738,15.35818386,11.96179104,-88.785207,-9.892818,-2.091111,14.374711,1.20553,30.776875
560,497605176,167.6937256,82.17632294,98.67012787,-11.60423946,1.000490069,-0.995186567,10.01238251,28.85700989,18.38505745,-88.978611,-9.876143,-2.107697,14.541584,1.68648,31.083293
561,497621843,165.6887817,81.51010895,96.66088104,-13.05706692,1.302656889,-1.498527408,-0.422503591,33.80124283,27.87273407,-89.196229,-9.854432,-2.132672,14.534542,2.249834,31.547839
562,497638510,162.7918701,80.98336792,94.13328552,-13.37549877,1.889178753,-2.429672003,-23.37818718,22.98547173,32.8064537,-89.419154,-9.822946,-2.173167,14.144906,2.632925,32.094613
563,497655177,159.6318359,80.90992737,91.59893036,-13.63613033,2.294579506,-2.346572161,-38.89014435,-4.694274902,26.0678997,-89.646423,-9.784703,-2.212277,13.496737,2.554687,32.529078
564,497671844,155.999527,81.95523834,88.50740814,-11.06336784,1.927963972,-0.827592134,-33.9471283,-69.66146851,3.88926816,-89.830812,-9.75257,-2.22607,12.930952,1.393663,32.593899
565,497688511,155.0063477,83.04021454,87.42987061,-8.465762138,0.972768664,1.625528455,5.0808568,-63.89850998,-17.34565544,-89.971908,-9.736357,-2.198978,13.015633,0.328688,32.304805
566,497705178,159.3807678,83.32730103,91.31755066,-6.822276592,0.605227232,1.15940547,31.43140411,-6.277235031,-30.23207474,-90.085613,-9.72627,-2.179655,13.53949,0.224067,31.800937
567,497721845,165.1637878,83.19801331,96.78948212,-7.4970994,0.300108463,-0.478650421,21.50270081,18.00603294,-32.36258698,-90.210565,-9.721268,-2.187633,13.897868,0.524168,31.261561
568,497738512,169.679306,82.87192535,101.1734924,-8.179891586,-0.25501591,-1.584711313,10.41322613,24.91142654,-24.92125511,-90.346897,-9.725518,-2.214045,14.071422,0.939358,30.846207
569,497755179,172.0710602,82.18887329,103.5931396,-9.020605087,-0.080677755,-2.753354311,0.131791025,42.32867813,-10.18878078,-90.49724,-9.726863,-2.259934,14.073619,1.644836,30.676394
570,497771846,172.4997559,81.69163513,104.4031143,-10.2853756,0.370337903,-4.015919685,-21.8289299,29.34246826,-0.800893724,-90.668663,-9.720691,-2.326866,13.709804,2.133877,30.663046
571,497788513,172.3241119,81.97221375,104.7505722,-10.44792175,0.941579819,-2.766141653,-30.61348915,-17.46256638,-3.21710372,-90.842795,-9.704998,-2.372968,13.199579,1.842834,30.609428
572,497805180,172.9609833,82.46381378,105.6944962,-9.554434776,1.305911779,-1.166780591,-17.32667923,-29.4629631,-9.449687958,-91.002036,-9.683233,-2.392414,12.910801,1.351785,30.451933
573,497821847,174.8544922,82.76134491,107.8324585,-9.787272453,1.644331574,-1.171641231,-13.03346062,-17.18082237,-16.37583733,-91.165157,-9.655827,-2.411941,12.693577,1.065438,30.179002
574,497838514,177.6434479,83.06228638,110.9593506,-10.12452221,0.89155376,-1.573227048,-18.26695442,-17.67974091,-22.37887001,-91.333899,-9.640968,-2.438161,12.389128,0.770776,29.806021
575,497855181,-179.1774139,83.36667633,114.6476059,-10.02183914,0.356824934,-1.588898182,-28.41301918,-19.09783936,-24.49480247,-91.50093,-9.635021,-2.464643,11.915578,0.452479,29.397774
576,497871848,-175.7252655,83.59825897,118.7188416,-9.429937363,0.118999906,-1.732057929,-34.98410034,-16.30322266,-25.19094849,-91.658096,-9.633038,-2.493511,11.33251,0.180759,28.977925
577,497888515,-172.1750183,83.75013733,122.9002838,-8.826464653,0.09940587,-1.721775532,-35.75656509,-13.18339157,-24.6404438,-91.805204,-9.631381,-2.522207,10.736567,-0.038964,28.567251
578,497905182,-168.9910736,83.78249359,126.7621078,-8.312849045,-0.167200103,-1.653680444,-38.72566223,-7.24660778,-22.6216011,-91.943751,-9.634168,-2.549768,10.091139,-0.159741,28.190224
579,497921849,-166.3926239,83.70225525,130.0344849,-8.457243919,-0.644507349,-1.889022112,-38.67948914,-1.094610929,-20.05565262,-92.084705,-9.64491,-2.581252,9.446481,-0.177985,27.855963
580,497938516,-163.824585,83.74079132,133.2892456,-9.146119118,-1.103764415,-2.013267994,-39.4479599,-8.974873543,-18.161623,-92.23714,-9.663306,-2.614806,8.789015,-0.327566,27.553269
581,497955183,-161.4988861,83.87730408,136.3296204,-9.305012703,-1.432405591,-1.359041452,-41.23856354,-14.94372177,-14.45094204,-92.392224,-9.687179,-2.637457,8.101706,-0.576628,27.31242
582,497971850,-159.949707,83.93053436,138.5642242,-9.272968292,-1.503072977,-0.960526705,-39.80143356,-8.979234695,-10.49226379,-92.546773,-9.71223,-2.653466,7.438349,-0.726282,27.137549
583,497988517,-159.0657043,83.93563843,140.1318665,-9.286679268,-1.643933177,-0.726763606,-39.90933228,-5.05150032,-7.294981956,-92.701551,-9.739629,-2.665579,6.773193,-0.810474,27.015966
584,498005184,-158.7868195,83.88054657,141.0281067,-9.180756569,-1.658153415,-0.882058084,-36.17529678,-0.240869343,-4.598058701,-92.854564,-9.767265,-2.68028,6.170271,-0.814488,26.939332
585,498021851,-158.822998,83.83000946,141.4959106,-9.040495872,-1.569432855,-1.013263106,-29.5179882,0.460620224,-1.969782829,-93.005239,-9.793422,-2.697168,5.678305,-0.806811,26.906502
586,498038518,-159.0379639,83.8004303,141.6444855,-9.007225037,-1.455412626,-0.930939794,-21.19627571,0.025484676,0.404604435,-93.155359,-9.817679,-2.712684,5.325034,-0.806386,26.913245
587,498055185,-159.516983,83.78924561,141.4340515,-9.036077499,-1.409186244,-0.814490318,-15.63390923,-0.176145092,2.985546827,-93.30596,-9.841165,-2.726259,5.064469,-0.809322,26.963004
588,498071852,-160.5135345,83.76410675,140.6652832,-9.067984581,-1.250175953,-0.704711258,-13.39398575,1.847202301,6.135603905,-93.457093,-9.862001,-2.738004,4.841236,-0.778535,27.065264
589,498088519,-161.8937531,83.73193359,139.4847412,-9.03507328,-0.992670953,-0.474133134,-11.844697,3.020623207,8.644932747,-93.607678,-9.878546,-2.745906,4.643824,-0.728191,27.209346
590,498105186,-163.2751617,83.67950439,138.3247223,-9.10973835,-0.909766614,-0.081241421,-13.15477753,4.004049301,8.30518055,-93.759507,-9.893709,-2.74726,4.424578,-0.661457,27.347766
591,498121853,-164.6863251,83.52364349,137.1863098,-9.214113235,-0.813329875,-0.110389344,-16.24085045,9.810830116,6.706092834,-93.913076,-9.907264,-2.7491,4.153897,-0.497943,27.459534
592,498138520,-165.6458435,83.37125397,136.6475677,-9.489622116,-0.791531146,-0.063499808,-24.91188812,8.517882347,3.196549416,-94.071236,-9.920456,-2.750158,3.738699,-0.355978,27.51281
593,498155187,-166.3642731,83.12713623,136.4342499,-9.798909187,-0.774995625,-0.440478235,-29.84171867,13.31181622,-0.106184244,-94.234551,-9.933373,-2.757499,3.241337,-0.134114,27.51104
594,498171854,-167.0879669,82.88964081,136.3473816,-10.39505768,-0.825580776,-1.101277471,-37.70681,12.76299381,-0.678413689,-94.407802,-9.947133,-2.775854,2.61289,0.078603,27.499733
595,498188521,-167.2077332,82.91535187,136.9723206,-10.44207764,-0.945139766,-1.565791011,-43.84934616,-3.792978287,-2.194491625,-94.581837,-9.962885,-2.801951,1.882068,0.015387,27.463158
596,498205188,-166.6385956,83.14871216,138.3054657,-10.09835434,-1.127465487,-1.409654617,-44.71124268,-17.09472656,-4.301898956,-94.750143,-9.981676,-2.825445,1.136881,-0.269525,27.39146
597,498221855,-165.4759979,83.4703598,140.2307129,-9.965126038,-1.082332492,-1.172077179,-44.42741394,-23.24500656,-6.421539307,-94.916228,-9.999715,-2.84498,0.396424,-0.656942,27.284434
598,498238522,-164.1265717,83.76741028,142.2552185,-10.36895752,-0.388187021,-1.149052978,-39.21017838,-22.0165329,-6.360172272,-95.089044,-10.006185,-2.864131,-0.257079,-1.023884,27.178431
599,498255189,-163.3174591,83.97618103,143.7088013,-11.95422935,0.480772406,-1.317434669,-37.62680054,-15.91311455,-3.432537794,-95.288281,-9.998172,-2.886088,-0.884192,-1.289103,27.121222
600,498271856,-161.3652344,84.29360962,146.4427338,-12.99851131,0.026105341,-1.290570855,-45.49966431,-24.5092392,-8.214500427,-95.504923,-9.997737,-2.907598,-1.64252,-1.69759,26.984314
601,498288523,-158.4992981,84.34893036,150.2522125,-12.19206142,-1.62726748,-1.480103731,-54.94151688,-12.16278076,-18.12869263,-95.708124,-10.024858,-2.932266,-2.558212,-1.900303,26.682169
602,498305190,-157.7371063,83.61104584,151.9923096,-11.98658371,-2.929298162,-2.561947107,-57.54627609,35.68980026,-24.67159653,-95.9079,-10.07368,-2.974965,-3.517317,-1.305473,26.270976
603,498321857,-158.2172699,82.5402832,152.3769684,-12.889328,-2.334433556,-3.467644453,-51.19447708,57.19869995,-24.67063141,-96.122722,-10.112587,-3.032759,-4.370558,-0.352161,25.859799
604,498338524,-158.6418304,81.81098938,152.7902985,-11.80520153,-1.171018243,-3.492215395,-49.52202988,38.10065842,-17.21272278,-96.319475,-10.132104,-3.090963,-5.195925,0.28285,25.57292
605,498355191,-158.3490753,81.80063629,153.8998108,-9.848996162,0.688431501,-3.491396189,-47.81316757,-4.274570942,-7.042429924,-96.483625,-10.12063,-3.149153,-5.992811,0.211607,25.455546
606,498371858,-157.0844727,82.41320038,155.8738251,-7.541472435,2.273755312,-3.119524717,-40.93553162,-41.56987762,0.880844116,-96.609316,-10.082734,-3.201145,-6.67507,-0.481224,25.470227
607,498388525,-154.5603485,83.35692596,158.9692841,-6.203533173,3.050920248,-1.520830274,-32.33761978,-62.47777557,4.164544582,-96.712708,-10.031885,-3.226492,-7.21403,-1.52252,25.539636
608,498405192,-149.8582764,84.34410858,164.102478,-7.2649827,2.882104874,0.731327832,-23.57496643,-69.15174866,0.342128038,-96.833791,-9.98385,-3.214303,-7.606946,-2.675049,25.545338
609,498421859,-145.865448,84.91157532,168.6019592,-8.896224976,1.019725204,1.281189322,-28.67315865,-43.65765381,-1.404518008,-96.982061,-9.966855,-3.19295,-8.084832,-3.402677,25.521929
610,498438526,-147.1066589,84.98499298,168.2576599,-10.76979923,-1.287658811,-0.044344082,-53.31814957,-4.078255177,5.843378544,-97.161558,-9.988316,-3.193689,-8.973468,-3.470648,25.619319
611,498455193,-149.2604065,85.14833069,167.1101379,-12.19413471,-2.495741844,-1.754480362,-60.07427979,-6.586502075,12.07867527,-97.364794,-10.029912,-3.22293,-9.974706,-3.580423,25.82063
612,498471860,-150.0196228,85.64616394,167.0437317,-12.02353764,-2.582160473,-2.017005682,-41.02850723,-27.0108757,17.2749958,-97.565186,-10.072948,-3.256547,-10.658514,-4.030604,26.108547
613,498488527,-153.1238708,86.07953644,164.4593048,-10.57644176,-0.68497324,-1.107517242,-31.05015373,-18.94398499,24.12944412,-97.74146,-10.084364,-3.275006,-11.176017,-4.346337,26.510704
614,498505194,-157.4951019,86.21307373,160.2159882,-10.03751755,0.887670934,-0.844951391,-7.699344635,-1.557933569,20.81369591,-97.908752,-10.069569,-3.289089,-11.304339,-4.372303,26.857599
615,498521861,-158.1186676,86.61071777,159.6197052,-9.029356003,1.571011782,-0.824384034,-1.160520673,-22.66361237,12.99257278,-98.059241,-10.043385,-3.302829,-11.323681,-4.75003,27.074142
616,498538528,-156.4921417,87.13816833,161.3522034,-7.918985844,1.644233823,0.134839833,-5.663741112,-32.78396606,8.861737251,-98.191224,-10.015981,-3.300582,-11.418077,-5.296429,27.221838
617,498555195,-156.5507813,87.44235992,161.4703522,-7.856364727,0.979159355,0.998572886,-10.0488224,-18.27554703,8.828457832,-98.322163,-9.999662,-3.283939,-11.585557,-5.601021,27.368979
618,498571862,-161.905426,87.46186829,156.4133606,-8.439809799,0.285153359,0.849852502,-17.57971001,2.275346756,14.88715267,-98.462826,-9.994909,-3.269775,-11.878552,-5.563099,27.617098
619,498588529,-169.8849182,87.27688599,148.8177338,-8.97443676,-0.00746138,0.117189325,-22.94444084,14.45093346,19.42253304,-98.6124,-9.995033,-3.267822,-12.260959,-5.32225,27.940807
620,498605196,-176.7779541,87.00846863,142.3059998,-9.146130562,-0.276276469,-0.49025628,-22.80278015,16.86859322,19.31291389,-98.764836,-9.999638,-3.275993,-12.641005,-5.041107,28.262689
621,498621863,177.8366241,86.7888031,137.2870026,-9.012670517,-0.562937856,-0.810028076,-21.84878922,11.92400646,18.01246071,-98.915047,-10.00902,-3.289493,-13.005151,-4.842374,28.562897
622,498638530,173.9931793,86.5623703,133.6937714,-8.669143677,-0.438189477,-0.925431967,-14.81927586,11.28228855,15.28611374,-99.059533,-10.016323,-3.304917,-13.252139,-4.654336,28.817666
623,498655197,171.6966553,86.32086945,131.5588226,-8.840267181,-0.155315503,-0.792826474,-9.380752563,11.99296284,11.54438114,-99.206871,-10.018912,-3.318131,-13.408485,-4.454453,29.010072
624,498671864,170.3943481,86.16207123,130.3309631,-9.010659218,-0.016413016,-0.506027102,-4.058372498,7.262349129,8.104675293,-99.357049,-10.019186,-3.326565,-13.476125,-4.333414,29.14515
625,498688531,169.9371185,85.99855804,129.9290314,-9.285736084,-0.363301098,-0.065130182,-2.82606101,8.014484406,5.152853966,-99.511811,-10.025241,-3.327651,-13.523226,-4.199839,29.231031
626,498705198,170.1656647,85.75084686,130.1770325,-9.65792942,-0.519828975,-0.017279204,-0.568154097,13.43751335,3.367284536,-99.672776,-10.033905,-3.327939,-13.532695,-3.97588,29.287152
627,498721865,170.4343414,85.56876373,130.4433289,-10.06030083,-0.785411954,-0.122570902,0.747961402,9.606526375,2.508463621,-99.840448,-10.046995,-3.329982,-13.520229,-3.815771,29.32896
628,498738532,170.649704,85.51589966,130.5719757,-9.656851768,-0.803157151,0.038760856,5.775242329,1.872083783,1.796142101,-100.001396,-10.060381,-3.329336,-13.423975,-3.78457,29.358896
629,498755199,170.9971313,85.52696991,130.7541199,-8.981245041,-0.836580515,0.261526793,10.50911999,-1.876003027,0.925355315,-100.151083,-10.074324,-3.324977,-13.248823,-3.815837,29.374319
630,498771866,171.7970276,85.47585297,131.2194061,-8.466828346,-0.790779233,0.25736773,20.71882248,2.024686813,0.175434455,-100.292197,-10.087504,-3.320688,-12.903509,-3.782092,29.377243
631,498788533,172.9391479,85.28328705,131.8749237,-8.262495995,-0.406494379,0.317946523,29.88465691,10.54034138,0.283495158,-100.429905,-10.094279,-3.315389,-12.405431,-3.60642,29.381968
632,498805200,174.1326752,84.95495605,132.5339355,-8.349292755,0.192308411,0.04214365,32.7747345,18.63521385,0.767296255,-100.56906,-10.091074,-3.314687,-11.859185,-3.295833,29.394756
633,498821867,175.4502411,84.57003784,133.2995605,-8.597079277,0.697352648,-0.122835517,33.87752533,22.05918312,-0.189976916,-100.712345,-10.079451,-3.316734,-11.29456,-2.92818,29.39159
634,498838534,176.87146,84.12570953,134.2190857,-9.038749695,1.115818501,-0.142471954,30.94001961,25.65719032,-1.753128529,-100.862991,-10.060854,-3.319109,-10.778893,-2.50056,29.362371
635,498855201,178.3177948,83.69024658,135.275589,-9.290716171,1.082847595,-0.390258551,24.31191444,25.10344124,-3.754146576,-101.017836,-10.042807,-3.325613,-10.373694,-2.082169,29.299802
636,498871868,179.7643585,83.28434753,136.4064484,-9.470199585,0.944972515,-0.532150269,19.94574547,23.20800781,-5.428924084,-101.175673,-10.027057,-3.334482,-10.041265,-1.695369,29.20932
637,498888535,-178.782547,82.89383698,137.6230469,-9.572173119,1.180042982,-0.592342317,15.30379677,22.0709343,-7.134353161,-101.335209,-10.00739,-3.344354,-9.786202,-1.32752,29.090414
638,498905202,-177.4603271,82.62520599,138.8267059,-9.815875053,1.248435497,-0.297833771,8.273500443,14.54076958,-7.788952351,-101.498807,-9.986583,-3.349318,-9.64831,-1.085174,28.960598
639,498921869,-176.4131165,82.38815308,139.8815765,-9.587568283,1.047478557,-0.269985348,0.673524797,12.49613762,-7.178303719,-101.6586,-9.969125,-3.353818,-9.637085,-0.876905,28.84096
640,498938536,-175.6634521,82.12702942,140.6376038,-9.686404228,0.685782731,-0.09718506,0.623567224,13.96688461,-5.368969917,-101.82004,-9.957695,-3.355438,-9.626692,-0.644124,28.751477
641,498955203,-175.2631531,81.7896347,141.0512543,-9.672734261,0.512140989,-0.208100349,0.046346232,18.66604424,-3.258957386,-101.981252,-9.949159,-3.358906,-9.62592,-0.333023,28.697161
642,498971870,-175.2905884,81.2695694,141.1357117,-9.653144836,0.400366604,-0.76200217,-6.050833702,29.81332779,-1.516744018,-102.142138,-9.942486,-3.371606,-9.726767,0.163866,28.671882
643,498988537,-176.2365875,80.25424194,140.5119171,-10.90635872,0.569427848,-2.092419147,-19.20355606,59.97359085,3.282799959,-102.323911,-9.932996,-3.40648,-10.046826,1.163426,28.726595
644,499005204,-178.1159058,79.03385925,139.1793365,-12.94624138,0.847762764,-3.868030071,-33.48891068,72.61328125,12.53054523,-102.539682,-9.918867,-3.470947,-10.604975,2.373647,28.935437
645,499021871,179.4413605,78.00862122,137.4741821,-13.62622929,1.335651994,-5.227035522,-45.68671417,60.49860764,21.41962624,-102.766786,-9.896606,-3.558064,-11.36642,3.381957,29.292431
646,499038538,176.7202148,77.09494019,135.6012421,-13.68433094,1.52402389,-6.085468292,-52.92527771,52.70726776,27.80169106,-102.994858,-9.871206,-3.659488,-12.248508,4.260411,29.755793
647,499055205,174.163208,76.80123901,133.7365723,-13.5027771,0.955315888,-5.136327267,-43.83328629,14.26332092,28.3282299,-103.219904,-9.855284,-3.745093,-12.979063,4.498133,30.22793
648,499071872,172.5432892,76.94039917,132.2773285,-10.68278217,-0.647325635,-2.258402109,-11.3353672,-11.90684128,20.52059746,-103.39795,-9.866073,-3.782733,-13.167986,4.299686,30.56994
649,499088539,173.1260071,76.46778107,132.3595581,-7.365862846,-1.616460204,-0.620156705,30.74610329,26.96906281,4.152509212,-103.520714,-9.893014,-3.793069,-12.655551,4.74917,30.639148
650,499105206,174.6088104,75.68442535,133.2751312,-6.667547226,-1.710576415,-1.485807419,36.23066711,46.84391403,-6.364765644,-103.63184,-9.921524,-3.817832,-12.051707,5.529902,30.533069
