PacketCounter,SampleTimeFine,Euler_X,Euler_Y,Euler_Z,Acc_X,Acc_Y,Acc_Z,Gyr_X,Gyr_Y,Gyr_Z,Velo_X,Velo_Y,Velo_Z,ANG_X,ANG_Y,ANG_Z
0,530134212,-162.4031372,-57.3643074,-173.4975281,0.0,0.0,0.0,0.0,0.0,0.0,0.0,0.0,0.0,0.0,0.0,0.0
1,530150879,-162.3145447,-57.38488007,-173.5703735,8.205289841,-1.597129583,-4.979720116,2.418664694,1.10641098,0.313006401,0.136755,-0.026619,-0.082995,0.040311,0.01844,0.005217
2,530167546,-162.230072,-57.4160881,-173.6417389,8.19487381,-1.596984625,-5.017226696,2.390798092,0.983405948,0.265622884,0.273336,-0.053235,-0.166615,0.080158,0.03483,0.009644
3,530184213,-162.1733704,-57.42523956,-173.6479645,8.209806442,-1.605342388,-4.99379015,2.2030828,0.978603661,0.300737917,0.410166,-0.079991,-0.249845,0.116876,0.05114,0.014656
4,530200880,-162.1131897,-57.43928146,-173.6596832,8.208438873,-1.59751904,-4.993965149,2.475281477,1.078428984,0.260602802,0.546973,-0.106616,-0.333078,0.158131,0.069114,0.018999
5,530217547,-162.0651398,-57.45332718,-173.6730499,8.209897041,-1.59064877,-5.027142525,2.286785126,1.016933084,0.225308523,0.683805,-0.133127,-0.416864,0.196244,0.086063,0.022754
6,530234214,-162.0305023,-57.46097565,-173.6981659,8.209300995,-1.607974291,-4.989807606,2.343427658,0.91089654,0.11832428,0.820627,-0.159927,-0.500027,0.235301,0.101245,0.024726
7,530250881,-161.9897156,-57.4716835,-173.7402954,8.20249939,-1.599248886,-4.996378899,2.420457602,0.98389262,0.1468696,0.957335,-0.186581,-0.5833,0.275642,0.117643,0.027174
8,530267548,-161.9529419,-57.48123932,-173.7656555,8.193784714,-1.570994139,-5.012619495,2.222855806,0.9259184,0.185301483,1.093898,-0.212764,-0.666844,0.31269,0.133075,0.030262
9,530284215,-161.921814,-57.48848724,-173.7747192,8.189561844,-1.574028969,-5.004724026,2.402374983,0.831432998,0.143335059,1.230391,-0.238998,-0.750256,0.35273,0.146932,0.032651
10,530300882,-161.8966064,-57.49458694,-173.7655792,8.204395294,-1.574986696,-5.015584469,2.231038809,0.77581507,0.155577928,1.367131,-0.265248,-0.833849,0.389914,0.159862,0.035244
11,530317549,-161.8680725,-57.50269318,-173.7460327,8.198173523,-1.58044517,-5.003404617,2.539377213,0.895106196,0.104787953,1.503767,-0.291589,-0.917239,0.432237,0.17478,0.03699
12,530334216,-161.838562,-57.50931931,-173.7556152,8.21773243,-1.597542644,-5.012726307,2.47275877,0.815271378,0.197685197,1.640729,-0.318215,-1.000784,0.47345,0.188368,0.040285
13,530350883,-161.8049164,-57.51849747,-173.770401,8.250964165,-1.591552138,-5.00483799,2.424338102,0.990283072,0.271244913,1.778245,-0.344741,-1.084198,0.513856,0.204873,0.044806
14,530367550,-161.7662201,-57.52968597,-173.8171387,8.225719452,-1.585621595,-4.996063709,2.441332579,1.078659654,0.394531667,1.91534,-0.371168,-1.167466,0.554545,0.222851,0.051382
15,530384217,-161.7270203,-57.54478836,-173.8272705,8.232904434,-1.579419017,-5.024320602,2.372677088,1.27770865,0.369405538,2.052555,-0.397492,-1.251205,0.59409,0.244146,0.057539
16,530400884,-161.6851044,-57.55891418,-173.8750153,8.189691544,-1.601269603,-5.020190239,2.698189497,1.20250988,0.304362118,2.18905,-0.42418,-1.334875,0.63906,0.264188,0.062612
17,530417551,-161.6471558,-57.57236862,-173.9028473,8.199542046,-1.59745121,-4.994888783,2.527122021,1.19225204,0.22363089,2.325709,-0.450804,-1.418123,0.681179,0.284059,0.066339
18,530434218,-161.6097565,-57.58538818,-173.9418945,8.192772865,-1.588393927,-4.972030163,2.31047678,1.189754605,0.310688436,2.462255,-0.477277,-1.50099,0.719687,0.303888,0.071517
19,530450885,-161.5638733,-57.5977478,-173.9874268,8.167136192,-1.571494102,-5.007920265,2.83505106,1.11793685,0.297305852,2.598374,-0.503469,-1.584455,0.766938,0.32252,0.076472
20,530467552,-161.5350342,-57.60623169,-173.9918213,8.202240944,-1.576409817,-4.985821724,2.076120853,0.881941378,0.224514544,2.735078,-0.529742,-1.667552,0.80154,0.337219,0.080214
21,530484219,-161.5015259,-57.61359024,-174.0466309,8.238166809,-1.590446949,-4.991589069,2.434288502,0.784766734,0.204408541,2.872381,-0.556249,-1.750745,0.842111,0.350298,0.083621
22,530500886,-161.4684601,-57.62232971,-174.1079712,8.243862152,-1.584263444,-5.002645969,2.335129261,0.848042965,0.214999422,3.009779,-0.582653,-1.834122,0.88103,0.364432,0.087204
23,530517553,-161.4309082,-57.62907791,-174.1021881,8.244168282,-1.592636824,-5.018620968,2.510095358,0.738093972,0.310054511,3.147182,-0.609197,-1.917766,0.922865,0.376734,0.092372
24,530534220,-161.3969574,-57.63647842,-174.1039734,8.233047485,-1.602725506,-5.00026989,2.370212078,0.759788036,0.246214896,3.284399,-0.635909,-2.001104,0.962369,0.389397,0.096476
25,530550887,-161.3586426,-57.64461136,-174.1880035,8.212971687,-1.593124986,-4.97820282,2.397752047,0.837810576,0.354575813,3.421282,-0.662461,-2.084074,1.002332,0.403361,0.102386
26,530567554,-161.3151093,-57.65370941,-174.156311,8.192336082,-1.59269011,-5.003611565,2.62887454,0.893524587,0.373817354,3.557821,-0.689006,-2.167468,1.046147,0.418253,0.108616
27,530584221,-161.2786407,-57.66004181,-174.1809082,8.174171448,-1.584228873,-5.012147427,2.303369284,0.72898227,0.359403819,3.694057,-0.71541,-2.251004,1.084536,0.430403,0.114606
28,530600888,-161.2414246,-57.66598892,-174.1771851,8.192510605,-1.602418303,-5.019924164,2.341045618,0.729020715,0.36776638,3.830599,-0.742117,-2.334669,1.123553,0.442553,0.120735
29,530617555,-161.2027435,-57.67394638,-174.1772308,8.179643631,-1.602760911,-4.995007515,2.466105461,0.848561525,0.294059366,3.966926,-0.76883,-2.417919,1.164655,0.456696,0.125636
30,530634222,-161.1668091,-57.68244553,-174.1781921,8.205786705,-1.610502124,-5.022597313,2.414079905,0.859081924,0.202705309,4.103689,-0.795672,-2.501629,1.20489,0.471014,0.129014
31,530650889,-161.1322632,-57.69144058,-174.2255402,8.207555771,-1.600613952,-4.990654469,2.318288803,0.89592576,0.188733578,4.240482,-0.822349,-2.584807,1.243528,0.485946,0.13216
32,530667556,-161.0931091,-57.69896698,-174.2374115,8.226247787,-1.608828902,-4.996172428,2.457897186,0.834717929,0.294238687,4.377586,-0.849163,-2.668077,1.284493,0.499858,0.137064
33,530684223,-161.0554199,-57.70803833,-174.188446,8.229305267,-1.601227403,-4.996854782,2.414874077,0.904467642,0.22922723,4.514741,-0.87585,-2.751358,1.324741,0.514932,0.140884
34,530700890,-161.0203247,-57.71891785,-174.2101288,8.216876984,-1.602365732,-4.996483803,2.434519053,0.96329999,0.087576218,4.651689,-0.902556,-2.834633,1.365316,0.530987,0.142344
35,530717557,-160.9815674,-57.72619247,-174.3806,8.183162689,-1.579215527,-4.976960182,2.521230698,0.782333493,0.235476747,4.788075,-0.928876,-2.917582,1.407337,0.544026,0.146269
36,530734224,-160.9454498,-57.7306366,-174.4626923,8.191596031,-1.590360165,-4.998696327,2.341122389,0.624559283,0.308780313,4.924602,-0.955382,-3.000894,1.446356,0.554435,0.151415
37,530750891,-160.9080505,-57.73627853,-174.4911499,8.213527679,-1.592862129,-5.002302647,2.363322258,0.704989552,0.319287926,5.061494,-0.98193,-3.084266,1.485745,0.566185,0.156736
38,530767558,-160.8708954,-57.73994064,-174.6026154,8.237333298,-1.58835113,-5.005039215,2.263535261,0.610542774,0.40941906,5.198783,-1.008403,-3.167683,1.523471,0.576361,0.16356
39,530784225,-160.8326721,-57.74618149,-174.6873016,8.227902412,-1.601276278,-4.994103432,2.379746675,0.744529188,0.335174233,5.335915,-1.035091,-3.250918,1.563133,0.58877,0.169146
40,530800892,-160.7904816,-57.7533226,-174.6871338,8.214416504,-1.601593494,-5.004119873,2.562576294,0.802638054,0.348460793,5.472822,-1.061784,-3.33432,1.605843,0.602147,0.174954
41,530817559,-160.7533417,-57.75959778,-174.6989136,8.174972534,-1.60178268,-4.989830494,2.292829752,0.746462941,0.344484389,5.609072,-1.08848,-3.417484,1.644057,0.614588,0.180695
42,530834226,-160.7115784,-57.76646042,-174.7391205,8.182529449,-1.600216627,-5.000691891,2.540452957,0.787878633,0.346930385,5.745447,-1.11515,-3.500829,1.686398,0.627719,0.186477
43,530850893,-160.674881,-57.7743454,-174.8823395,8.191791534,-1.577641964,-4.993015766,2.35499835,0.826957285,0.255858064,5.881977,-1.141444,-3.584046,1.725648,0.641502,0.190741
44,530867560,-160.6422424,-57.77891922,-174.8073425,8.213586807,-1.599760056,-4.972668648,2.194662571,0.6243608,0.280292571,6.01887,-1.168107,-3.666924,1.762226,0.651908,0.195413
45,530884227,-160.6082764,-57.78409958,-174.8323669,8.236741066,-1.606612444,-5.001792431,2.181382418,0.671821177,0.322886497,6.156149,-1.194884,-3.750287,1.798582,0.663105,0.200794
46,530900894,-160.5734406,-57.79079819,-174.8787537,8.227358818,-1.591422796,-4.976930618,2.158548832,0.772094905,0.336627722,6.293272,-1.221408,-3.833236,1.834558,0.675973,0.206404
47,530917561,-160.5329285,-57.79629517,-174.8420563,8.219376564,-1.603724122,-4.999630928,2.530521631,0.693643093,0.345271975,6.430262,-1.248137,-3.916563,1.876733,0.687534,0.212159
48,530934228,-160.5041809,-57.80273819,-174.9149017,8.207193375,-1.61709404,-4.983086586,1.995197296,0.711501539,0.227549627,6.567049,-1.275089,-3.999614,1.909986,0.699392,0.215951
49,530950895,-160.4669647,-57.80844116,-174.8589172,8.189322472,-1.612922072,-5.008232594,2.472060919,0.674997091,0.256754488,6.703538,-1.301971,-4.083085,1.951187,0.710642,0.22023
50,530967562,-160.4360352,-57.81391907,-174.9306793,8.204263687,-1.590118289,-5.021870613,2.139377594,0.658899486,0.234330609,6.840276,-1.328473,-4.166783,1.986843,0.721624,0.224136
51,530984229,-160.4095154,-57.8202858,-174.8161163,8.224247932,-1.585858583,-5.009339333,2.228567362,0.641489267,0.012274887,6.977347,-1.354904,-4.250272,2.023986,0.732315,0.224341
52,531000896,-160.3769226,-57.82587051,-174.9593964,8.201290131,-1.588247657,-5.004410744,2.570112705,0.605336964,0.046442222,7.114035,-1.381375,-4.333679,2.066821,0.742404,0.225115
53,531017563,-160.3468475,-57.83035278,-174.9370117,8.223279953,-1.585987449,-5.007269859,2.237954617,0.585717678,0.183047563,7.25109,-1.407808,-4.417133,2.10412,0.752166,0.228166
54,531034230,-160.311615,-57.83786392,-174.9305115,8.230586052,-1.609294176,-5.007306576,2.421898127,0.784068763,0.20016323,7.388266,-1.43463,-4.500588,2.144485,0.765234,0.231502
55,531050897,-160.2752228,-57.84846497,-174.9425049,8.224648476,-1.594295382,-5.012266636,2.36816287,0.986934066,0.213801995,7.525343,-1.461202,-4.584126,2.183954,0.781683,0.235065
56,531067564,-160.2393951,-57.85905075,-174.9382782,8.201334953,-1.589956164,-5.013261318,2.445621967,0.966680825,0.152453184,7.662032,-1.487701,-4.66768,2.224714,0.797794,0.237606
57,531084231,-160.2023773,-57.87023926,-174.9301605,8.169733047,-1.568722963,-5.003067493,2.438962936,1.022401333,0.189809307,7.798194,-1.513846,-4.751064,2.265363,0.814834,0.240769
58,531100898,-160.1685333,-57.8802948,-174.9934235,8.159040451,-1.600927711,-4.995783329,2.396580458,0.935234845,0.133109197,7.934178,-1.540528,-4.834327,2.305306,0.830421,0.242987
59,531117565,-160.1351318,-57.88965225,-175.0175934,8.188100815,-1.584409833,-5.013305664,2.281246424,0.919790447,0.203044683,8.070646,-1.566935,-4.917882,2.343327,0.845751,0.246371
60,531134232,-160.1004791,-57.89691925,-175.0244293,8.245959282,-1.588481545,-4.999880314,2.415309429,0.795946598,0.215806171,8.208079,-1.59341,-5.001213,2.383582,0.859017,0.249968
61,531150899,-160.0641327,-57.90400314,-175.0960236,8.258280754,-1.58047235,-5.011878967,2.41892767,0.806467116,0.284467459,8.345717,-1.619751,-5.084744,2.423897,0.872458,0.254709
62,531167566,-160.0276947,-57.91168594,-175.1634827,8.241557121,-1.582442522,-4.990184307,2.342473507,0.860125601,0.328559726,8.483076,-1.646125,-5.167914,2.462938,0.886793,0.260185
63,531184233,-159.9877625,-57.919384,-175.1826019,8.213125229,-1.609244347,-4.977186203,2.546536207,0.863154411,0.340002179,8.619961,-1.672946,-5.250867,2.50538,0.901179,0.265852
64,531200900,-159.9511414,-57.92346954,-175.25383,8.202467918,-1.588470817,-4.986609936,2.338798046,0.661409616,0.420803815,8.756669,-1.699421,-5.333977,2.54436,0.912202,0.272865
65,531217567,-159.9076233,-57.92880249,-175.2805786,8.182663918,-1.593269467,-5.009806156,2.633792162,0.761042893,0.470979154,8.893047,-1.725975,-5.417474,2.588257,0.924886,0.280715
66,531234234,-159.8727112,-57.93280411,-175.3323669,8.184641838,-1.573566794,-5.010745525,2.232134104,0.667812765,0.436145902,9.029458,-1.752201,-5.500986,2.625459,0.936016,0.287984
67,531250901,-159.840683,-57.93787766,-175.254425,8.186533928,-1.592084885,-5.021140575,2.260423422,0.694911003,0.304560632,9.1659,-1.778736,-5.584672,2.663133,0.947598,0.29306
68,531267568,-159.8083191,-57.9426384,-175.2942657,8.22040081,-1.604767442,-5.023910046,2.319511652,0.675637424,0.294072211,9.302907,-1.805482,-5.668404,2.701792,0.958859,0.297961
69,531284235,-159.7772675,-57.94949722,-175.2981262,8.232017517,-1.634011388,-5.010440826,2.257990122,0.796811104,0.246266127,9.440107,-1.832716,-5.751911,2.739425,0.972139,0.302065
70,531300902,-159.7409058,-57.95967484,-175.3564148,8.220629692,-1.604210734,-5.011901855,2.541855335,0.995719314,0.198728919,9.577117,-1.859453,-5.835443,2.781789,0.988734,0.305377
71,531317569,-159.7080231,-57.96867752,-175.3847656,8.194588661,-1.604747415,-5.008916378,2.376858473,0.925770998,0.203095898,9.713693,-1.886199,-5.918925,2.821403,1.004164,0.308762
72,531334236,-159.6738739,-57.97908783,-175.3846893,8.192967415,-1.595121861,-4.993502617,2.424754143,1.017310858,0.196270108,9.850242,-1.912784,-6.00215,2.861816,1.021119,0.312033
73,531350903,-159.6413116,-57.98812866,-175.3950195,8.197502136,-1.591088891,-5.013406277,2.527704716,0.902565956,0.114962608,9.986867,-1.939302,-6.085707,2.903944,1.036162,0.313949
74,531367570,-159.6138458,-57.99608612,-175.4437714,8.194389343,-1.583439946,-5.019121647,2.211541653,0.85199368,0.151832089,10.12344,-1.965693,-6.169359,2.940803,1.050362,0.31648
75,531384237,-159.5870819,-58.00280762,-175.4598389,8.216975212,-1.588540792,-4.991877556,2.301096201,0.76286149,0.109161332,10.26039,-1.992169,-6.252557,2.979155,1.063076,0.318299
76,531400904,-159.5541077,-58.01100922,-175.4692688,8.244646072,-1.613949895,-4.990607262,2.396145105,0.910685122,0.248763338,10.397801,-2.019068,-6.335734,3.019091,1.078254,0.322445
77,531417571,-159.5182343,-58.02023697,-175.4714355,8.210785866,-1.60022974,-4.970718384,2.539806604,0.978417993,0.252425969,10.534647,-2.045738,-6.418579,3.061421,1.094561,0.326652
78,531434238,-159.4837341,-58.02813339,-175.4883423,8.202853203,-1.564125419,-4.999979019,2.541368723,0.888658226,0.23773706,10.671361,-2.071807,-6.501912,3.103777,1.109372,0.330614
79,531450905,-159.4510498,-58.03628922,-175.5256805,8.183781624,-1.578104138,-4.989019871,2.341692209,0.930253327,0.295211971,10.807757,-2.098109,-6.585062,3.142805,1.124876,0.335534
80,531467572,-159.4151306,-58.04332352,-175.5341187,8.173428535,-1.601011992,-5.014527321,2.611342669,0.857039273,0.28695187,10.943981,-2.124793,-6.668637,3.186327,1.13916,0.340317
81,531484239,-159.3861847,-58.04933548,-175.535675,8.192863464,-1.576650858,-5.004370213,2.247975588,0.799807787,0.281547606,11.080529,-2.151071,-6.752043,3.223793,1.15249,0.345009
82,531500906,-159.3577118,-58.05495453,-175.5260315,8.207028389,-1.58925724,-4.977824688,2.358404636,0.754204392,0.220089927,11.217313,-2.177559,-6.835007,3.2631,1.16506,0.348677
83,531517573,-159.3244171,-58.06141663,-175.5319672,8.226686478,-1.594404817,-4.988042831,2.564061642,0.825215578,0.258713841,11.354424,-2.204132,-6.918141,3.305834,1.178814,0.352989
84,531534240,-159.2949371,-58.06701279,-175.5483704,8.219417572,-1.602095842,-4.983115673,2.27299881,0.796183586,0.325345308,11.491414,-2.230834,-7.001193,3.343717,1.192084,0.358411
85,531550907,-159.2633209,-58.07067871,-175.5319214,8.235312462,-1.602617383,-4.994875908,2.355548859,0.703888237,0.399583727,11.628669,-2.257544,-7.084441,3.382976,1.203815,0.365071
86,531567574,-159.2307739,-58.07595062,-175.5339813,8.222673416,-1.568285465,-4.98910141,2.246169806,0.836818218,0.470556557,11.765714,-2.283682,-7.167593,3.420412,1.217762,0.372914
87,531584241,-159.2033997,-58.07998276,-175.541626,8.190134048,-1.579907537,-5.006721497,2.364475012,0.679812372,0.259431064,11.902216,-2.310014,-7.251038,3.45982,1.229092,0.377238
88,531600908,-159.1832123,-58.08481598,-175.5592804,8.187387466,-1.598608136,-5.008705616,2.017524958,0.715401113,0.205221742,12.038672,-2.336657,-7.334516,3.493445,1.241015,0.380658
89,531617575,-159.1602173,-58.08872604,-175.5617676,8.184215546,-1.612216115,-4.989878654,2.336953878,0.63945955,0.146453425,12.175076,-2.363527,-7.417681,3.532394,1.251673,0.383099
90,531634242,-159.1370239,-58.09194946,-175.5683899,8.174941063,-1.594125867,-5.019197941,2.327477217,0.615191519,0.181568429,12.311325,-2.390096,-7.501334,3.571185,1.261926,0.386125
91,531650909,-159.1195068,-58.09540558,-175.5588531,8.192900658,-1.584922075,-5.003477097,2.10185504,0.612374127,0.120021112,12.447873,-2.416511,-7.584725,3.606216,1.272132,0.388125
92,531667576,-159.0990906,-58.09957123,-175.5486755,8.208981514,-1.597785473,-4.987078667,2.365909338,0.642366529,0.062238865,12.584689,-2.443141,-7.667843,3.645648,1.282838,0.389162
93,531684243,-159.0841064,-58.10165405,-175.5445251,8.224305153,-1.578383207,-5.010537148,2.321471214,0.470018685,-0.0457763,12.721761,-2.469447,-7.751352,3.684339,1.290672,0.388399
94,531700910,-159.0672455,-58.10667419,-175.5361481,8.21871376,-1.597405791,-5.01280117,2.375654697,0.65629977,-0.062001944,12.85874,-2.49607,-7.834899,3.723933,1.30161,0.387366
95,531717577,-159.0431519,-58.1138916,-175.5393677,8.212010384,-1.598439813,-5.024774075,2.467181444,0.866477609,0.100145645,12.995607,-2.522711,-7.918645,3.765053,1.316051,0.389035
96,531734244,-159.0281372,-58.11800003,-175.5245514,8.179596901,-1.575039864,-4.996194839,2.375821352,0.600502551,-0.085456774,13.131934,-2.548962,-8.001915,3.80465,1.326059,0.387611
97,531750911,-159.0115509,-58.12320328,-175.5046844,8.188792229,-1.598940372,-4.995473862,2.488708973,0.666647315,-0.106862582,13.268414,-2.575611,-8.085173,3.846128,1.33717,0.38583
98,531767578,-158.9948273,-58.12986374,-175.487915,8.195775986,-1.598774076,-5.006417751,2.401805162,0.780444503,-0.074142359,13.40501,-2.602257,-8.168613,3.886158,1.350177,0.384594
99,531784245,-158.9832153,-58.13322449,-175.4745789,8.22141552,-1.616858006,-5.003935337,2.180947065,0.584725201,-0.041294079,13.542034,-2.629205,-8.252012,3.922507,1.359922,0.383906
100,531800912,-158.9627228,-58.13942337,-175.4894257,8.226816177,-1.590713263,-4.989589214,2.291043282,0.847101569,0.152574867,13.679148,-2.655717,-8.335172,3.960691,1.37404,0.386449
101,531817579,-158.9497528,-58.14212799,-175.4836731,8.20370388,-1.544476628,-4.996349812,2.192370415,0.579115987,0.033770345,13.815876,-2.681458,-8.418444,3.997231,1.383692,0.387012
102,531834246,-158.9341125,-58.14192963,-175.4803162,8.198851585,-1.560620666,-5.032941818,2.354908705,0.427168638,0.111850664,13.952524,-2.707468,-8.502326,4.036479,1.390811,0.388876
103,531850913,-158.9200745,-58.14253998,-175.475708,8.244796753,-1.606441855,-4.986118793,2.277378798,0.479418546,0.097481936,14.089937,-2.734242,-8.585428,4.074435,1.398801,0.390501
104,531867580,-158.8978577,-58.14363098,-175.4727936,8.283395767,-1.612706184,-4.998171329,2.48317647,0.57747668,0.263003975,14.227994,-2.76112,-8.668731,4.115821,1.408426,0.394884
105,531884247,-158.8803558,-58.14311218,-175.4610596,8.226285934,-1.590775371,-5.023096085,2.239792109,0.485732049,0.287067145,14.365099,-2.787633,-8.752449,4.153151,1.416522,0.399668
106,531900914,-158.8599091,-58.14414597,-175.4622955,8.165557861,-1.579155207,-5.018121719,2.383786917,0.589258552,0.283417344,14.501192,-2.813952,-8.836084,4.192881,1.426343,0.404392
107,531917581,-158.8428802,-58.14260864,-175.4573212,8.162780762,-1.57571888,-5.022805214,2.275650024,0.435121357,0.296044379,14.637238,-2.840214,-8.919797,4.230809,1.433595,0.409326
108,531934248,-158.8262482,-58.14201355,-175.462616,8.171710968,-1.618623018,-5.033897877,2.15557766,0.523574829,0.345259219,14.773433,-2.867191,-9.003695,4.266735,1.442321,0.41508
109,531950915,-158.8028717,-58.14504623,-175.4673157,8.223544121,-1.584920287,-5.016577721,2.326401234,0.790395081,0.410251409,14.910492,-2.893606,-9.087305,4.305508,1.455494,0.421918
110,531967582,-158.7752075,-58.14746475,-175.4747009,8.228802681,-1.55036664,-5.025549889,2.430747509,0.801088274,0.526891649,15.047639,-2.919445,-9.171064,4.34602,1.468845,0.4307
111,531984249,-158.7442169,-58.15429306,-175.4857788,8.260246277,-1.568783879,-5.028594017,2.306782007,1.132247567,0.633696556,15.18531,-2.945591,-9.254874,4.384466,1.487716,0.441262
112,532000916,-158.7060242,-58.16440964,-175.4733887,8.252905846,-1.622542024,-5.045534134,2.648980856,1.343168616,0.629188836,15.322858,-2.972633,-9.338966,4.428616,1.510102,0.451748
113,532017583,-158.6577148,-58.17830276,-175.5019379,8.265404701,-1.599158406,-5.021636963,2.738381624,1.68329215,0.85642451,15.460615,-2.999286,-9.42266,4.474256,1.538157,0.466022
114,532034250,-158.5917664,-58.20255661,-175.5513153,8.214781761,-1.581386685,-5.040955067,2.894196987,2.476825237,1.163841248,15.597528,-3.025642,-9.506676,4.522493,1.579437,0.485419
115,532050917,-158.5209198,-58.22699356,-175.6056061,8.230185509,-1.564384699,-5.035912991,2.697132826,2.610126495,1.454238057,15.734698,-3.051715,-9.590608,4.567445,1.622939,0.509656
116,532067584,-158.4407043,-58.25183487,-175.657959,8.202629089,-1.532555819,-5.031582832,2.617131233,2.792360544,1.827094793,15.871408,-3.077258,-9.674468,4.611064,1.669478,0.540108
117,532084251,-158.3491058,-58.27441025,-175.7189789,8.186563492,-1.570246577,-5.03298521,3.15446043,2.713076591,1.975494742,16.007851,-3.103429,-9.758351,4.663638,1.714696,0.573033
118,532100918,-158.2609863,-58.30119705,-175.8258057,8.258706093,-1.587526202,-5.001646519,2.689986467,3.02259326,2.039872408,16.145496,-3.129888,-9.841712,4.708471,1.765073,0.607031
119,532117585,-158.1562653,-58.32773209,-175.9289703,8.304852486,-1.636282563,-4.993717194,3.422125816,3.081464291,2.206547022,16.28391,-3.157159,-9.924941,4.765506,1.816431,0.643807
120,532134252,-158.0557861,-58.35983658,-176.0087891,8.30124855,-1.654238224,-4.96284008,2.960009098,3.446919203,2.208019733,16.422264,-3.18473,-10.007655,4.814839,1.87388,0.680607
121,532150919,-157.9537048,-58.39186859,-176.073822,8.297413826,-1.650439978,-4.935072422,3.096614122,3.442154884,2.191679001,16.560554,-3.212237,-10.089906,4.866449,1.931249,0.717135
122,532167586,-157.8503571,-58.42459869,-176.1464081,8.161664009,-1.665498495,-4.967278957,3.445024014,3.426070213,2.023633957,16.696582,-3.239995,-10.172694,4.923866,1.98835,0.750862
123,532184253,-157.7681122,-58.45212936,-176.1822815,8.109302521,-1.621071577,-4.934492111,2.964568138,2.968601704,1.697289824,16.831737,-3.267013,-10.254936,4.973275,2.037827,0.77915
124,532200920,-157.6881714,-58.47348785,-176.2623291,8.084623337,-1.611426711,-4.936600685,3.572561979,2.468821049,1.422926426,16.966481,-3.29387,-10.337213,5.032818,2.078974,0.802865
125,532217587,-157.6319275,-58.48931503,-176.3078156,8.09171772,-1.642596722,-4.935835361,2.595411777,2.070287466,1.307092905,17.101343,-3.321247,-10.419477,5.076075,2.113479,0.82465
126,532234254,-157.5859985,-58.49919891,-176.3553772,8.123710632,-1.641267419,-4.920770168,2.552881718,1.623383999,1.126395226,17.236738,-3.348601,-10.50149,5.118623,2.140535,0.843423
127,532250921,-157.5486755,-58.50485229,-176.3850098,8.16112709,-1.625425458,-4.910314083,2.487595081,1.297129512,0.98010844,17.372757,-3.375691,-10.583329,5.160083,2.162154,0.859758
128,532267588,-157.5264282,-58.50608826,-176.4047394,8.2153368,-1.65356636,-4.909591198,2.259181023,0.904064238,0.710752368,17.509679,-3.40325,-10.665156,5.197736,2.177222,0.871604
129,532284255,-157.5066986,-58.50600052,-176.3853455,8.259147644,-1.67209363,-4.909190178,2.480397701,0.754242778,0.543949664,17.647331,-3.431118,-10.746976,5.239076,2.189793,0.88067
130,532300922,-157.4911041,-58.50748444,-176.3894806,8.298599243,-1.6999681,-4.938206673,2.361413956,0.817045033,0.445135891,17.785641,-3.459451,-10.829279,5.278433,2.20341,0.888089
131,532317589,-157.4747162,-58.50873184,-176.3896179,8.31717205,-1.688206911,-4.935036182,2.380508184,0.819337368,0.479059935,17.924261,-3.487588,-10.91153,5.318108,2.217066,0.896073
132,532334256,-157.4590454,-58.51390457,-176.3973083,8.246239662,-1.680043697,-4.957697392,2.283307791,1.056613445,0.429729849,18.061698,-3.515589,-10.994158,5.356163,2.234676,0.903235
133,532350923,-157.4447632,-58.52024841,-176.353302,8.185202599,-1.655568361,-4.964802265,2.338925838,1.101794243,0.336755753,18.198118,-3.543182,-11.076905,5.395145,2.253039,0.908848
134,532367590,-157.4325256,-58.52711868,-176.3370056,8.128456116,-1.629161358,-4.960764885,2.315669298,1.120542645,0.278755784,18.333592,-3.570335,-11.159584,5.433739,2.271715,0.913494
135,532384257,-157.427124,-58.53282166,-176.3206177,8.147751808,-1.637272716,-4.969851017,2.386348248,0.958568156,0.048408002,18.469388,-3.597623,-11.242415,5.473511,2.287691,0.914301
136,532400924,-157.4212189,-58.53803635,-176.3019867,8.237689972,-1.652002215,-4.943574905,2.589379787,0.905716419,-0.025311749,18.606683,-3.625156,-11.324808,5.516667,2.302786,0.913879
137,532417591,-157.4124146,-58.54683685,-176.2904968,8.30945015,-1.669067264,-4.959640026,2.479859829,1.181974769,0.065530092,18.745174,-3.652974,-11.407469,5.557998,2.322486,0.914971
138,532434258,-157.4038086,-58.55996704,-176.2579651,8.324638367,-1.688961387,-4.947315216,2.424267769,1.444505095,0.003739454,18.883918,-3.681123,-11.489924,5.598402,2.346561,0.915033
139,532450925,-157.3749847,-58.57833099,-176.278656,8.382844925,-1.68122673,-4.960320473,3.00813508,1.887054086,0.249057919,19.023632,-3.709143,-11.572596,5.648538,2.378012,0.919184
140,532467592,-157.3492889,-58.60281754,-176.2885132,8.337555885,-1.662334085,-4.975752354,2.361567497,2.340641975,0.379131973,19.162591,-3.736849,-11.655525,5.687897,2.417023,0.925503
141,532484259,-157.3123474,-58.6277771,-176.2468719,8.261773109,-1.649611354,-4.937977314,2.816103697,2.42784071,0.505159318,19.300287,-3.764343,-11.737825,5.734832,2.457487,0.933922
142,532500926,-157.277832,-58.65087509,-176.3280487,8.231820107,-1.62648654,-4.938968182,2.582707882,2.358737469,0.607046604,19.437484,-3.791451,-11.820141,5.777877,2.496799,0.944039
143,532517593,-157.2397003,-58.66987228,-176.3564911,8.238069534,-1.641979337,-4.949633598,2.826668978,2.133422613,0.702915013,19.574785,-3.818817,-11.902635,5.824988,2.532356,0.955754
144,532534260,-157.2028503,-58.68489838,-176.3704834,8.376766205,-1.643137336,-4.952630997,2.697273731,1.93962431,0.837356091,19.714398,-3.846203,-11.985179,5.869943,2.564683,0.96971
145,532550927,-157.1608582,-58.70399475,-176.3623352,8.454001427,-1.697931409,-4.931241989,2.663080454,2.252047777,0.94910419,19.855298,-3.874502,-12.067366,5.914328,2.602217,0.985528
146,532567594,-157.1228638,-58.72828293,-176.4036865,8.462574959,-1.708363175,-4.886264324,2.087575912,2.625813723,1.026083112,19.996341,-3.902975,-12.148804,5.949121,2.645981,1.002629
147,532584261,-157.0486603,-58.75721359,-176.5110168,8.398808479,-1.745045781,-4.920261383,3.85231638,2.978680134,1.15391624,20.136321,-3.932059,-12.230808,6.013326,2.695626,1.021861
148,532600928,-157.0115814,-58.78361893,-176.5284119,8.354476929,-1.69567585,-4.869343281,1.683484197,2.829921246,1.188045025,20.275562,-3.96032,-12.311964,6.041384,2.742791,1.041662
149,532617595,-156.9424744,-58.80921173,-176.5636902,8.306987762,-1.731595516,-4.845923901,3.474324465,2.820073605,1.287998915,20.414012,-3.98918,-12.392729,6.099289,2.789792,1.063129
150,532634262,-156.8853149,-58.83724594,-176.604538,8.253099442,-1.68169558,-4.878527641,2.668971062,2.981292486,1.284784198,20.551564,-4.017208,-12.474038,6.143772,2.83948,1.084542
151,532650929,-156.8170929,-58.87008286,-176.6601563,8.190355301,-1.675727129,-4.872524738,3.375458956,3.247292995,1.154966354,20.68807,-4.045137,-12.555247,6.20003,2.893602,1.103791
152,532667596,-156.7640076,-58.90148926,-176.6949615,8.112998009,-1.609976888,-4.899960041,2.945140123,3.064392805,0.93073988,20.823287,-4.07197,-12.636913,6.249116,2.944675,1.119303
153,532684263,-156.7118378,-58.93388367,-176.7422791,8.048549652,-1.655363321,-4.85697794,3.571243048,2.973954916,0.541542113,20.957429,-4.099559,-12.717863,6.308637,2.994241,1.128329
154,532700930,-156.6603546,-58.96212769,-176.7387085,8.085523605,-1.652879357,-4.91907835,4.182861805,2.601174831,0.288053215,21.092188,-4.127107,-12.799848,6.378351,3.037594,1.13313
155,532717597,-156.6347504,-58.98829269,-176.7392731,8.203138351,-1.677364349,-4.890130997,2.738804817,2.479809046,0.287361711,21.228907,-4.155063,-12.88135,6.423998,3.078924,1.137919
156,532734264,-156.5797424,-59.01951599,-176.7660217,8.315152168,-1.703375101,-4.909073353,3.951988459,2.905440569,0.480865598,21.367493,-4.183453,-12.963168,6.489864,3.127348,1.145933
157,532750931,-156.5357361,-59.05606461,-176.7656097,8.314371109,-1.64083457,-4.920146465,2.936380863,3.289490461,0.559509456,21.506066,-4.2108,-13.04517,6.538804,3.182173,1.155258
158,532767598,-156.4810486,-59.09381485,-176.7871246,8.288150787,-1.687065363,-4.834400177,3.323990822,3.432153225,0.68041414,21.644202,-4.238918,-13.125743,6.594204,3.239376,1.166598
159,532784265,-156.4232941,-59.12990952,-176.8271179,8.272249222,-1.637283802,-4.838170052,3.292832851,3.398741484,0.844988644,21.782073,-4.266206,-13.206379,6.649085,3.296022,1.180681
160,532800932,-156.3584747,-59.1652832,-176.8562775,8.25316143,-1.691289544,-4.862615108,3.452604532,3.430398703,1.018668294,21.919626,-4.294394,-13.287423,6.706628,3.353195,1.197659
161,532817599,-156.2936096,-59.19654846,-176.8948669,8.266993523,-1.647414327,-4.81515646,3.013283253,3.31891942,1.366386414,22.057409,-4.321851,-13.367676,6.756849,3.40851,1.220432
162,532834266,-156.208313,-59.22648239,-176.9296722,8.229290962,-1.65187192,-4.828884602,3.739121437,3.379147768,1.681230545,22.194564,-4.349382,-13.448157,6.819168,3.464829,1.248453
163,532850933,-156.1343384,-59.25185013,-176.9912262,8.21387291,-1.659404755,-4.849346161,2.945192099,3.165922403,1.860519648,22.331462,-4.377039,-13.528979,6.868255,3.517594,1.279462
164,532867600,-156.0622406,-59.27180099,-177.0426788,8.228474617,-1.687557697,-4.780486107,2.838309765,2.879994631,1.999621749,22.468603,-4.405165,-13.608654,6.91556,3.565594,1.312789
165,532884267,-155.9931183,-59.28703308,-177.076416,8.273101807,-1.687949777,-4.805004597,2.977527618,2.556416512,1.94755125,22.606488,-4.433297,-13.688737,6.965185,3.608201,1.345248
166,532900934,-155.930191,-59.29669189,-177.0589294,8.360239983,-1.716615915,-4.767888546,2.807868719,2.20930028,1.98591888,22.745825,-4.461907,-13.768202,7.011983,3.645023,1.378347
167,532917601,-155.8660583,-59.30896378,-177.0722504,8.32006073,-1.737348437,-4.748123646,2.912471056,2.352129459,1.911360383,22.884493,-4.490863,-13.847337,7.060524,3.684225,1.410203
168,532934268,-155.7996826,-59.31811142,-177.1005859,8.292057991,-1.752179146,-4.746100426,3.153435946,2.160789967,1.935346961,23.022694,-4.520066,-13.926439,7.113081,3.720238,1.442459
169,532950935,-155.7504425,-59.32526779,-177.1568451,8.259290695,-1.777969241,-4.762884617,2.451737404,1.979183078,1.81378901,23.160349,-4.549699,-14.00582,7.153943,3.753224,1.472689
170,532967602,-155.7062836,-59.32997513,-177.175293,8.29323101,-1.77827549,-4.76872921,2.498249769,1.766149282,1.690873504,23.29857,-4.579337,-14.085299,7.19558,3.78266,1.50087
171,532984269,-155.6673889,-59.33253479,-177.1920624,8.316350937,-1.773500681,-4.795200825,2.701499462,1.531255245,1.46614778,23.437176,-4.608895,-14.165219,7.240605,3.808181,1.525306
172,533000936,-155.6464233,-59.33442688,-177.2166595,8.347149849,-1.727506042,-4.75911808,2.190936089,1.36323595,1.183754921,23.576295,-4.637687,-14.244538,7.277121,3.830902,1.545035
173,533017603,-155.6138306,-59.33768463,-177.2022095,8.312303543,-1.768483996,-4.761665344,3.165127993,1.374620795,1.012892604,23.714833,-4.667162,-14.323899,7.329873,3.853812,1.561917
174,533034270,-155.5962677,-59.34045792,-177.206192,8.390407562,-1.784999251,-4.794931889,2.46958971,1.303673625,0.919162989,23.854673,-4.696912,-14.403815,7.371033,3.87554,1.577236
175,533050937,-155.5744476,-59.34652328,-177.1940308,8.496382713,-1.825541496,-4.75995636,2.537834406,1.536377907,0.947324216,23.996279,-4.727338,-14.483148,7.41333,3.901146,1.593025
176,533067604,-155.5358887,-59.36366653,-177.2074585,8.58044529,-1.827745438,-4.807056427,2.983290672,2.276661634,0.97788012,24.139286,-4.7578,-14.563266,7.463052,3.93909,1.609323
177,533084271,-155.4939423,-59.39127731,-177.2065125,8.62018013,-1.818435669,-4.81817627,2.655691385,2.981523037,1.009332418,24.282956,-4.788107,-14.643569,7.507314,3.988782,1.626145
178,533100938,-155.4438782,-59.42687988,-177.2789764,8.574203491,-1.833201885,-4.781351089,2.955756903,3.464003086,0.913669109,24.425859,-4.81866,-14.723258,7.556577,4.046515,1.641373
179,533117605,-155.3768158,-59.46907806,-177.305069,8.550801277,-1.849598169,-4.779370308,4.032501698,3.80845499,0.724173605,24.568372,-4.849487,-14.802914,7.623785,4.109989,1.653443
180,533134272,-155.2844543,-59.52536011,-177.336792,8.570885658,-1.843170762,-4.771949768,5.460832596,4.59844017,0.420547754,24.71122,-4.880207,-14.882446,7.714799,4.18663,1.660452
181,533150939,-155.1887512,-59.58743286,-177.3600159,8.500523567,-1.830168843,-4.754527092,5.158500671,5.035866737,0.541478157,24.852895,-4.91071,-14.961688,7.800774,4.270561,1.669477
182,533167606,-155.060257,-59.65382004,-177.4103394,8.413985252,-1.830002546,-4.73839283,6.416110516,5.450447559,0.80427736,24.993128,-4.94121,-15.040661,7.907709,4.361402,1.682882
183,533184273,-154.9174042,-59.72634506,-177.4215393,8.418829918,-1.813346505,-4.819849968,7.231812,5.795259953,0.665123641,25.133442,-4.971432,-15.120992,8.028239,4.45799,1.693967
184,533200940,-154.7914734,-59.79829407,-177.3821106,8.474575043,-1.784351945,-4.781036377,6.748281002,5.638239384,0.392732382,25.274685,-5.001171,-15.200676,8.14071,4.551961,1.700513
185,533217607,-154.6860657,-59.86926651,-177.3733215,8.537804604,-1.851424217,-4.654497623,6.2519207,5.411734581,0.025049226,25.416982,-5.032028,-15.278251,8.244909,4.642157,1.70093
186,533234274,-154.5420685,-59.95066071,-177.3557892,8.402088165,-1.872570157,-4.650025845,8.979893684,5.870715141,-0.466157705,25.557017,-5.063238,-15.355751,8.394574,4.740002,1.693161
187,533250941,-154.374176,-60.03726959,-177.3365784,7.860055923,-1.900446892,-4.849643707,12.08575726,5.740488529,-1.486478686,25.688018,-5.094912,-15.436578,8.596003,4.835677,1.668386
188,533267608,-154.2785339,-60.08798218,-177.2644958,7.25073576,-1.892436028,-4.841690063,9.810064316,3.308764696,-1.637042522,25.808864,-5.126453,-15.517273,8.759504,4.890823,1.641102
189,533284275,-154.2698669,-60.10463333,-177.1755371,7.007938385,-1.792467713,-4.508821011,5.791890144,1.21209538,-1.384795427,25.925663,-5.156327,-15.59242,8.856036,4.911025,1.618022
190,533300942,-154.189743,-60.08737564,-177.008728,7.075948238,-1.695392966,-4.425076008,10.20396233,-0.621370733,-0.572796166,26.043595,-5.184584,-15.666171,9.026102,4.900669,1.608475
191,533317609,-154.1121521,-60.0444603,-176.9051208,7.270258904,-1.40636456,-4.711730003,10.59799957,-2.115359783,-0.191448569,26.164766,-5.208023,-15.7447,9.202735,4.865413,1.605284
192,533334276,-154.1799927,-59.97052383,-176.7453766,7.713087082,-1.279871225,-4.6541605,4.008810043,-4.289044857,-0.476838082,26.293317,-5.229354,-15.822269,9.269549,4.793929,1.597337
193,533350943,-154.1944122,-59.89336395,-176.549469,8.31097126,-1.29527235,-4.67309761,8.458917618,-4.757887363,-1.024847865,26.431833,-5.250942,-15.900154,9.410531,4.714631,1.580256
194,533367610,-154.2506714,-59.81327057,-176.3434906,8.82191658,-1.22101295,-4.822806835,7.521965504,-5.307087421,-1.754758596,26.578865,-5.271292,-15.980534,9.535897,4.62618,1.55101
195,533384277,-154.3561859,-59.75188828,-176.1393585,9.133332253,-1.565046191,-4.667892933,4.840685844,-4.361773491,-2.362778425,26.731087,-5.297376,-16.058332,9.616575,4.553484,1.51163
196,533400944,-154.3322449,-59.70471954,-175.9780426,9.139392853,-2.015700102,-4.646922588,9.557151794,-2.838662863,-1.112904191,26.88341,-5.330971,-16.135781,9.775861,4.506173,1.493082
197,533417611,-154.2640991,-59.66890717,-175.9224396,8.993673325,-2.130601168,-4.70806551,7.768320084,-1.119473577,0.927730501,27.033305,-5.366481,-16.214249,9.905333,4.487515,1.508544
198,533434278,-154.1295624,-59.64717484,-176.0581207,8.629216194,-2.098180771,-4.567307949,7.329945564,0.758494616,2.879149675,27.177125,-5.401451,-16.290371,10.027499,4.500157,1.55653
199,533450945,-153.9499817,-59.61979294,-176.1564941,8.227416992,-1.88943398,-4.567873001,7.863907814,1.000778079,4.17211771,27.314249,-5.432942,-16.366502,10.158564,4.516837,1.626065
200,533467612,-153.8037109,-59.58467102,-176.2302246,8.006541252,-1.793748379,-4.665864468,5.096595764,0.786502242,4.790575027,27.447691,-5.462838,-16.444266,10.243507,4.529945,1.705908
201,533484279,-153.6697083,-59.53798676,-176.3266907,7.87584734,-1.8977108,-4.706793308,3.998565197,0.285696864,5.29701376,27.578955,-5.494467,-16.522713,10.31015,4.534707,1.794192
202,533500946,-153.5306091,-59.48839569,-176.4295959,7.731955051,-1.920738816,-4.786921024,4.326036453,0.149245217,5.371329784,27.707821,-5.526479,-16.602495,10.382251,4.537194,1.883714
203,533517613,-153.4256287,-59.42863464,-176.4996796,7.602591991,-1.90787828,-4.76245594,3.630331039,-0.719454348,4.936642647,27.834531,-5.558277,-16.681869,10.442757,4.525203,1.965991
204,533534280,-153.3439331,-59.35954285,-176.5986023,7.284888744,-1.976974964,-4.722759247,3.705723047,-1.571883678,4.409073353,27.955946,-5.591227,-16.760582,10.504519,4.499005,2.039476
205,533550947,-153.3237,-59.25377655,-176.6381531,7.338021755,-2.144441843,-4.610112667,1.753573775,-3.972741604,4.478957176,28.078246,-5.626968,-16.837417,10.533745,4.432793,2.114125
206,533567614,-153.3267212,-59.12257004,-176.6705627,7.753594398,-2.364689589,-4.446888447,1.225606203,-5.542940617,4.683602333,28.207473,-5.666379,-16.911532,10.554172,4.340411,2.192185
207,533584281,-153.3232117,-58.9790802,-176.6502838,8.346001625,-2.019901514,-4.468068123,3.157239676,-6.621453285,4.164049149,28.346573,-5.700044,-16.986,10.606793,4.230053,2.261586
208,533600948,-153.440979,-58.84207535,-176.54245,8.754798889,-1.664974093,-4.522614479,-0.250178486,-7.337521076,1.89441812,28.492486,-5.727794,-17.061377,10.602623,4.107761,2.29316
209,533617615,-153.7102051,-58.70662308,-176.3522491,8.904473305,-1.736266494,-4.42195034,-4.523069382,-8.579393387,-0.782308161,28.640894,-5.756732,-17.135076,10.527239,3.964771,2.280122
210,533634282,-153.9785919,-58.58899307,-176.1080627,8.733137131,-2.006010056,-4.546890259,-2.281356096,-8.244698524,-2.504122496,28.786446,-5.790166,-17.210858,10.489216,3.827359,2.238387
211,533650949,-154.3402863,-58.46588898,-175.8181152,8.311244965,-1.83598578,-4.556025505,-5.858939648,-9.09584713,-3.553923607,28.924967,-5.820766,-17.286792,10.391567,3.675762,2.179155
212,533667616,-154.6937256,-58.33546448,-175.5034027,7.70210743,-1.500109792,-4.519044876,-4.066357613,-9.835863113,-4.181665421,29.053335,-5.845768,-17.362109,10.323794,3.511831,2.109461
213,533684283,-155.0286102,-58.179142,-175.1810455,7.31088829,-1.048734426,-4.869505405,-2.430281162,-11.36956501,-3.914077044,29.175183,-5.863247,-17.443267,10.283289,3.322338,2.044226
214,533700950,-155.5034027,-57.99730301,-174.8243561,6.837094784,-1.082334518,-4.908149719,-9.091050148,-13.17188644,-4.363325596,29.289135,-5.881286,-17.525069,10.131771,3.102807,1.971504
215,533717617,-156.006485,-57.75209808,-174.385788,6.641958714,-0.97211498,-4.759375572,-6.687592983,-17.64753723,-5.328197479,29.399834,-5.897488,-17.604392,10.020311,2.808681,1.882701
216,533734284,-156.4786377,-57.47855759,-173.8849182,6.905147552,-1.03101933,-5.201273441,-1.678050518,-19.97375488,-6.73022747,29.51492,-5.914672,-17.69108,9.992343,2.475785,1.770531
217,533750951,-157.0683594,-57.20877075,-173.3400269,7.207651138,-1.398903251,-5.294174194,-6.572249889,-20.25743294,-8.413229942,29.635048,-5.937987,-17.779316,9.882806,2.138161,1.630311
218,533767618,-157.5914459,-56.93619537,-172.7890625,7.529361248,-1.444395661,-5.195077896,-2.336260319,-20.40922928,-8.857213974,29.760537,-5.96206,-17.865901,9.843868,1.798007,1.482691
219,533784285,-157.8973694,-56.71452332,-172.2528381,8.299418449,-1.712545037,-5.891706944,9.883419991,-17.34969521,-9.830151558,29.898861,-5.990602,-17.964096,10.008592,1.508845,1.318855
220,533800952,-158.377594,-56.40912628,-171.7176819,10.56916618,-3.44874382,-5.929721355,-0.69762069,-21.94140625,-8.172174454,30.075014,-6.048081,-18.062925,9.996965,1.143155,1.182652
221,533817619,-158.6781158,-56.26717377,-171.5412598,13.58818531,-5.897409916,-5.098582745,-7.933876991,-8.455478668,-0.963569403,30.301484,-6.146371,-18.147901,9.864734,1.00223,1.166593
222,533834286,-158.3015747,-56.41184616,-171.6113586,10.06580257,-2.429609299,-5.28995657,20.27133751,10.40248966,0.248482078,30.469247,-6.186864,-18.236067,10.20259,1.175605,1.170734
223,533850953,-158.2675934,-56.53997421,-171.4483032,7.347527504,-0.810955465,-6.102593899,11.35456848,6.570482731,-6.611315727,30.591706,-6.20038,-18.337777,10.391833,1.285113,1.060545
224,533867620,-158.6059265,-56.62328339,-171.1367493,7.396568775,-3.074926853,-5.300758839,-3.505618095,2.348186016,-10.12437725,30.714982,-6.251629,-18.426123,10.333406,1.324249,0.891805
225,533884287,-158.5911407,-56.69905472,-170.8250732,8.420730591,-2.70418191,-5.503314495,17.66649818,1.98916173,-10.00177956,30.855328,-6.296699,-18.517845,10.627848,1.357402,0.725109
226,533900954,-158.7272797,-56.86944962,-170.5439453,8.78068924,-1.788257957,-5.845510483,7.077511311,7.674684048,-11.13653088,31.001673,-6.326503,-18.61527,10.745807,1.485313,0.5395
227,533917621,-158.9260101,-57.0991478,-170.3015747,8.686216354,-1.987179875,-5.456124306,1.403564453,11.51318741,-11.16860104,31.146443,-6.359623,-18.706205,10.7692,1.677199,0.353357
228,533934288,-158.8945923,-57.4031105,-170.1719818,8.449243546,-1.988020897,-5.447969437,9.552874565,17.02860641,-9.29384613,31.287264,-6.392757,-18.797004,10.928415,1.961009,0.19846
229,533950955,-158.8299408,-57.75268555,-170.1590729,8.105851173,-1.490383506,-5.56317091,5.648749828,20.94262123,-6.763768673,31.422362,-6.417597,-18.889724,11.022561,2.310053,0.085731
230,533967622,-158.7233734,-58.13710403,-170.2421417,8.177177429,-1.273396134,-5.395984173,3.293056965,24.00872612,-4.685167313,31.558648,-6.43882,-18.979657,11.077445,2.710198,0.007645
231,533984289,-158.4970093,-58.57841492,-170.3677368,8.66931057,-1.294838428,-5.426513195,8.294427872,27.66249847,-4.75747633,31.703137,-6.460401,-19.070099,11.215685,3.17124,-0.071646
232,534000956,-158.2068939,-59.11454391,-170.5861053,8.69852066,-1.849380732,-5.350038052,7.330884933,33.9733963,-4.32631731,31.848112,-6.491224,-19.159266,11.337866,3.737463,-0.143751
233,534017623,-157.8065186,-59.73652649,-170.8836975,8.268082619,-1.774675965,-5.200397015,9.77682209,39.58747864,-4.313120842,31.985913,-6.520802,-19.245939,11.500813,4.397254,-0.215636
234,534034290,-157.4128571,-60.37335968,-171.1592255,8.157805443,-1.781508923,-5.058126926,10.41682434,40.0731163,-5.684523582,32.121876,-6.550494,-19.330241,11.674427,5.065139,-0.310378
235,534050957,-157.0031281,-61.03804779,-171.4062347,8.683479309,-1.83152771,-4.997859001,12.77211475,41.19579315,-7.527321815,32.266601,-6.581019,-19.413539,11.887296,5.751736,-0.435833
236,534067624,-156.522583,-61.75691986,-171.6631012,8.96753788,-1.806369185,-5.00280714,16.40683365,44.17708588,-9.003300667,32.41606,-6.611125,-19.496919,12.160743,6.488021,-0.585888
237,534084291,-156.013504,-62.53644943,-171.9588013,8.758423805,-1.627431273,-4.76577282,15.95406914,47.79627609,-10.00001431,32.562034,-6.638249,-19.576349,12.426644,7.284626,-0.752555
238,534100958,-155.4446716,-63.33338928,-172.3158569,8.669340134,-1.581829667,-4.453416824,16.45656395,49.18681335,-9.67546463,32.706523,-6.664613,-19.650573,12.70092,8.104406,-0.913813
239,534117625,-154.7510071,-64.14588928,-172.7404785,8.493927956,-1.464755058,-4.427302361,20.12176895,50.57176208,-9.178953171,32.848088,-6.689026,-19.724361,13.036283,8.947269,-1.066796
240,534134292,-154.1065521,-64.94880676,-173.1977081,8.596430779,-1.555906653,-4.218351364,14.69400787,50.28608704,-8.785042763,32.991362,-6.714958,-19.794667,13.281183,9.78537,-1.213213
241,534150959,-153.3963623,-65.74524689,-173.7072906,8.875793457,-1.704291224,-3.936674356,15.55956173,50.25625229,-8.299717903,33.139292,-6.743363,-19.860278,13.540509,10.622974,-1.351542
242,534167626,-152.6640015,-66.51306915,-174.2875824,9.115937233,-1.483807206,-3.740048885,13.16166973,49.14694977,-7.080063343,33.291224,-6.768093,-19.922612,13.75987,11.44209,-1.469543
243,534184293,-151.7940979,-67.27584839,-174.9728699,9.143872261,-1.409010172,-3.636587381,15.42556381,49.70413589,-5.781566143,33.443622,-6.791577,-19.983222,14.016963,12.270492,-1.565902
244,534200960,-150.868866,-68.01984406,-175.7179565,8.741148949,-1.374623775,-3.557347536,15.21318817,49.01306915,-5.221932888,33.589308,-6.814487,-20.042511,14.270516,13.087376,-1.652934
245,534217627,-149.9078827,-68.71285248,-176.4904022,8.438236237,-1.164759755,-3.276985407,15.61679935,46.28768921,-4.40395546,33.729945,-6.8339,-20.097127,14.530796,13.858837,-1.726333
246,534234294,-148.9345856,-69.34147644,-177.2707672,8.592309952,-0.904974401,-2.792050123,15.71608067,42.69544983,-3.458783388,33.87315,-6.848983,-20.143661,14.792731,14.570428,-1.783979
247,534250961,-147.9126587,-69.92202759,-178.1233063,9.111979485,-1.037904739,-2.538562775,14.39781189,40.68688583,-1.748097539,34.025016,-6.866281,-20.18597,15.032695,15.248543,-1.813114
248,534267628,-146.714035,-70.43841553,-179.0969391,9.274453163,-1.273516417,-2.677266836,17.99299622,38.43828201,1.283204317,34.17959,-6.887506,-20.230591,15.332578,15.889181,-1.791727
249,534284295,-145.5368195,-70.89556885,179.789978,9.575732231,-0.965116799,-2.576655149,8.641512871,36.74383545,4.429380894,34.339186,-6.903591,-20.273535,15.476603,16.501578,-1.717904
250,534300962,-144.272995,-71.32228088,178.5590057,9.147997856,-1.147551179,-2.463359594,6.977305412,36.32304764,6.237325191,34.491653,-6.922717,-20.314591,15.592891,17.106962,-1.613949
251,534317629,-142.9868774,-71.70213318,177.2447052,8.513566017,-1.564604878,-2.554087877,3.405531406,34.79110718,8.029732704,34.633546,-6.948794,-20.357159,15.64965,17.686814,-1.48012
252,534334296,-141.7658691,-72.02733612,175.9422913,8.601737022,-1.111845732,-2.456753254,0.019555371,31.91108894,8.766197205,34.776908,-6.967325,-20.398105,15.649976,18.218665,-1.334017
253,534350963,-140.6055145,-72.31584167,174.7138824,8.998208046,-1.316787362,-2.374384403,0.47798571,29.23695374,8.162396431,34.926878,-6.989271,-20.437678,15.657942,18.705948,-1.197977
254,534367630,-139.5783539,-72.57472229,173.5415192,9.566972733,-1.79543519,-2.200994253,-4.414610863,27.12418938,7.753869057,35.086328,-7.019195,-20.474361,15.584365,19.158018,-1.068746
255,534384297,-138.4712067,-72.78451538,172.3291626,9.419734001,-1.892222524,-1.75171864,-1.994805455,25.28589439,9.537861824,35.243324,-7.050732,-20.503556,15.551118,19.57945,-0.909782
256,534400964,-137.3559265,-72.94966125,171.2429199,9.127719879,-1.484783173,-1.99924767,5.642028332,21.76972771,9.046257973,35.395453,-7.075478,-20.536877,15.645152,19.942279,-0.759011
257,534417631,-136.379425,-73.09860229,170.2834167,9.041918755,-2.099246979,-2.586450338,4.535991192,19.55424118,7.598749638,35.546152,-7.110465,-20.579985,15.720752,20.268183,-0.632365
258,534434298,-135.6433411,-73.22006226,169.3950195,9.249444962,-2.156954288,-2.130302906,-5.85023737,17.51425743,7.481173038,35.700309,-7.146414,-20.61549,15.623248,20.560087,-0.507679
259,534450965,-134.8146667,-73.28130341,168.5884399,9.342798233,-1.530243874,-1.449383497,4.378149033,13.97319984,8.72711277,35.856022,-7.171918,-20.639646,15.696217,20.792974,-0.362227
260,534467632,-133.9882507,-73.2971344,167.9122925,9.279049873,-1.33642602,-2.012776136,11.72468662,10.50946617,8.905212402,36.010673,-7.194192,-20.673192,15.891628,20.968132,-0.213807
261,534484299,-133.4058685,-73.31352234,167.2838745,9.237769127,-1.847170353,-2.326336861,-0.176081017,10.01122856,8.21361351,36.164636,-7.224978,-20.711964,15.888693,21.134986,-0.076913
262,534500966,-132.8701935,-73.31742096,166.7526703,9.250492096,-2.276827812,-1.994218469,2.610217333,8.346964836,7.521826267,36.318811,-7.262925,-20.745201,15.932197,21.274102,0.048451
263,534517633,-132.3218079,-73.30832672,166.2810059,9.377456665,-2.079654694,-1.822594523,6.791697025,7.115338802,7.321137428,36.475102,-7.297586,-20.775578,16.045392,21.392691,0.17047
264,534534300,-131.8674774,-73.27988434,165.8692017,9.581318855,-1.747507095,-1.839422226,4.587517738,5.618954182,7.43388319,36.634791,-7.326711,-20.806235,16.121851,21.48634,0.294368
265,534550967,-131.3540955,-73.25840759,165.4588776,9.542516708,-2.061754704,-2.232969284,8.218864441,5.92282486,7.084220409,36.793833,-7.361074,-20.843451,16.258832,21.585054,0.412438
266,534567634,-130.8940735,-73.27189636,165.0166321,9.492718697,-1.995952606,-2.361437559,3.18648982,7.773712635,5.821230888,36.952045,-7.39434,-20.882808,16.31194,21.714616,0.509459
267,534584301,-130.4823761,-73.31983948,164.6062927,9.558582306,-2.245724916,-2.068319082,2.117082357,8.732281685,3.839639664,37.111355,-7.431769,-20.91728,16.347225,21.860154,0.573453
268,534600968,-129.9571991,-73.40583801,164.1716461,9.407879829,-2.466791153,-2.129817724,7.517087936,10.52505779,2.27745676,37.268153,-7.472882,-20.952777,16.47251,22.035572,0.611411
269,534617635,-129.4885864,-73.51560974,163.7079773,9.217000008,-2.317275763,-2.094501734,2.436588287,11.79586983,1.370702505,37.42177,-7.511503,-20.987685,16.51312,22.23217,0.634256
270,534634302,-129.04599,-73.62976074,163.2735138,9.181404114,-1.912569523,-1.839553475,2.539718151,11.54247189,0.724558055,37.574793,-7.543379,-21.018344,16.555449,22.424545,0.646332
271,534650969,-128.5870514,-73.7596817,162.8583832,9.35676384,-2.017024755,-1.991948962,4.613618374,11.82909012,-0.327989995,37.730739,-7.576996,-21.051543,16.632343,22.621697,0.640866
272,534667636,-128.1212616,-73.91819,162.4000244,9.439463615,-2.142006397,-2.095078945,2.515809059,13.40105915,-1.349566102,37.888063,-7.612696,-21.086461,16.674273,22.845048,0.618373
273,534684303,-127.6743927,-74.08363342,161.9365387,9.368857384,-1.921603918,-1.811730385,1.061928749,13.65220356,-1.774903297,38.044211,-7.644723,-21.116657,16.691972,23.072585,0.588791
274,534700970,-127.2507401,-74.23120117,161.5324097,9.331935883,-1.7902174,-1.545331001,3.070989847,12.13919735,-1.64742887,38.199743,-7.67456,-21.142413,16.743155,23.274905,0.561334
275,534717637,-126.941185,-74.34480286,161.1822662,9.373449326,-1.863580346,-1.410986423,-0.671405077,10.13951969,-0.64927572,38.355967,-7.70562,-21.165929,16.731965,23.443897,0.550513
276,534734304,-126.658905,-74.41122437,160.8774719,9.470767021,-2.030951023,-1.389178634,0.295916378,7.803563595,1.11995399,38.513813,-7.739469,-21.189082,16.736897,23.573956,0.569179
277,534750971,-126.3309479,-74.43600464,160.6179047,9.542143822,-1.713581562,-1.472274423,5.643105984,5.705870628,2.645920277,38.672849,-7.768029,-21.21362,16.830949,23.669054,0.613278
278,534767638,-126.1138306,-74.41065979,160.4225769,9.395010948,-1.466179848,-1.443513155,2.705648661,3.085753679,4.44973278,38.829433,-7.792465,-21.237679,16.876043,23.720483,0.68744
279,534784305,-126.0104752,-74.32496643,160.3155975,9.161720276,-1.591869354,-1.288793564,0.988253236,-0.192613915,6.552766323,38.982128,-7.818996,-21.259159,16.892514,23.717273,0.796653
280,534800972,-125.9461212,-74.16880035,160.3212585,9.217027664,-1.752219319,-1.345791459,5.156478882,-4.160688877,8.914926529,39.135745,-7.8482,-21.281589,16.978455,23.647928,0.945235
281,534817639,-126.0010529,-73.96346283,160.4150238,9.498884201,-1.668435931,-1.510330081,3.083796501,-7.08245945,10.45394421,39.29406,-7.876007,-21.306761,17.029852,23.529887,1.119467
282,534834306,-126.1268311,-73.71457672,160.5525665,9.617343903,-1.968849182,-1.543432117,1.349188328,-9.256774902,12.12285805,39.454349,-7.908821,-21.332485,17.052338,23.375607,1.321515
283,534850973,-126.2405548,-73.4298172,160.7288666,9.663973808,-2.014160872,-1.497924089,4.299262524,-11.11933613,13.42546177,39.615415,-7.94239,-21.35745,17.123992,23.190285,1.545273
284,534867640,-126.4131393,-73.10093689,160.9464264,9.733740807,-1.997057915,-1.397849202,3.121833563,-13.35049152,15.07376003,39.777644,-7.975674,-21.380747,17.176023,22.967777,1.796502
285,534884307,-126.6499329,-72.71187592,161.2486877,9.980937004,-2.188375235,-1.24767828,4.10393095,-16.83131027,16.9914093,39.943993,-8.012147,-21.401542,17.244422,22.687255,2.079692
286,534900974,-126.9246445,-72.25037384,161.6214142,10.18995762,-2.219935417,-1.161899447,5.821386814,-20.64992332,19.54979515,40.113826,-8.049146,-21.420907,17.341445,22.34309,2.405522
287,534917641,-127.2650146,-71.71446991,162.0304413,10.33501625,-2.036825895,-0.964266181,3.890610218,-24.16058731,22.47741127,40.286076,-8.083093,-21.436978,17.406289,21.940414,2.780146
288,534934308,-127.687645,-71.08944702,162.5206451,10.61039448,-2.195500612,-0.970592737,3.493296146,-29.0162487,25.47356415,40.462916,-8.119685,-21.453155,17.464511,21.45681,3.204705
289,534950975,-128.1306763,-70.38166809,163.054184,11.13656807,-2.47627759,-1.011466742,4.610189438,-33.22802734,28.44795418,40.648525,-8.160956,-21.470013,17.541347,20.90301,3.678838
290,534967642,-128.5895996,-69.59548187,163.5821991,11.34755039,-2.701169968,-0.877090633,3.201883078,-36.62922287,31.69938278,40.837651,-8.205975,-21.484631,17.594712,20.292523,4.207161
291,534984309,-128.9241943,-68.72284698,164.0703888,11.44197369,-2.921041489,-0.790634871,8.261051178,-39.81949615,35.75053787,41.028351,-8.254659,-21.497808,17.732396,19.628865,4.803003
292,535000976,-129.0461273,-67.80390167,164.4833984,11.54084396,-2.628293514,-0.876667738,16.65530968,-40.80266953,38.53363419,41.220698,-8.298464,-21.512419,18.009984,18.948821,5.44523
293,535017643,-129.0384979,-66.87575531,164.8595734,11.79508209,-1.98820734,-1.284806728,22.22757912,-40.88127518,39.2447052,41.417283,-8.331601,-21.533832,18.380444,18.267466,6.099308
294,535034310,-128.9704132,-65.99795532,165.1623383,11.36436558,-0.835075974,-2.479182959,21.67840958,-37.90049744,37.87527847,41.606689,-8.345519,-21.575152,18.741751,17.635791,6.730563
295,535050977,-129.3390808,-65.25325775,165.4541931,8.972759247,-0.347130597,-3.491903782,-5.200921535,-32.94639206,31.68585968,41.756235,-8.351305,-21.63335,18.655069,17.086684,7.258661
296,535067644,-130.1654053,-64.60871887,165.9487,8.260421753,-0.766957104,-4.222881794,-21.6955719,-33.50538254,23.37091827,41.893909,-8.364088,-21.703731,18.293476,16.528261,7.648176
297,535084311,-131.2779541,-64.10819244,166.3993835,7.834527969,-2.324569702,-4.183445454,-41.32276917,-27.52722549,16.86189842,42.024484,-8.402831,-21.773455,17.604763,16.069474,7.929208
298,535100978,-132.1153717,-63.76989746,166.7868347,7.318780899,-3.268625259,-4.25808239,-28.28050041,-20.1530304,10.10330868,42.146464,-8.457308,-21.844423,17.133421,15.73359,8.097596
299,535117645,-132.6005249,-63.57530594,167.1766815,6.646891117,-3.092731476,-5.015939236,-7.060128212,-14.50438976,3.355842829,42.257246,-8.508854,-21.928022,17.015752,15.49185,8.153527
300,535134312,-133.7576141,-63.72403336,167.3710785,6.635437489,-1.99110949,-2.094124556,-57.85756302,3.432091951,-8.363101959,42.367837,-8.542039,-21.962924,16.051459,15.549052,8.014142
301,535150979,-134.1545563,-64.25886536,167.3225708,6.490494728,0.344110459,0.718381584,-25.31200218,24.27243423,-20.52580643,42.476012,-8.536304,-21.950951,15.629592,15.953593,7.672045
302,535167646,-133.9353943,-65.05608368,167.1729279,5.424711704,0.69115299,0.075839192,6.107653141,37.01412582,-29.9399395,42.566424,-8.524785,-21.949687,15.731386,16.570495,7.173046
303,535184313,-134.2758942,-66.0083313,167.1344147,6.250097275,-0.78485769,-1.446552992,-21.45420837,41.38699722,-38.53022003,42.670592,-8.537866,-21.973796,15.373816,17.260278,6.530876
304,535200980,-134.2680359,-67.22605896,166.8816223,7.325332165,-1.708227515,-1.681975365,-12.39260292,56.22576141,-46.24631119,42.792681,-8.566336,-22.001829,15.167273,18.197374,5.760104
305,535217647,-133.694397,-68.68487549,166.4470062,7.567263603,-1.887773037,-2.009267092,11.28389454,68.72970581,-54.31426239,42.918802,-8.597799,-22.035317,15.355338,19.342869,4.854866
306,535234314,-132.859436,-70.34675598,165.9271851,7.938663483,-1.818669081,-2.766561985,21.88604927,77.20663452,-63.23357773,43.051113,-8.62811,-22.081426,15.720105,20.629646,3.800973
307,535250981,-131.7850189,-72.15904236,165.2649536,8.098109245,-1.532609344,-3.422181368,27.82445717,83.5931015,-69.91518402,43.186081,-8.653653,-22.138462,16.183846,22.022864,2.63572
308,535267648,-130.9833527,-73.97634888,164.7063446,7.611407757,-1.049542189,-3.292541027,17.01058197,80.40727234,-73.46656799,43.312938,-8.671145,-22.193338,16.467356,23.362985,1.411277
309,535284315,-130.7282562,-75.70101929,164.5185852,8.414876938,-1.615876079,-3.654007673,5.398872375,70.97999573,-74.43765259,43.453186,-8.698076,-22.254238,16.557337,24.545985,0.170649
310,535300982,-130.8010101,-77.33159637,164.4894104,9.250131607,-2.103049517,-4.635341644,-5.116019726,65.31630707,-71.93118286,43.607355,-8.733127,-22.331494,16.47207,25.63459,-1.028204
311,535317649,-131.3190308,-78.83009338,164.4700623,9.423391342,-2.782215834,-4.637069702,-31.27027893,60.45856857,-65.75382233,43.764412,-8.779497,-22.408778,15.950899,26.642233,-2.124101
312,535334316,-131.7349701,-80.10112,164.3603363,9.231022835,-3.978573561,-4.104468346,-30.49242401,52.7784996,-54.45792007,43.918262,-8.845807,-22.477186,15.442692,27.521875,-3.031733
313,535350983,-131.8957977,-81.14350891,164.0580292,8.991700172,-3.845088005,-3.343255043,-26.62512016,45.30223846,-42.89225388,44.068124,-8.909892,-22.532907,14.99894,28.276912,-3.746604
314,535367650,-132.4852448,-81.94768524,164.5247345,8.244413376,-2.768770933,-4.040948868,-6.761981964,30.82076073,-36.85405731,44.205531,-8.956038,-22.600256,14.88624,28.790591,-4.360838
315,535384317,-134.3122864,-82.26873779,166.0599976,9.440306664,-4.82836771,-4.738298893,-17.47198486,5.60334301,-21.08654976,44.362869,-9.036511,-22.679228,14.59504,28.88398,-4.71228
316,535400984,-135.7727661,-82.5459671,165.0033264,12.51930237,-6.932028294,1.090245962,-149.5567169,19.35388184,-4.341105461,44.571524,-9.152045,-22.661057,12.102428,29.206545,-4.784632
317,535417651,-136.0832062,-82.76763153,163.8994446,12.56154823,-1.85870719,4.85881567,-83.43138123,17.00834084,-1.838276505,44.780883,-9.183023,-22.580077,10.711905,29.490017,-4.81527
318,535434318,-137.4340973,-82.57592773,166.0798798,13.42429066,-1.574163914,2.591053486,49.56376648,-18.43819427,-2.977806807,45.004621,-9.209259,-22.536893,11.537968,29.182714,-4.8649
319,535450985,-139.1678162,-82.38661194,167.8538361,13.38200855,-2.117254019,-2.657951117,2.351273537,-16.4908371,-1.569285274,45.227654,-9.244547,-22.581192,11.577156,28.907867,-4.891055
320,535467652,-139.0778503,-82.40129089,167.8783569,10.00357437,-3.424211979,-4.528129101,7.708912849,1.827223301,0.517952979,45.39438,-9.301617,-22.656661,11.705638,28.938321,-4.882422
321,535484319,-139.4306335,-82.58505249,168.0372162,8.278336525,0.237174168,-2.774576902,-10.85414028,8.939838409,-6.982149601,45.532352,-9.297664,-22.702904,11.524736,29.087318,-4.998791
322,535500986,-140.7349091,-82.73971558,169.2336731,8.160028458,1.059876204,-1.078000069,-6.195415497,2.671752214,-11.7912426,45.668352,-9.279999,-22.720871,11.421479,29.131847,-5.195312
323,535517653,-142.1261597,-82.92715454,170.6926575,10.15623951,-1.23902905,-1.903851986,4.250636101,3.4369452,-14.31651688,45.837623,-9.300649,-22.752602,11.492323,29.189129,-5.433921
324,535534320,-143.0791779,-83.34522247,171.4951782,11.16642284,-2.032727003,-2.135760307,-8.51144886,17.89641953,-18.58108139,46.02373,-9.334528,-22.788198,11.350466,29.487403,-5.743606
325,535550987,-143.6851959,-83.89414215,172.1300354,10.37287331,-1.743006825,-1.183736682,2.35505867,25.39959908,-21.85721588,46.196611,-9.363578,-22.807927,11.389717,29.91073,-6.107893
326,535567654,-144.5823364,-84.43954468,173.2023773,9.423462868,-0.379099131,-1.028675079,11.03699684,24.18512917,-23.32742691,46.353669,-9.369896,-22.825072,11.573667,30.313815,-6.496683
327,535584321,-146.0137024,-84.98905945,174.6707001,9.560432434,-0.15392442,-1.084321856,2.682736635,23.96682358,-24.28359795,46.51301,-9.372461,-22.843144,11.618379,30.713262,-6.90141
328,535600988,-147.7969055,-85.53713989,176.5811005,9.981294632,-0.517610669,-1.038655639,8.088820457,23.87831306,-24.72836876,46.679365,-9.381088,-22.860455,11.753193,31.111234,-7.313549
329,535617655,-149.5716248,-86.13903046,178.5291443,10.05866623,-0.671622157,-1.076592922,10.925951,27.93322182,-24.85955811,46.847009,-9.392282,-22.878398,11.935292,31.576788,-7.727875
330,535634322,-151.8078156,-86.75321198,-179.0777283,10.02122879,-0.203064263,-0.984178543,9.985831261,29.2889061,-24.6645565,47.014029,-9.395666,-22.894801,12.101723,32.064936,-8.138951
331,535650989,-154.6296387,-87.35529327,-176.111969,9.936376572,-0.062722646,-0.771619022,9.221645355,29.62059021,-23.29151154,47.179635,-9.396711,-22.907661,12.255417,32.558613,-8.527143
332,535667656,-157.6080322,-87.93891907,-172.9129181,9.990119934,0.052323863,-0.643780589,13.89949608,30.3325386,-20.23851204,47.346137,-9.395839,-22.918391,12.487075,33.064155,-8.864452
333,535684323,-160.0470428,-88.50367737,-170.0891724,9.674547195,0.483316571,-0.561372399,23.80784607,31.18040085,-15.9913702,47.507379,-9.387784,-22.927747,12.883872,33.583828,-9.130975
334,535700990,-162.240921,-88.99692535,-167.6228333,9.193941116,1.074936152,0.022389473,17.1117115,28.44189644,-11.45833111,47.660611,-9.369868,-22.927374,13.169067,34.05786,-9.321947
335,535717657,-164.2718048,-89.34687805,-165.3130341,9.286268234,1.086722136,0.522852778,17.53384018,21.05293083,-6.798353672,47.815382,-9.351756,-22.91866,13.461298,34.408742,-9.435253
336,535734324,-163.6071014,-89.57022095,-165.6095581,9.589901924,0.989740968,0.628137469,22.86598969,14.3273735,-2.321342945,47.975214,-9.33526,-22.908191,13.842398,34.647532,-9.473942
337,535750991,-158.1766205,-89.69609833,-170.7340546,10.32045555,-0.036125951,0.093272343,19.15002823,9.207971573,0.636284411,48.147222,-9.335862,-22.906636,14.161565,34.800998,-9.463337
338,535767658,-131.7015381,-89.84051514,163.170578,9.682290077,-0.359613806,-0.286800385,23.63990402,12.07235909,1.49926877,48.308594,-9.341856,-22.911416,14.555563,35.002204,-9.438349
339,535784325,-85.09728241,-89.90512848,116.7968369,9.178750992,0.269752949,0.011513606,14.5218277,8.36865139,0.122684963,48.461573,-9.33736,-22.911224,14.797593,35.141682,-9.436304
340,535800992,-39.20527267,-89.90721893,71.06491089,9.778521538,-0.115994185,0.090003625,10.70410156,5.513417721,-1.167958736,48.624548,-9.339293,-22.909724,14.975995,35.233572,-9.45577
341,535817659,0.484692007,-89.84051514,31.58846092,9.766136169,-0.442470044,-0.089850977,13.79255295,6.953994751,-2.62290287,48.787317,-9.346668,-22.911222,15.205871,35.349472,-9.499485
342,535834326,20.8730011,-89.71469879,11.35022449,9.634391785,-0.509616792,-0.055650037,9.539647102,7.404661179,-4.841167927,48.94789,-9.355162,-22.91215,15.364865,35.472883,-9.580171
343,535850993,33.06491089,-89.59074402,-0.691900671,9.891123772,-0.238222688,0.172289625,9.785926819,6.020499706,-6.105566025,49.112742,-9.359132,-22.909279,15.527964,35.573225,-9.68193
344,535867660,39.04728317,-89.47961426,-6.484158516,10.16473389,0.157794908,0.12782672,12.21051502,5.104972363,-5.028089046,49.282154,-9.356502,-22.907149,15.731473,35.658308,-9.765731
345,535884327,39.89653397,-89.41249847,-7.185356617,10.27182007,0.810227871,0.052632838,9.663931847,4.247739792,-1.714060187,49.453351,-9.342998,-22.906272,15.892539,35.729104,-9.794299
346,535900994,36.08884811,-89.41483307,-3.347292423,10.05045891,0.890626192,0.159945652,2.657356024,2.820022583,3.058976173,49.620859,-9.328154,-22.903606,15.936828,35.776104,-9.743316
347,535917661,28.02855682,-89.49409485,4.834385872,9.793607712,0.764867604,0.188194439,8.064621925,-0.142976552,7.68088007,49.784086,-9.315406,-22.900469,16.071238,35.773721,-9.615301
348,535934328,13.60387516,-89.64009094,19.39194298,9.59998703,0.4906905,0.057305057,8.742337227,-4.371380329,10.46146393,49.944086,-9.307228,-22.899514,16.216944,35.700865,-9.440943
349,535950995,-23.70729256,-89.76676941,56.77752686,9.73665905,0.273658216,0.227484465,5.1654706,-6.815730095,11.99615288,50.106364,-9.302667,-22.895723,16.303035,35.587269,-9.241007
350,535967662,-75.96115875,-89.71061707,109.1604919,9.576077461,-0.155075356,0.015587487,8.510748863,-7.288797855,12.56955814,50.265965,-9.305252,-22.895463,16.444881,35.465789,-9.031514
351,535984329,-97.19065094,-89.55020142,130.5099182,9.642800331,-0.074761637,-0.322566509,7.950533867,-6.314451218,11.09323978,50.426678,-9.306498,-22.900839,16.57739,35.360548,-8.846627
352,536000996,-101.2450256,-89.40455627,134.6934052,9.771847725,-0.348874182,-0.674052954,8.521157265,-2.281740665,9.421264648,50.589542,-9.312313,-22.912073,16.719409,35.322519,-8.689606
353,536017663,-98.56865692,-89.29224396,132.1117554,9.777434349,-0.249710232,-0.615167856,6.5029006,1.971000552,8.128347397,50.752499,-9.316475,-22.922326,16.827791,35.355369,-8.554134
354,536034330,-94.3911972,-89.19936371,128.0332947,9.786205292,-0.181890711,-0.308657438,6.762050152,3.979203463,7.069056034,50.915602,-9.319507,-22.92747,16.940492,35.421689,-8.436316
355,536050997,-90.25938416,-89.10671997,124.025322,9.913637161,-0.216060191,-0.096273087,8.265068054,4.734484196,6.888755798,51.080829,-9.323108,-22.929075,17.078243,35.500597,-8.321503
356,536067664,-87.48339844,-89.00025177,121.3412781,9.950483322,-0.157833681,0.083732165,6.354910374,4.189816952,7.476670265,51.24667,-9.325739,-22.927679,17.184158,35.570427,-8.196892
357,536084331,-86.6349411,-88.88442993,120.588974,9.868405342,-0.187494531,0.218230844,6.581570148,2.585001469,8.066748619,51.411143,-9.328864,-22.924042,17.293851,35.61351,-8.062446
358,536100998,-88.11016083,-88.75888062,122.1891861,9.728766441,-0.019143449,0.251265347,8.284034729,-0.244159579,8.758151054,51.573289,-9.329183,-22.919854,17.431918,35.609441,-7.916477
359,536117665,-91.07277679,-88.62058258,125.2280197,9.726909637,0.134358749,0.247340396,5.321949959,-2.73850441,9.514007568,51.735404,-9.326944,-22.915732,17.520617,35.563799,-7.75791
360,536134332,-94.41634369,-88.46622467,128.6233063,9.662119865,-0.102162816,0.064902104,3.845057249,-4.253521919,10.15126419,51.896439,-9.328647,-22.91465,17.584701,35.492907,-7.588722
361,536150999,-97.7780838,-88.30142212,132.0268402,9.689816475,-0.220587641,-0.122522861,3.224012852,-5.423587799,10.39856911,52.057936,-9.332323,-22.916692,17.638435,35.402514,-7.415413
362,536167666,-100.5858688,-88.13554382,134.8452911,9.746397018,-0.34885487,-0.20404771,1.378104925,-5.415276527,10.10996628,52.220376,-9.338137,-22.920093,17.661403,35.312259,-7.246914
363,536184333,-102.4780045,-87.97609711,136.7619629,9.8005476,-0.552891672,-0.305204153,2.20716238,-4.3810606,9.758570671,52.383718,-9.347352,-22.92518,17.698189,35.239241,-7.084271
364,536201000,-103.6450577,-87.82858276,137.9620972,9.836833,-0.474193811,-0.321526378,2.741507292,-3.215848446,9.203580856,52.547665,-9.355255,-22.930539,17.743881,35.185644,-6.930878
365,536217667,-104.4349823,-87.69675446,138.7490234,9.786688805,-0.410646886,-0.220353141,0.592908561,-2.351791143,8.382911682,52.710776,-9.362099,-22.934212,17.753763,35.146447,-6.791163
366,536234334,-104.768898,-87.576828,139.1225433,9.843482018,-0.579839766,-0.291147739,3.163886786,-1.354496002,7.888124943,52.874834,-9.371763,-22.939064,17.806494,35.123872,-6.659694
367,536251001,-104.9173279,-87.47059631,139.2888184,9.847678185,-0.5447703,-0.273576111,1.875528812,-0.693137407,7.195569992,53.038962,-9.380843,-22.943624,17.837753,35.11232,-6.539768
368,536267668,-104.8863525,-87.3727417,139.284668,9.789213181,-0.506477654,-0.182683274,2.419017076,-0.14350155,6.818498135,53.202116,-9.389284,-22.946669,17.87807,35.109928,-6.426126
369,536284335,-104.9054108,-87.2796936,139.329834,9.742452621,-0.513599694,-0.178437456,2.375860453,-0.206329569,6.503220081,53.36449,-9.397844,-22.949643,17.917668,35.106489,-6.317739
370,536301002,-104.9844742,-87.18701172,139.4361572,9.825890541,-0.519658625,-0.212110147,2.442081451,-0.381328344,6.42346096,53.528255,-9.406505,-22.953178,17.958369,35.100134,-6.210681
371,536317669,-105.026474,-87.09559631,139.5025635,9.711601257,-0.492765218,-0.215407446,2.274651289,-0.265328348,6.376602173,53.690115,-9.414718,-22.956768,17.99628,35.095712,-6.104404
372,536334336,-105.1551971,-87.00945282,139.6500092,9.703930855,-0.553335547,-0.204351425,1.922438264,-0.438022077,5.992681026,53.851847,-9.42394,-22.960174,18.028321,35.088412,-6.004526
373,536351003,-105.391037,-86.92451477,139.9113312,9.811971664,-0.644077837,-0.210741118,2.322764874,-0.798431158,5.815313339,54.01538,-9.434675,-22.963686,18.067034,35.075105,-5.907604
374,536367670,-105.4240494,-86.84806061,139.9938049,9.833204269,-0.671775639,-0.260808855,3.774544001,-0.139121816,5.475816727,54.179267,-9.445871,-22.968033,18.129943,35.072786,-5.81634
375,536384337,-105.3203506,-86.77761078,139.9280701,9.762613297,-0.604553759,-0.2604298,3.102671623,0.434417039,5.235581875,54.341977,-9.455947,-22.972373,18.181654,35.080026,-5.72908
376,536401004,-105.2282562,-86.71360016,139.8543243,9.789662361,-0.579261243,-0.201721758,1.919210792,0.568064094,4.88142252,54.505138,-9.465601,-22.975735,18.213641,35.089494,-5.647723
377,536417671,-105.2188034,-86.6520462,139.8656158,9.753154755,-0.646316111,-0.176324591,2.060939074,0.330224574,4.654698849,54.667691,-9.476373,-22.978674,18.24799,35.094998,-5.570145
378,536434338,-105.3508453,-86.59274292,140.0198975,9.768066406,-0.643476784,-0.193092108,2.130016088,-0.13549757,4.402246475,54.830492,-9.487098,-22.981892,18.28349,35.09274,-5.496774
379,536451005,-105.4953308,-86.53434753,140.1883545,9.771069527,-0.633729815,-0.198039398,2.228752851,-0.190910637,4.329429626,54.993343,-9.49766,-22.985193,18.320636,35.089558,-5.424617
380,536467672,-105.7910309,-86.47163391,140.4901428,9.751491547,-0.629268467,-0.17266649,1.154300332,-0.748153448,4.407677174,55.155868,-9.508148,-22.988071,18.339874,35.077089,-5.351156
381,536484339,-106.0146255,-86.4070282,140.7533722,9.778526306,-0.644617736,-0.268808514,3.16937995,-0.679242551,4.540351391,55.318843,-9.518892,-22.992551,18.392697,35.065768,-5.275483
382,536501006,-106.1435623,-86.34312439,140.9031525,9.785727501,-0.625144243,-0.304810435,2.041844606,-0.289225042,4.628023148,55.481938,-9.529311,-22.997631,18.426728,35.060948,-5.198349
383,536517673,-106.2815323,-86.27590179,141.0544128,9.750203133,-0.674408078,-0.235499963,1.596734166,-0.364500761,4.792520523,55.644441,-9.540551,-23.001556,18.45334,35.054873,-5.118474
384,536534340,-106.5452805,-86.2095108,141.3502197,9.746605873,-0.673741162,-0.198896095,2.700039864,-0.925175726,4.585467815,55.806884,-9.55178,-23.004871,18.498341,35.039453,-5.04205
385,536551007,-106.8387146,-86.14273071,141.6568451,9.797994614,-0.756333709,-0.227605581,1.561427116,-1.01355207,4.576656818,55.970184,-9.564386,-23.008664,18.524365,35.02256,-4.965772
386,536567674,-107.0765228,-86.07833862,141.9349365,9.768928528,-0.855065227,-0.254231125,3.193596601,-0.895580053,4.440230846,56.132999,-9.578637,-23.012901,18.577592,35.007634,-4.891768
387,536584341,-107.3594131,-86.01916504,142.2429657,9.770080566,-0.701626062,-0.250174433,2.282757759,-0.95552659,4.085290432,56.295834,-9.590331,-23.017071,18.615638,34.991709,-4.82368
388,536601008,-107.5644379,-85.96556091,142.469162,9.770778656,-0.776596963,-0.289443105,2.057263374,-0.559413493,3.845900774,56.45868,-9.603274,-23.021895,18.649926,34.982385,-4.759582
389,536617675,-107.757164,-85.91447449,142.6784973,9.755922318,-0.822929561,-0.280691653,1.782912731,-0.472432613,3.719757795,56.621279,-9.616989,-23.026573,18.679641,34.974511,-4.697586
390,536634342,-107.9724426,-85.86819458,142.9060211,9.704446793,-0.785544813,-0.261680365,1.517885566,-0.475967228,3.400956869,56.78302,-9.630081,-23.030934,18.704939,34.966578,-4.640903
391,536651009,-108.2572327,-85.82453918,143.2035522,9.723114967,-0.814186275,-0.268878788,1.533201933,-0.744951844,3.155459404,56.945072,-9.643651,-23.035415,18.730492,34.954162,-4.588312
392,536667676,-108.5198059,-85.78146362,143.4910431,9.784097672,-0.827064216,-0.298307419,2.271219254,-0.710259497,3.100686789,57.10814,-9.657435,-23.040387,18.768346,34.942324,-4.536634
393,536684343,-108.6467896,-85.74596405,143.6513977,9.785598755,-0.825235724,-0.37566945,2.793001175,-0.056367159,2.848773003,57.271233,-9.671189,-23.046648,18.814896,34.941385,-4.489154
394,536701010,-108.7479248,-85.71499634,143.7715149,9.75974369,-0.793331921,-0.335947841,1.938497186,0.192428201,2.638671398,57.433895,-9.684411,-23.052247,18.847204,34.944592,-4.445176
395,536717677,-108.8617477,-85.68489075,143.9153442,9.781847954,-0.8365767,-0.270551026,2.599932671,0.105012082,2.535529613,57.596926,-9.698354,-23.056756,18.890536,34.946342,-4.402917
396,536734344,-108.9384689,-85.65679169,144.0315857,9.737574577,-0.806878984,-0.296338826,3.171326399,0.25159359,2.460049152,57.759219,-9.711802,-23.061695,18.943391,34.950535,-4.361916
397,536751011,-109.0214157,-85.63049316,144.1451111,9.756625175,-0.833187163,-0.299400508,2.638427973,0.289397866,2.36132431,57.921829,-9.725688,-23.066685,18.987365,34.955358,-4.322561
398,536767678,-109.074646,-85.60613251,144.2382355,9.759372711,-0.856306851,-0.32003963,3.198040724,0.411941946,2.270310163,58.084485,-9.73996,-23.072019,19.040666,34.962224,-4.284722
399,536784345,-109.1084671,-85.58506012,144.3059845,9.767172813,-0.80743295,-0.304132342,2.84756875,0.5797562,2.122588158,58.247271,-9.753417,-23.077088,19.088125,34.971887,-4.249346
400,536801012,-109.1336365,-85.56663513,144.3619843,9.760481834,-0.837380767,-0.316305161,2.659290075,0.678775012,1.990107059,58.409946,-9.767373,-23.08236,19.132447,34.9832,-4.216178
401,536817679,-109.1215439,-85.55137634,144.3901062,9.773728371,-0.862196922,-0.330580533,3.237112999,0.866567433,1.832422376,58.572841,-9.781743,-23.08787,19.186399,34.997643,-4.185638
402,536834346,-109.0335693,-85.54262543,144.3369598,9.76054287,-0.85072422,-0.328225106,2.919835091,1.34289968,1.605007172,58.735517,-9.795922,-23.09334,19.235063,35.020025,-4.158888
403,536851013,-108.9522705,-85.53682709,144.2843018,9.751075745,-0.889596701,-0.298332334,2.551818371,1.404549122,1.420813084,58.898035,-9.810749,-23.098312,19.277593,35.043434,-4.135208
404,536867680,-108.8186111,-85.53515625,144.1986084,9.772303581,-0.885723829,-0.305290222,3.722012281,1.628814101,1.230344653,59.060907,-9.825511,-23.1034,19.339627,35.070581,-4.114702
405,536884347,-108.6463547,-85.53502655,144.0603943,9.76401329,-0.852114737,-0.324585766,2.885590792,1.885991335,1.230908155,59.223641,-9.839713,-23.10881,19.38772,35.102014,-4.094187
406,536901014,-108.4534988,-85.53656006,143.8976898,9.759515762,-0.854100585,-0.266235471,2.673722506,2.025516272,1.159115434,59.3863,-9.853948,-23.113247,19.432282,35.135773,-4.074868
407,536917681,-108.2493439,-85.54034424,143.7415009,9.773854256,-0.857965827,-0.272552818,3.741336823,2.040525198,1.008794546,59.549198,-9.868247,-23.11779,19.494638,35.169782,-4.058055
408,536934348,-108.0174103,-85.5456543,143.5397034,9.779820442,-0.849891961,-0.269288898,2.678025723,2.266339779,0.986024916,59.712195,-9.882412,-23.122278,19.539272,35.207554,-4.041621
409,536951015,-107.7717285,-85.55265808,143.3280487,9.727650642,-0.881430209,-0.262132049,2.903635025,2.338106871,0.896098852,59.874323,-9.897103,-23.126647,19.587666,35.246522,-4.026686
410,536967682,-107.5456314,-85.56036377,143.1399231,9.766056061,-0.906237364,-0.297603339,3.153909683,2.243928909,0.80852896,60.037091,-9.912207,-23.131607,19.640231,35.283921,-4.013211
411,536984349,-107.2842712,-85.56964111,142.9156342,9.772001266,-0.840787053,-0.254793942,3.125453949,2.421399355,0.769623339,60.199958,-9.92622,-23.135854,19.692322,35.324278,-4.000384
412,537001016,-107.0418854,-85.5774765,142.7048187,9.776120186,-0.840212703,-0.257508248,2.780822039,2.334943533,0.822167695,60.362893,-9.940224,-23.140146,19.738669,35.363194,-3.986681
413,537017683,-106.8096008,-85.58350372,142.5068665,9.753265381,-0.847605467,-0.240252554,3.031455278,2.233504295,0.890002966,60.525447,-9.954351,-23.14415,19.789193,35.400419,-3.971848
414,537034350,-106.6285782,-85.58695984,142.3540649,9.73414135,-0.833603263,-0.219865203,2.538397789,1.995638967,0.987433493,60.687683,-9.968244,-23.147814,19.8315,35.43368,-3.955391
415,537051017,-106.524971,-85.58771515,142.2817535,9.770205498,-0.838363886,-0.217428535,2.730403423,1.591368079,1.026428938,60.85052,-9.982217,-23.151438,19.877007,35.460203,-3.938284
416,537067684,-106.4074326,-85.58824921,142.2011261,9.760989189,-0.887917995,-0.277427256,3.001116753,1.629864097,1.049698114,61.013203,-9.997016,-23.156062,19.927026,35.487367,-3.920789
417,537084351,-106.2786942,-85.58953857,142.1008148,9.779725075,-0.869789541,-0.24112691,2.543802023,1.720200062,1.029515147,61.176198,-10.011512,-23.160081,19.969423,35.516037,-3.90363
418,537101018,-106.1576843,-85.58722687,142.0114899,9.783535957,-0.839404404,-0.226927176,2.669214487,1.618056536,1.22030437,61.339257,-10.025502,-23.163863,20.01391,35.543005,-3.883292
419,537117685,-106.0142059,-85.58226013,141.9069977,9.737766266,-0.860013187,-0.258972704,2.89131546,1.65730834,1.427191019,61.501553,-10.039836,-23.168179,20.062099,35.570627,-3.859505
420,537134352,-105.9284821,-85.57769775,141.8463593,9.758126259,-0.840818167,-0.230892882,2.575510502,1.424783111,1.267956614,61.664188,-10.05385,-23.172027,20.105024,35.594373,-3.838372
421,537151019,-105.8132553,-85.57291412,141.7662506,9.764735222,-0.922253788,-0.218235195,2.743837118,1.543946266,1.367820382,61.826934,-10.069221,-23.175664,20.150755,35.620105,-3.815575
422,537167686,-105.6575928,-85.56686401,141.6515961,9.716095924,-0.903765976,-0.229716226,3.253632784,1.667361379,1.445119858,61.988869,-10.084284,-23.179493,20.204982,35.647894,-3.79149
423,537184353,-105.5702972,-85.56129456,141.6008453,9.777835846,-0.892107189,-0.214328304,3.069335938,1.372866273,1.345114827,62.151833,-10.099152,-23.183065,20.256138,35.670775,-3.769071
424,537201020,-105.4611969,-85.55516815,141.5253754,9.772032738,-0.875942945,-0.224325567,3.069758654,1.459949374,1.372033834,62.3147,-10.113751,-23.186804,20.307301,35.695107,-3.746204
425,537217687,-105.3181686,-85.54851532,141.4111938,9.762672424,-0.89839685,-0.221125707,2.923087835,1.612229824,1.432902575,62.477411,-10.128724,-23.190489,20.356019,35.721977,-3.722322
426,537234354,-105.1652298,-85.54200745,141.2914581,9.748440742,-0.892574787,-0.225650787,3.098995924,1.646550894,1.439728498,62.639885,-10.1436,-23.19425,20.407669,35.74942,-3.698327
427,537251021,-105.0248184,-85.53559875,141.190979,9.776022911,-0.913349867,-0.246703193,3.122687817,1.601971984,1.443390965,62.802819,-10.158822,-23.198362,20.459714,35.77612,-3.67427
428,537267688,-104.8467102,-85.53143311,141.0551453,9.736327171,-0.927395642,-0.222047046,2.941452265,1.828657269,1.393126011,62.965091,-10.174279,-23.202063,20.508738,35.806598,-3.651051
429,537284355,-104.6774368,-85.52696991,140.944046,9.769086838,-0.884751558,-0.196059078,3.509887457,1.749962091,1.42245245,63.127909,-10.189025,-23.205331,20.567236,35.835764,-3.627343
430,537301022,-104.5530396,-85.51974487,140.8524323,9.767594337,-0.910903752,-0.232037574,2.857532501,1.53238225,1.453508019,63.290702,-10.204207,-23.209198,20.614862,35.861304,-3.603118
431,537317689,-104.3755188,-85.5122757,140.7120819,9.782719612,-0.97483927,-0.212795541,3.286455631,1.735952258,1.499470115,63.453747,-10.220454,-23.212745,20.669636,35.890237,-3.578127
432,537334356,-104.1767731,-85.50621033,140.5462646,9.761528969,-0.898775399,-0.188596338,3.751287699,1.796602964,1.368589044,63.616439,-10.235434,-23.215888,20.732157,35.92018,-3.555317
433,537351023,-104.0038452,-85.49977112,140.414444,9.715425491,-0.922920346,-0.220311165,3.154754877,1.74988544,1.466954589,63.778363,-10.250816,-23.21956,20.784736,35.949345,-3.530868
434,537367690,-103.8096085,-85.49367523,140.2633667,9.76864624,-0.933738887,-0.236287832,3.277926445,1.843243718,1.466557741,63.941174,-10.266378,-23.223498,20.839368,35.980066,-3.506425
435,537384357,-103.5813599,-85.48846436,140.0459747,9.766131401,-0.940771878,-0.214702144,3.13430357,1.972997904,1.293364763,64.103943,-10.282058,-23.227076,20.891606,36.012949,-3.484869
436,537401024,-103.3632278,-85.48568726,139.8800354,9.747131348,-0.924412429,-0.21068716,3.420665503,2.003771067,1.320449829,64.266395,-10.297465,-23.230587,20.948617,36.046345,-3.462862
437,537417691,-103.1077194,-85.48017883,139.6477051,9.765710831,-0.946188271,-0.218285277,3.203841209,2.117184401,1.367218733,64.429157,-10.313235,-23.234225,21.002014,36.081631,-3.440075
438,537434358,-102.8759384,-85.47644806,139.4703827,9.754976273,-0.96594739,-0.200526282,3.456485033,2.056648493,1.387785673,64.59174,-10.329334,-23.237567,21.059622,36.115908,-3.416945
439,537451025,-102.5744553,-85.47190857,139.2266235,9.75402832,-0.944818854,-0.198695868,3.962079763,2.320638418,1.474318027,64.754307,-10.345081,-23.240879,21.125657,36.154585,-3.392373
440,537467692,-102.3176727,-85.4675827,139.0380096,9.759197235,-0.867055297,-0.161822438,3.545015097,2.184750319,1.496281147,64.91696,-10.359532,-23.243576,21.184741,36.190998,-3.367435
441,537484359,-102.071991,-85.45800018,138.8346405,9.776228905,-0.96550113,-0.194744825,3.386062622,2.038873196,1.664505124,65.079897,-10.375624,-23.246822,21.241175,36.224979,-3.339693
442,537501026,-101.7064896,-85.44593811,138.5081482,9.795249939,-0.970512331,-0.200428456,4.082127094,2.491040468,1.832204938,65.243151,-10.391799,-23.250162,21.30921,36.266496,-3.309156
443,537517693,-101.3647842,-85.43503571,138.2220154,9.717262268,-0.940178275,-0.177666709,3.999666214,2.438661814,1.83984983,65.405105,-10.407469,-23.253123,21.375871,36.30714,-3.278492
444,537534360,-101.0743713,-85.42093658,137.9722595,9.749391556,-0.949909806,-0.121914603,3.556669235,2.191243649,1.92156744,65.567595,-10.423301,-23.255155,21.435149,36.343661,-3.246466
445,537551027,-100.8301086,-85.40445709,137.7992249,9.732000351,-0.92073983,-0.114282556,4.063660145,1.949920654,2.141209126,65.729795,-10.438647,-23.25706,21.502877,36.37616,-3.210779
446,537567694,-100.6253052,-85.38170624,137.6392822,9.746213913,-0.943056405,-0.141233161,3.547307968,1.712260127,2.35855794,65.892232,-10.454365,-23.259414,21.561999,36.404698,-3.17147
447,537584361,-100.4741516,-85.35932159,137.5682373,9.76063633,-0.990667701,-0.166032672,3.468395472,1.5338552,2.524131775,66.054909,-10.470876,-23.262181,21.619806,36.430262,-3.129401
448,537601028,-100.2611008,-85.32961273,137.3776245,9.775009155,-0.994970679,-0.148944944,3.994735718,1.594902754,2.60222435,66.217826,-10.487459,-23.264663,21.686385,36.456844,-3.086031
449,537617695,-100.0740051,-85.30076599,137.235672,9.750695229,-0.995424807,-0.145340741,3.735432625,1.564692497,2.670149326,66.380338,-10.504049,-23.267085,21.748642,36.482922,-3.041529
450,537634362,-99.89683533,-85.26972961,137.1118164,9.749418259,-0.969712436,-0.13966994,4.044924259,1.476021647,2.822634935,66.542828,-10.520211,-23.269413,21.816057,36.507522,-2.994485
451,537651029,-99.69844818,-85.23523712,136.9264221,9.766354561,-0.984418452,-0.154601008,3.453296423,1.545944333,2.86426878,66.705601,-10.536618,-23.27199,21.873612,36.533288,-2.946747
452,537667696,-99.51179504,-85.200737,136.7832642,9.743989944,-0.978212178,-0.111021422,3.193814754,1.586079597,3.066532612,66.868001,-10.552922,-23.27384,21.926842,36.559723,-2.895638
453,537684363,-99.36725616,-85.16061401,136.6771393,9.748505592,-1.012304068,-0.113747686,3.477756739,1.291059375,3.28781271,67.030476,-10.569794,-23.275736,21.984805,36.581241,-2.840841
454,537701030,-99.21089935,-85.11448669,136.5396118,9.774236679,-1.014853001,-0.131157666,3.447341442,1.265280128,3.547602415,67.19338,-10.586708,-23.277922,22.042261,36.602329,-2.781714
455,537717697,-99.11801147,-85.0663681,136.4792938,9.72248745,-0.990356088,-0.108799867,3.015537024,1.008781791,3.739902496,67.355421,-10.603214,-23.279735,22.09252,36.619142,-2.719382
456,537734364,-99.09262848,-85.01347351,136.4764862,9.728496552,-1.05184412,-0.122215509,3.439709425,0.551006138,3.847284317,67.517563,-10.620745,-23.281772,22.149848,36.628325,-2.655261
457,537751031,-99.05545044,-84.9595108,136.474411,9.766940117,-1.044835091,-0.108067065,3.406719685,0.628061891,4.004341125,67.680345,-10.638159,-23.283573,22.206627,36.638793,-2.588522
458,537767698,-99.07298279,-84.90345764,136.544342,9.728287697,-1.065976977,-0.136857346,3.915452003,0.294302732,4.113950729,67.842483,-10.655925,-23.285854,22.271885,36.643698,-2.519956
459,537784365,-99.06269836,-84.84695435,136.5948944,9.750264168,-1.104623914,-0.165767536,3.732167482,0.470966309,4.237531662,68.004987,-10.674335,-23.288617,22.334088,36.651547,-2.44933
460,537801032,-98.92173004,-84.7853775,136.4401398,9.806873322,-1.064669728,-0.163015693,3.182455063,1.04335916,4.271994114,68.168435,-10.692079,-23.291334,22.387129,36.668936,-2.37813
461,537817699,-98.80922699,-84.72393036,136.3541718,9.721726418,-1.115026832,-0.122276947,3.22431922,0.98112011,4.466867924,68.330464,-10.710663,-23.293372,22.440868,36.685288,-2.303682
462,537834366,-98.69203949,-84.66660309,136.2883759,9.704352379,-1.158169746,-0.15223822,4.061892986,0.998331964,4.284825802,68.492203,-10.729966,-23.295909,22.508566,36.701927,-2.232268
463,537851033,-98.53623199,-84.60664368,136.1860962,9.74136734,-1.121575356,-0.132620752,3.505981922,1.277625561,4.544692039,68.654559,-10.748659,-23.298119,22.566999,36.723221,-2.156523
464,537867700,-98.38109589,-84.54659271,136.1079712,9.740484238,-1.0847404,-0.139298394,3.634941339,1.319425464,4.678108692,68.8169,-10.766738,-23.300441,22.627581,36.745211,-2.078555
465,537884367,-98.23561096,-84.47699738,135.9675598,9.735261917,-1.166200876,-0.136885643,3.101058006,1.119172573,4.858550072,68.979154,-10.786175,-23.302722,22.679265,36.763864,-1.997579
466,537901034,-98.07054138,-84.40812683,135.8209534,9.754542351,-1.151644468,-0.122488976,3.472275496,1.232585549,4.873046875,69.14173,-10.805369,-23.304763,22.737136,36.784407,-1.916362
467,537917701,-97.95288849,-84.3367691,135.755661,9.748615265,-1.181074262,-0.134057611,3.842520237,0.975984752,5.135846615,69.304207,-10.825054,-23.306997,22.801178,36.800673,-1.830765
468,537934368,-97.87722778,-84.26478577,135.7462921,9.747934341,-1.133908868,-0.111543603,3.177268744,0.849906266,5.299677849,69.466673,-10.843952,-23.308856,22.854132,36.814838,-1.742437
469,537951035,-97.77494812,-84.18533325,135.6575165,9.717197418,-1.211307049,-0.098537043,3.353189468,0.822628856,5.419379234,69.628626,-10.86414,-23.310498,22.910018,36.828548,-1.652114
470,537967702,-97.70864105,-84.10425568,135.6345062,9.726590157,-1.244447947,-0.144030929,4.020337105,0.571112216,5.596914291,69.790736,-10.884881,-23.312899,22.977024,36.838067,-1.558832
471,537984369,-97.62932587,-84.02243042,135.6102295,9.712162971,-1.198644161,-0.097895227,3.596894741,0.73657012,5.758286476,69.952605,-10.904858,-23.314531,23.036972,36.850343,-1.462861
472,538001036,-97.60574341,-83.93650818,135.6234436,9.734643936,-1.233861566,-0.101451054,3.613670826,0.315458894,5.850633621,70.114849,-10.925422,-23.316222,23.0972,36.855601,-1.36535
473,538017703,-97.56284332,-83.85005951,135.6316376,9.753361702,-1.228928566,-0.146532565,3.710500002,0.451462388,5.967748165,70.277405,-10.945904,-23.318664,23.159042,36.863125,-1.265888
474,538034370,-97.52813721,-83.76847839,135.687088,9.71284771,-1.309600592,-0.116186589,2.924496889,0.634670019,6.015437603,70.439286,-10.967731,-23.3206,23.207784,36.873703,-1.165631
475,538051037,-97.49173737,-83.67621613,135.7018127,9.669363022,-1.36897707,-0.0902666,3.95085001,0.329814821,6.283078671,70.600442,-10.990547,-23.322104,23.273632,36.8792,-1.060913
476,538067704,-97.48875427,-83.58204651,135.7470856,9.720366478,-1.283015966,-0.123944446,4.162807465,0.056514435,6.311982155,70.762448,-11.011931,-23.32417,23.343012,36.880142,-0.955713
477,538084371,-97.49948883,-83.48718262,135.8194122,9.680912971,-1.349169135,-0.110029012,3.259856701,0.114066161,6.528588295,70.923797,-11.034417,-23.326004,23.397343,36.882043,-0.846903
478,538101038,-97.57543182,-83.38517761,135.9455261,9.666913986,-1.304747105,-0.100943558,4.135683537,-0.55885005,6.715446472,71.084912,-11.056163,-23.327686,23.466271,36.872729,-0.734979
479,538117705,-97.68404388,-83.27990723,136.1067047,9.724866867,-1.375781059,-0.137340769,3.573343754,-0.746834397,6.955078602,71.246993,-11.079093,-23.329975,23.525827,36.860282,-0.619061
480,538134372,-97.78661346,-83.16875458,136.2437897,9.725564957,-1.397076368,-0.104357585,3.976859331,-0.881147563,7.129066467,71.409086,-11.102378,-23.331714,23.592108,36.845596,-0.500243
481,538151039,-97.91593933,-83.05490875,136.4441528,9.688464165,-1.397753954,-0.124015383,4.582522392,-1.146136522,7.415889263,71.57056,-11.125674,-23.333781,23.668483,36.826494,-0.376645
482,538167706,-98.0949173,-82.93578339,136.6765442,9.692217827,-1.373505831,-0.089682251,4.053017616,-1.550535202,7.614937782,71.732097,-11.148566,-23.335276,23.736033,36.800652,-0.249729
483,538184373,-98.32454681,-82.8097229,136.9624939,9.663373947,-1.4686445,-0.106305331,4.186768055,-2.059869766,7.961504936,71.893153,-11.173043,-23.337048,23.805812,36.766321,-0.117037
484,538201040,-98.60766602,-82.67654419,137.3100128,9.667187691,-1.502990127,-0.12559855,4.716105938,-2.669106483,8.277744293,72.054273,-11.198093,-23.339141,23.884414,36.721836,0.020925
485,538217707,-98.90419769,-82.54252625,137.6647949,9.710152626,-1.511953592,-0.125735775,4.997513294,-2.930407763,8.207438469,72.216109,-11.223292,-23.341237,23.967706,36.672996,0.157716
486,538234374,-99.20426941,-82.40746307,138.0403748,9.681423187,-1.528351426,-0.147606671,5.07002306,-3.034126043,8.331877708,72.377466,-11.248765,-23.343697,24.052206,36.622427,0.296581
487,538251041,-99.52548981,-82.26772308,138.417099,9.641953468,-1.509826541,-0.146015555,4.315780163,-3.259121418,8.507325172,72.538165,-11.273929,-23.346131,24.124136,36.568108,0.43837
488,538267708,-99.86788177,-82.12667847,138.8174133,9.707551003,-1.549663663,-0.122902535,4.067938805,-3.501686096,8.572048187,72.699958,-11.299757,-23.348179,24.191935,36.509747,0.581237
489,538284375,-100.2246323,-81.98149109,139.2243042,9.679614067,-1.630180597,-0.177676097,3.872616053,-3.757800579,8.729836464,72.861285,-11.326927,-23.35114,24.256479,36.447117,0.726734
490,538301042,-100.5470428,-81.83521271,139.6254883,9.680143356,-1.657073855,-0.236794055,4.394436359,-3.617353201,8.915808678,73.022621,-11.354545,-23.355087,24.32972,36.386828,0.875331
491,538317709,-100.8416214,-81.68582916,139.9883423,9.633846283,-1.685752869,-0.292479098,4.899327278,-3.633963346,8.965805054,73.183185,-11.382641,-23.359962,24.411375,36.326262,1.024761
492,538334376,-101.0841522,-81.53084564,140.2960663,9.634699821,-1.679131746,-0.278837591,4.791920185,-3.328390598,9.345564842,73.343763,-11.410627,-23.364609,24.49124,36.270789,1.18052
493,538351043,-101.3684616,-81.37270355,140.6667023,9.646421432,-1.594736576,-0.231536329,5.979889393,-4.002133369,9.397227287,73.504537,-11.437206,-23.368468,24.590905,36.204087,1.33714
494,538367710,-101.6620636,-81.2063446,141.0179291,9.691608429,-1.60403192,-0.242186725,4.217863083,-4.026670456,9.881128311,73.666064,-11.46394,-23.372504,24.661203,36.136976,1.501825
495,538384377,-101.967598,-81.02893829,141.36203,9.647465706,-1.666720033,-0.240365848,3.051152706,-4.201873779,10.49977684,73.826855,-11.491719,-23.37651,24.712056,36.066945,1.676821
496,538401044,-102.3146133,-80.84510803,141.7649994,9.65530777,-1.620234966,-0.254728556,4.067618847,-4.955092907,10.71521854,73.987777,-11.518723,-23.380755,24.77985,35.98436,1.855408
497,538417711,-102.7813568,-80.65428925,142.2586823,9.663362503,-1.669359565,-0.194513589,2.20179677,-6.040470123,10.87884617,74.148833,-11.546546,-23.383997,24.816547,35.883685,2.036722
498,538434378,-103.3681412,-80.44424438,142.8662415,9.628668785,-1.765405297,-0.09655983,1.755674839,-7.596046448,11.65258217,74.309311,-11.575969,-23.385606,24.845808,35.757084,2.230932
499,538451045,-104.0473557,-80.20868683,143.6059113,9.539344788,-1.620179176,-0.114940822,3.940184593,-9.503620148,12.70484543,74.4683,-11.602972,-23.387522,24.911478,35.59869,2.442679
500,538467712,-104.9537201,-79.93776703,144.5062408,9.53164196,-1.551543117,-0.196230859,-0.194880828,-12.00348854,14.13480568,74.627161,-11.628831,-23.390793,24.90823,35.398632,2.678259
501,538484379,-106.1085663,-79.62217712,145.6464081,9.653848648,-1.396845698,-0.144353837,-0.977017403,-15.69057751,15.72404671,74.788058,-11.652112,-23.393199,24.891946,35.137122,2.940326
502,538501046,-107.4625626,-79.2543869,146.9710083,9.684262276,-1.45736599,-0.081448257,-2.129092693,-19.25002098,17.65857697,74.949462,-11.676401,-23.394556,24.856461,34.816288,3.234636
503,538517713,-109.0508728,-78.81153107,148.5470276,9.564903259,-1.565270662,-0.048722055,-1.450100064,-24.35433769,20.33472252,75.108877,-11.702489,-23.395368,24.832293,34.410382,3.573548
504,538534380,-111.0629272,-78.27472687,150.5090179,9.577979088,-1.681269884,-0.010916725,-4.368468761,-31.95541,22.97844505,75.26851,-11.73051,-23.39555,24.759485,33.877792,3.956522
505,538551047,-113.1423645,-77.65493011,152.6250458,10.08547878,-1.757097721,-0.15096131,0.377790034,-37.47287369,25.23750496,75.436601,-11.759795,-23.398066,24.765782,33.253244,4.377147
506,538567714,-115.3077164,-76.9646759,154.8179321,10.26426506,-1.927289724,-0.213711515,-0.586657584,-42.31238556,26.65082169,75.607672,-11.791916,-23.401628,24.756004,32.548038,4.821327
507,538584381,-117.4479065,-76.2233963,157.0579376,10.55875969,-2.43892169,-0.195774138,3.294671774,-46.65097809,26.74996948,75.783651,-11.832565,-23.404891,24.810915,31.770522,5.26716
508,538601048,-119.1956253,-75.42289734,159.2099304,11.05666351,-2.458933353,-0.495751411,21.29355812,-49.61459351,28.01919365,75.967929,-11.873547,-23.413154,25.165808,30.943612,5.734147
509,538617715,-120.4238205,-74.61167908,160.5395813,11.36427402,-3.159151793,-0.386281043,4.343494892,-41.0965538,32.7224884,76.157334,-11.9262,-23.419592,25.2382,30.258669,6.279522
510,538634382,-121.4318466,-73.68055725,161.6750336,11.17758369,-3.023832083,0.363401771,6.025486946,-43.70096588,39.088974,76.343627,-11.976597,-23.413535,25.338625,29.53032,6.931005
511,538651049,-122.0567398,-72.61714935,162.6578674,10.96708298,-2.193790913,0.031267233,19.91441154,-47.16419601,45.99020004,76.526412,-12.01316,-23.413014,25.670532,28.74425,7.697508
512,538667716,-122.7243042,-71.51972198,163.4608459,10.96373081,-1.389264703,-0.761833608,6.749694824,-46.8795929,48.38589478,76.709141,-12.036314,-23.425711,25.783027,27.962923,8.50394
513,538684383,-123.4565735,-70.43552399,164.2923584,10.8425827,-1.516394377,-1.224076033,4.174846172,-48.23396301,46.38187027,76.889851,-12.061587,-23.446112,25.852608,27.159024,9.276971
514,538701050,-124.0658798,-69.38835144,165.1410217,10.41118526,-0.97286731,-1.705068111,12.18891239,-48.55653,43.30221176,77.063371,-12.077801,-23.47453,26.055757,26.349748,9.998675
515,538717717,-124.9024658,-68.37216949,166.0797272,9.844524384,-0.371796221,-2.284825325,3.24498415,-50.34126663,39.588974,77.227446,-12.083998,-23.51261,26.10984,25.510727,10.658491
516,538734384,-125.9402771,-67.3951416,167.1706238,9.469087601,-0.605522037,-2.975739956,-0.755194724,-53.13651657,34.36111069,77.385264,-12.09409,-23.562206,26.097253,24.625118,11.231176
517,538751051,-127.1135635,-66.43785858,168.4792175,9.361701965,-1.101333618,-3.717081547,2.684519291,-57.98023224,28.75054741,77.541292,-12.112446,-23.624157,26.141995,23.658781,11.710352
518,538767718,-128.2194061,-65.52707672,169.908432,9.166372299,-0.933407843,-4.378026009,12.81196117,-60.04470444,22.88830566,77.694065,-12.128003,-23.697124,26.355528,22.658036,12.091824
519,538784385,-129.3996887,-64.82210541,171.1756592,9.035888672,-1.272479296,-4.393634319,-0.996285856,-50.3742485,13.96210289,77.844663,-12.149211,-23.770351,26.338923,21.818465,12.324526
520,538801052,-130.7918243,-64.44085693,172.1451416,9.306763649,-1.402399421,-0.996937454,-30.17269135,-32.75226974,2.498638868,77.999776,-12.172584,-23.786967,25.836045,21.272594,12.36617
521,538817719,-131.4733429,-64.62076569,172.3892059,8.938690186,2.197263479,1.428644776,-26.88984108,3.382987261,-11.19122887,78.148754,-12.135963,-23.763156,25.387881,21.328977,12.17965
522,538834386,-132.2635956,-65.10373688,172.5747375,7.6634202,4.565564156,0.844419956,-36.59565735,16.8102169,-23.57260323,78.276478,-12.05987,-23.749082,24.777953,21.609147,11.786773
523,538851053,-134.6339111,-65.86284637,173.0169373,7.860835552,3.087563753,0.419088542,-117.3985901,24.30150414,-39.35412216,78.407492,-12.008411,-23.742097,22.82131,22.014172,11.130871
524,538867720,-136.9307709,-66.88531494,173.6636963,8.285552979,0.241835788,0.217947409,-101.6180038,34.0614624,-52.55937195,78.545585,-12.00438,-23.738465,21.127677,22.581863,10.254881
525,538884387,-138.8219604,-68.23086548,174.4060516,8.809127808,-0.991530478,-0.667410314,-71.69405365,49.37578201,-65.35478973,78.692404,-12.020906,-23.749589,19.932776,23.404793,9.165635
526,538901054,-140.5475922,-69.86659241,175.1693573,9.250404358,-1.585122824,-0.561946869,-60.16635132,65.10155487,-74.56793976,78.846577,-12.047325,-23.758955,18.930003,24.489819,7.922836
527,538917721,-141.6695251,-71.70368958,175.9440002,9.312722206,-1.991784453,-0.182403713,-22.84576988,77.01548004,-79.69171143,79.001789,-12.080521,-23.761995,18.54924,25.77341,6.594641
528,538934388,-142.4399567,-73.68726349,176.8414764,9.666487694,-1.329419613,-0.556941032,5.767015934,84.79563904,-84.41005707,79.162897,-12.102678,-23.771277,18.645357,27.186671,5.187807
529,538951055,-143.3164368,-75.80373383,177.9389648,10.02805233,-1.182740688,-0.762327671,11.51513767,91.56121826,-89.05317688,79.330031,-12.12239,-23.783982,18.837276,28.712691,3.703587
530,538967722,-144.4690247,-77.99932098,179.4910431,10.29413605,-1.25184083,-0.648308516,22.11851883,94.73161316,-93.28092957,79.5016,-12.143254,-23.794787,19.205918,30.291551,2.148905
531,538984389,-146.3359985,-80.24024963,-178.1307678,10.81356812,-0.841214418,-0.858834386,28.68787003,96.09410095,-97.11569214,79.681826,-12.157274,-23.809101,19.684049,31.893119,0.53031
532,539001056,-149.9729767,-82.5342865,-174.2067566,10.25635529,-0.447402656,-0.766669273,15.16735077,98.97205353,-101.1503906,79.852765,-12.164731,-23.821879,19.936838,33.542653,-1.15553
533,539017723,-157.6377258,-84.70206451,-166.399826,11.06031799,-0.979058146,-0.687482357,6.259941101,94.17108154,-102.5893173,80.037104,-12.181049,-23.833337,20.04117,35.112171,-2.865352
534,539034390,-174.6549225,-86.74677277,-149.1476746,10.4473362,-1.557056785,-1.642346621,11.97046566,100.0533829,-102.3398666,80.211226,-12.207,-23.860709,20.240678,36.779727,-4.571016
535,539051057,143.0207367,-87.72428131,-106.829689,10.94599915,-2.442730665,-2.282132864,-2.418913603,85.9596405,-98.94233704,80.393659,-12.247712,-23.898745,20.200363,38.212388,-6.220055
536,539067724,99.94435883,-87.04740143,-63.647686,10.73052788,-3.590558529,-1.867764115,4.530825615,79.42105103,-91.1827774,80.572501,-12.307555,-23.929874,20.275877,39.536072,-7.739768
537,539084391,81.48872375,-85.65882111,-44.77807999,10.95291996,-3.577151299,-1.766654968,23.32279587,71.40113068,-81.8757782,80.75505,-12.367174,-23.959318,20.66459,40.726091,-9.104364
538,539101058,73.70301819,-84.25799561,-36.34046555,10.28055,-3.449373722,-1.760582924,37.90996552,62.18796539,-71.16683197,80.926392,-12.424664,-23.988661,21.296423,41.762557,-10.290478
539,539117725,70.38110352,-83.04512024,-32.06803131,9.550453186,-3.668647051,-2.219702005,56.24178314,50.18074036,-59.35164642,81.085566,-12.485808,-24.025656,22.233786,42.598903,-11.279672
540,539134392,69.34593964,-82.0530777,-29.90198708,8.862224579,-3.71954751,-2.819201231,67.5944519,37.15063858,-49.04733658,81.23327,-12.5478,-24.072643,23.36036,43.21808,-12.097128
541,539151059,69.4994812,-81.29109955,-29.10003853,8.430919647,-3.05563736,-2.472167015,57.72202682,23.48327446,-39.3972435,81.373785,-12.598727,-24.113846,24.322394,43.609468,-12.753749
542,539167726,70.2653656,-80.75291443,-28.96932983,8.115919113,-2.705564976,-1.794220567,54.63816071,13.18485928,-28.98835182,81.50905,-12.64382,-24.14375,25.23303,43.829216,-13.236888
543,539184393,71.99823761,-80.46795654,-29.72643471,7.724945068,-2.902426004,-2.381116867,60.13889313,-0.521987617,-17.71129227,81.637799,-12.692194,-24.183435,26.235345,43.820516,-13.532076
544,539201060,74.24517822,-80.42414856,-31.38455963,8.127877235,-2.256212711,-3.050307035,37.73697281,-14.0351553,-6.506207466,81.773264,-12.729798,-24.234273,26.864295,43.586597,-13.640513
545,539217727,75.796875,-80.5150528,-32.97972488,9.302531242,-0.07281208,-2.796799183,-0.228920087,-15.67002201,1.933862805,81.928306,-12.731012,-24.280886,26.86048,43.32543,-13.608282
546,539234394,77.07924652,-80.87872314,-34.46986008,7.257465839,-3.772098303,-4.697372437,-10.23170662,-18.0803051,18.55880928,82.049264,-12.79388,-24.359176,26.689952,43.024092,-13.298969
547,539251061,80.42345428,-81.40049744,-38.93930054,10.00667763,-1.575221777,-2.723011017,-63.22770309,-45.45307922,23.30788231,82.216042,-12.820134,-24.40456,25.636157,42.266541,-12.910504
548,539267728,79.33055878,-81.46325684,-39.71742249,12.41351223,6.43543911,3.379307032,-110.6249695,-6.313515663,3.127548456,82.422934,-12.712877,-24.348238,23.792408,42.161316,-12.858378
549,539284395,76.02402496,-81.11904907,-37.80610657,12.02543259,9.284902573,9.254375458,-83.97233582,22.53006172,-15.75189304,82.623358,-12.558129,-24.193998,22.392869,42.536817,-13.12091
550,539301062,79.23009491,-81.39885712,-41.21088028,10.92943764,-4.309603691,3.582991838,-8.551638603,-32.86802292,10.54725456,82.805515,-12.629956,-24.134281,22.250342,41.989017,-12.945122
551,539317729,87.93476868,-82.20449829,-49.67288589,13.25408363,-8.446351051,-7.166523457,20.83039093,-76.25148773,40.54072189,83.026416,-12.770729,-24.253723,22.597515,40.718159,-12.269443
552,539334396,90.91915894,-82.69002533,-54.55910492,15.8009491,-3.432743549,-3.661821842,-110.3444443,-37.69103622,29.29515648,83.289765,-12.827941,-24.314753,20.758441,40.089975,-11.78119
553,539351063,91.88600922,-83.07273102,-56.49321365,7.661340714,0.27493,3.750872612,-55.85607529,-12.6374197,23.80198479,83.417454,-12.823359,-24.252238,19.827506,39.879351,-11.38449
554,539367730,101.0858612,-83.33485413,-64.98989868,7.743122578,1.083856463,0.930270374,47.06523895,-56.98317719,22.88097382,83.546506,-12.805295,-24.236733,20.611927,38.929631,-11.00314
555,539384397,108.7607346,-83.43738556,-72.24724579,8.844590187,4.333129883,-4.325872898,29.242939,-45.73446655,19.33084869,83.693916,-12.733076,-24.308831,21.099309,38.16739,-10.680959
556,539401064,111.8706665,-83.55153656,-76.39257813,10.47382164,0.600165427,-2.730310678,-59.29406738,-22.89024544,16.74368668,83.86848,-12.723073,-24.354336,20.111075,37.785886,-10.401898
557,539417731,114.3424301,-83.6020813,-79.30686951,9.557967186,-1.345598698,0.680869758,-24.23592377,-15.61813259,11.00165176,84.027779,-12.7455,-24.342988,19.707143,37.525584,-10.218537
558,539434398,118.972168,-83.4813385,-83.82431793,9.537828445,-0.838959634,0.471829444,9.713381767,-29.31646919,7.707017422,84.186743,-12.759483,-24.335124,19.869033,37.036976,-10.090087
559,539451065,123.6514893,-83.25369263,-88.62754059,10.51467896,-0.316843629,-0.403020024,-4.222214699,-34.35704422,6.111831665,84.361988,-12.764764,-24.341841,19.798663,36.464359,-9.988223
560,539467732,127.912735,-83.00697327,-92.98800659,10.55133915,0.238173202,-0.937654853,-2.777881145,-32.87596893,6.738548279,84.537844,-12.760794,-24.357469,19.752365,35.916426,-9.875914
561,539484399,131.637146,-82.77876282,-96.79032135,9.962649345,1.112141967,-1.256814122,-1.616442084,-29.28147888,7.980777264,84.703888,-12.742258,-24.378416,19.725424,35.428401,-9.742901
562,539501066,134.9534607,-82.57920837,-100.0728912,9.767814636,1.060481548,-1.525136352,4.926333904,-25.31041145,8.938329697,84.866685,-12.724583,-24.403835,19.80753,35.006561,-9.593929
563,539517733,137.8453522,-82.42415619,-102.923439,10.23353672,0.619928896,-1.492330194,5.229227066,-20.96004677,10.19183731,85.037244,-12.714251,-24.428707,19.894684,34.657227,-9.424065
564,539534400,140.2953186,-82.30065918,-105.4812927,10.41094589,-0.112966299,-0.893604815,-3.829635382,-17.79162598,10.99613667,85.21076,-12.716134,-24.4436,19.830857,34.3607,-9.240796
565,539551067,142.9057617,-82.14634705,-108.0372543,9.973122597,-0.569696605,-0.699565411,5.977259159,-18.97552681,10.93896008,85.376979,-12.725629,-24.455259,19.930478,34.044441,-9.05848
566,539567734,145.6940918,-81.95489502,-110.5957489,9.682937622,0.343318731,-1.15498209,16.58169556,-20.55134773,10.94385052,85.538361,-12.719907,-24.474509,20.20684,33.701919,-8.876082
567,539584401,148.4544678,-81.7485733,-113.2041779,9.382324219,1.038951278,-1.17749989,12.01473141,-21.28889084,12.28860855,85.694733,-12.702591,-24.494134,20.407086,33.347104,-8.671272
568,539601068,151.4727936,-81.53847504,-115.9686661,9.394743919,1.079972625,-1.203864694,18.29771423,-21.82862282,14.96059704,85.851312,-12.684591,-24.514198,20.712048,32.983294,-8.421929
569,539617735,154.6075439,-81.29969788,-118.8691864,9.582576752,1.293853045,-1.000585079,17.30109024,-23.39055252,17.06029129,86.011022,-12.663027,-24.530874,21.0004,32.593451,-8.137591
570,539634402,157.821106,-81.0326004,-121.838501,9.718666077,0.428190947,-1.208423257,18.05243874,-24.55793381,18.99062157,86.173,-12.65589,-24.551014,21.301274,32.184152,-7.821081
571,539651069,161.0046997,-80.73400879,-124.7308807,9.724082947,0.14318727,-1.635276437,20.94760895,-25.30953217,19.85683632,86.335068,-12.653504,-24.578269,21.650401,31.762326,-7.490134
572,539667736,163.8088226,-80.42145538,-127.3990402,9.62680912,-0.015292198,-1.438904643,11.60322857,-24.66503334,19.72457504,86.495515,-12.653759,-24.602251,21.843788,31.351242,-7.161391
573,539684403,166.6342926,-80.05570221,-129.9955292,9.642115593,-0.079601146,-1.518891215,17.27996445,-26.83334923,20.34375572,86.656217,-12.655086,-24.627566,22.131787,30.90402,-6.822328
574,539701070,169.2566376,-79.66124725,-132.4552765,9.650156975,-0.074037902,-1.606539249,13.34874821,-27.45807838,20.86371422,86.817053,-12.65632,-24.654342,22.354266,30.446385,-6.474599
575,539717737,171.8038788,-79.22042847,-134.7888336,9.649781227,-0.137902811,-1.49646306,16.48204422,-29.2013607,21.34278488,86.977883,-12.658618,-24.679283,22.628967,29.959696,-6.118886
576,539734404,174.2716217,-78.73320007,-137.0213165,9.652112961,-0.022069104,-1.844824672,17.87886429,-31.01994705,22.25723839,87.138752,-12.658986,-24.71003,22.926948,29.442697,-5.747932
577,539751071,176.5480957,-78.22741699,-139.1607971,9.551409721,-0.129520506,-1.69537437,12.09422207,-31.21064568,23.49858665,87.297942,-12.661145,-24.738286,23.128518,28.92252,-5.356289
578,539767738,178.8400116,-77.6558609,-141.2061768,9.608572006,-0.154936925,-1.762477636,18.79160309,-34.20383072,24.60419273,87.458085,-12.663727,-24.767661,23.441711,28.352456,-4.946219
579,539784405,-178.9150391,-77.02065277,-143.2354889,9.470047951,-0.021026932,-1.922255635,17.18157959,-37.06039429,27.02671242,87.615919,-12.664077,-24.799699,23.728071,27.734783,-4.495774
580,539801072,-176.654892,-76.29769135,-145.2783966,9.383524895,0.047647152,-1.815547824,17.62401199,-41.17843246,30.29763985,87.772311,-12.663283,-24.829958,24.021805,27.048476,-3.990813
581,539817739,-174.4006805,-75.45348358,-147.332077,9.169950485,0.191592157,-1.616134405,17.02736092,-47.09379578,34.28713608,87.925144,-12.66009,-24.856894,24.305594,26.263579,-3.419361
582,539834406,-172.1217346,-74.42339325,-149.3939362,9.419151306,-0.148657754,-1.566590428,18.53044128,-56.5592041,39.53897095,88.08213,-12.662568,-24.883004,24.614435,25.320926,-2.760378
583,539851073,-169.8377533,-73.23854065,-151.4047546,10.09319496,-0.284362197,-2.110488176,22.41027451,-63.91398621,44.68638611,88.25035,-12.667307,-24.918179,24.98794,24.255693,-2.015605
584,539867740,-167.6407166,-71.91516876,-153.3310089,9.937880516,-0.805869818,-2.444971561,22.78474808,-70.1006012,49.80105972,88.415981,-12.680738,-24.958929,25.367686,23.08735,-1.185587
585,539884407,-165.5201263,-70.45969391,-155.0879364,10.09795284,-0.777270675,-2.614853621,28.67396355,-76.06009674,53.68135834,88.58428,-12.693693,-25.00251,25.845585,21.819682,-0.290898
586,539901074,-163.5865784,-68.91183472,-156.6386261,10.02331066,-1.138836145,-2.8345294,29.96880722,-79.93977356,56.21463776,88.751335,-12.712674,-25.049752,26.345065,20.487352,0.646013
587,539917741,-161.7570953,-67.27328491,-157.937912,10.61868572,-0.974154532,-3.232725382,38.643013,-84.23013306,57.38330841,88.928313,-12.72891,-25.103631,26.989115,19.083516,1.602401
588,539934408,-160.2066345,-65.61946869,-159.0281525,11.62880802,-1.864135146,-3.095650911,34.25233841,-84.35768127,57.38318634,89.122126,-12.759979,-25.155225,27.559987,17.677555,2.558787
589,539951075,-158.4869995,-63.93036652,-159.9606781,13.22489357,-2.2978158,-3.17199564,53.73989868,-85.51843262,58.3834877,89.342541,-12.798276,-25.208092,28.455652,16.252248,3.531845
590,539967742,-156.9215851,-62.17665482,-160.8103333,13.81851101,-2.385054827,-2.811544418,49.65364075,-87.7306366,61.60515976,89.57285,-12.838027,-25.254951,29.283213,14.790071,4.558598
591,539984409,-155.4465637,-60.25794601,-161.5140991,14.50806427,-0.94157815,-1.182528019,52.65278244,-96.30103302,65.38754272,89.814651,-12.85372,-25.27466,30.160759,13.185054,5.64839
592,540001076,-154.097641,-57.98883438,-162.0126495,15.78296661,-0.783399045,-0.309238344,56.39822769,-115.8777008,72.23316956,90.0777,-12.866777,-25.279814,31.100729,11.253759,6.852276
593,540017743,-153.0074768,-55.44201279,-162.2396088,17.3618145,-0.176872656,-0.059604615,55.13537979,-132.8376312,75.09182739,90.367064,-12.869725,-25.280807,32.019652,9.039798,8.103806
594,540034410,-152.2814178,-52.65099335,-162.1022491,17.24100494,-0.266313344,0.462959826,51.30665588,-150.3991241,73.04164886,90.654414,-12.874164,-25.273091,32.874763,6.533146,9.321167
595,540051077,-151.1555023,-49.84484863,-161.8697662,16.30931854,-0.969360352,0.017081946,79.46753693,-151.9580383,72.52127075,90.926236,-12.89032,-25.272806,34.199222,4.000512,10.529855
596,540067744,-149.6412811,-47.03936386,-161.2646027,14.55047894,-1.652412176,-1.971007109,119.0235062,-157.917984,62.68706131,91.168744,-12.91786,-25.305656,36.182947,1.368546,11.574639
597,540084411,-147.005188,-44.43303299,-160.5388336,12.71697235,-0.636866331,-5.307386398,190.3035431,-148.7987518,56.80461884,91.380694,-12.928474,-25.394112,39.354673,-1.111433,12.521383
598,540101078,-144.7933197,-42.36007309,-159.6422729,8.902997017,0.556333303,-8.829057693,170.6079102,-124.6836548,38.0257225,91.529077,-12.919202,-25.541263,42.198138,-3.189494,13.155145
599,540117745,-145.0717468,-40.42955017,-158.2870178,5.910742283,-0.152221829,-9.019047737,38.00050735,-129.5635071,17.40126419,91.627589,-12.921739,-25.69158,42.83148,-5.348886,13.445166
600,540134412,-145.3212128,-39.14952469,-156.8620453,8.00389576,-1.360363722,-4.373168945,40.66706467,-100.1959457,-9.226982117,91.760987,-12.944412,-25.764466,43.509264,-7.018818,13.291383
601,540151079,-144.9647522,-38.52151489,-155.6160736,3.92300415,-1.139262915,-0.816086411,69.18753815,-63.84784317,-25.31497383,91.82637,-12.9634,-25.778067,44.66239,-8.082949,12.869467
602,540167746,-145.7548065,-38.55179596,-154.3322449,7.687601566,4.879318714,1.288936973,1.524858236,-32.42239761,-49.66624832,91.954497,-12.882078,-25.756585,44.687804,-8.623322,12.041696
603,540184413,-147.4888458,-39.49688721,-153.3865814,2.929796219,4.841096401,4.242969036,-67.36413574,23.40130615,-66.97488403,92.003327,-12.801393,-25.685869,43.565068,-8.2333,10.925448
604,540201080,-149.329361,-40.51580811,-152.1819305,3.056241274,0.193157107,2.367439747,-62.99267578,23.33675003,-78.11856842,92.054264,-12.798174,-25.646412,42.51519,-7.844354,9.623472
605,540217747,-151.1701813,-42.1713295,-151.1264954,4.492224693,0.597417653,-1.20842433,-67.61737823,62.86641312,-89.52222443,92.129134,-12.788217,-25.666552,41.388234,-6.79658,8.131435
606,540234414,-154.5379944,-44.33760071,-150.0405121,6.365988731,-0.522923052,-1.476500273,-156.3786926,94.21627808,-100.4942551,92.235234,-12.796932,-25.69116,38.781922,-5.226309,6.456531
607,540251081,-157.7799072,-47.15785599,-149.0424957,6.124688625,-3.942954063,0.648552775,-150.5415192,138.0675201,-105.6045151,92.337312,-12.862648,-25.680351,36.272897,-2.925184,4.696456
608,540267748,-160.1777802,-50.28358841,-147.8564453,6.884159565,-5.615581989,0.910467505,-89.25995636,158.3285522,-110.1812668,92.452048,-12.956241,-25.665177,34.785231,-0.286375,2.860102
609,540284415,-161.2657471,-53.61365128,-146.4342651,7.689523697,-7.791427612,-1.517541647,3.101253748,171.2662506,-114.7983246,92.580207,-13.086098,-25.690469,34.836919,2.568063,0.946797
610,540301082,-161.7129364,-57.00699234,-144.6663361,8.809920311,-8.449511528,-3.555741787,61.66905975,173.8756561,-121.1878052,92.727039,-13.226923,-25.749731,35.864737,5.465991,-1.073
611,540317749,-162.3684845,-60.52738953,-142.5394135,9.621367455,-7.99102354,-3.011636019,71.18096924,180.4650269,-127.4620514,92.887395,-13.360107,-25.799925,37.051086,8.473741,-3.197368
612,540334416,-162.7055359,-64.12793732,-140.131424,10.17244816,-6.811965466,-2.308043242,109.2440338,185.8418274,-128.2879639,93.056936,-13.47364,-25.838392,38.87182,11.571105,-5.335501
613,540351083,-163.7825317,-67.67986298,-137.6299591,10.44831657,-8.43354702,-2.008573055,74.04517365,186.2662201,-119.6028442,93.231075,-13.614199,-25.871868,40.105906,14.675542,-7.328882
614,540367750,-165.6786957,-71.05168152,-134.7173004,11.22455215,-6.552889347,-0.66172576,51.60038757,178.7840881,-112.2384567,93.418151,-13.723414,-25.882897,40.965912,17.655277,-9.199523
615,540384417,-168.3396301,-74.49819946,-131.296463,11.59208107,-3.786268473,-1.241653323,38.37447357,187.620697,-105.284996,93.611352,-13.786518,-25.903591,41.605487,20.782289,-10.954273
616,540401084,-172.7555695,-78.08947754,-127.3991318,10.88007927,-6.345040798,-2.444587708,-35.62384415,203.2170868,-89.60835266,93.792687,-13.892269,-25.944334,41.011756,24.16924,-12.447746
617,540417751,-178.2470551,-81.56925201,-122.1395645,11.30071926,-8.92902565,-3.129874468,-16.59581375,203.4669189,-71.50562286,93.981032,-14.041086,-25.996499,40.735159,27.560355,-13.639506
618,540434418,171.8596039,-84.89105988,-111.5603256,11.89899921,-7.312890053,-4.995072365,39.28322983,202.2567749,-63.19976044,94.179349,-14.162968,-26.07975,41.389879,30.931301,-14.692835
619,540451085,135.743515,-87.5823288,-74.92677307,11.54934788,-4.875793457,-5.232354641,29.57534027,200.2003937,-59.21840286,94.371838,-14.244231,-26.166956,41.882801,34.267974,-15.679808
620,540467752,62.29467773,-87.03205109,-0.699425399,11.32732105,-4.470767975,-4.170713902,45.50610733,188.4897766,-56.15070724,94.560627,-14.318744,-26.236468,42.641236,37.40947,-16.615653
621,540484419,41.25757217,-84.51530457,21.58487129,11.67676735,-3.638926506,-3.833092213,74.04662323,168.7606049,-55.3347168,94.75524,-14.379393,-26.300353,43.875346,40.222147,-17.537898
622,540501086,35.04616928,-81.84156799,29.27149391,11.63481426,-3.370394945,-4.778812408,87.84559631,159.9116974,-55.30859756,94.949154,-14.435566,-26.38,45.339439,42.887342,-18.459708
623,540517753,32.80262756,-79.4102478,32.65172958,11.26932621,-2.859235525,-5.227021694,68.00674438,139.7319183,-53.40389633,95.136976,-14.48322,-26.467117,46.472885,45.216207,-19.349773
624,540534420,31.20480156,-77.15099335,35.1208725,9.964831352,-2.475329399,-5.431219578,51.66329575,131.2684174,-45.70536423,95.303057,-14.524475,-26.557637,47.33394,47.404014,-20.111529
625,540551087,29.63996506,-75.22105408,37.07806015,9.203579903,-2.19314599,-5.386876106,22.55405045,114.5169144,-33.82483292,95.45645,-14.561027,-26.647418,47.709841,49.312629,-20.675276
626,540567754,28.08791924,-73.71120453,38.75363159,8.232434273,-1.770162702,-5.16816473,6.087807655,92.89492035,-19.51751709,95.593657,-14.59053,-26.733554,47.811304,50.860878,-21.000568
627,540584421,26.63987923,-72.74092865,40.21095657,7.854084969,-1.328970671,-5.917088509,-0.894952595,63.93615723,-3.715988874,95.724558,-14.61268,-26.832172,47.796388,51.926481,-21.062501
628,540601088,25.35070419,-72.40601349,41.42798233,6.599515438,-1.942039967,-6.828171253,-5.504322529,28.36372948,11.46072388,95.83455,-14.645047,-26.945975,47.704649,52.39921,-20.871489
629,540617755,24.36650085,-72.85904694,42.44578171,5.911291599,-2.611194611,-6.77272892,1.306432009,-16.20799065,28.5426178,95.933072,-14.688567,-27.058854,47.726423,52.129077,-20.395779
630,540634422,24.35227966,-73.8733902,42.57213211,8.324668884,-1.623096108,-5.455629349,8.400511742,-53.680233,27.60447311,96.071816,-14.715619,-27.149781,47.866432,51.234406,-19.935704
631,540651089,26.08341026,-75.06516266,41.4288559,10.82544136,8.122886658,0.45195654,39.66719818,-71.58570862,14.32482624,96.25224,-14.580238,-27.142248,48.527552,50.041311,-19.696957
632,540667756,25.2978611,-74.84758759,40.69732666,18.08952713,14.22301292,14.58508396,-87.77072144,7.772046089,-15.40841198,96.553732,-14.343188,-26.899163,47.064707,50.170845,-19.953764
633,540684423,23.42266083,-74.40716553,41.70643997,7.682817936,-0.70793438,14.95785522,-52.41718292,31.54621315,4.345547199,96.681779,-14.354987,-26.649865,46.191087,50.696615,-19.881338
634,540701090,31.2561512,-77.03163147,38.88973999,10.88718033,-5.106805325,-2.655816555,308.0505981,-158.3069,35.90214539,96.863232,-14.4401,-26.694129,51.325264,48.058167,-19.282969
635,540717757,33.43815231,-78.93767548,35.77354813,14.21412086,6.522866249,-13.70304775,-50.05247498,-116.6451797,28.82514381,97.100134,-14.331386,-26.922513,50.491056,46.114081,-18.80255
636,540734424,32.26783752,-81.20261383,34.64673615,15.23942757,-8.674628258,-7.573750019,-135.238266,-119.576355,64.46819305,97.354124,-14.475963,-27.048742,48.237085,44.121142,-17.72808
637,540751091,27.08430862,-82.00019073,36.19364929,16.49474144,-3.508399248,6.1140728,-217.6343994,-33.84897995,35.91671371,97.629036,-14.534436,-26.946841,44.609845,43.556992,-17.129468
638,540767758,28.35221672,-83.3111496,36.09474182,3.63577652,1.354081511,5.333797932,71.85923767,-68.99333191,36.3007431,97.689632,-14.511868,-26.857944,45.807499,42.407103,-16.524456
639,540784425,33.27114868,-84.85958862,33.94071198,8.297353745,0.855139434,-5.866387367,168.241333,-85.70916748,36.53744888,97.827921,-14.497616,-26.955717,48.611521,40.978617,-15.915499
640,540801092,32.74498749,-85.6427536,32.16531372,9.125091553,2.452394009,-1.970960259,-136.137558,-43.22947311,18.58384514,97.980006,-14.456743,-26.988566,46.342562,40.258126,-15.605768
641,540817759,33.00892639,-86.38621521,30.50978851,9.487323761,-2.60175705,3.313463211,-81.72303009,-40.185215,18.81292343,98.138128,-14.500106,-26.933342,44.980511,39.588372,-15.292219
642,540834426,43.00956345,-87.29029083,21.72359085,11.04786682,-2.481477499,-0.74538219,75.23070526,-59.51990891,10.7785368,98.322259,-14.541464,-26.945765,46.234356,38.596374,-15.112577
643,540851093,48.60564804,-87.66100311,15.63880444,12.35805702,-0.969885945,-1.896180511,-27.38896751,-26.03329468,5.068727493,98.528227,-14.557629,-26.977368,45.777873,38.162486,-15.028098
644,540867760,54.39917374,-87.89160919,9.316470146,9.717207909,-1.781096101,1.753976703,-29.86562157,-19.08759308,1.962453604,98.69018,-14.587314,-26.948135,45.280113,37.844359,-14.99539
645,540884427,69.51384735,-88.21831512,-4.911302567,9.682337761,0.637404323,-0.052778389,55.33150482,-33.65758896,3.868689299,98.851552,-14.576691,-26.949015,46.202305,37.283399,-14.930912
646,540901094,82.16295624,-88.35836792,-17.7602005,10.10180283,0.826286614,-1.15898931,-10.08182812,-23.33854103,2.799845695,99.019915,-14.56292,-26.968331,46.034275,36.894423,-14.884248
647,540917761,92.55278778,-88.39916992,-28.10169411,9.898610115,-0.826394498,0.010717439,4.743925571,-16.61603355,1.893113494,99.184892,-14.576693,-26.968152,46.11334,36.617489,-14.852696
