PacketCounter,SampleTimeFine,Euler_X,Euler_Y,Euler_Z,Acc_X,Acc_Y,Acc_Z,Gyr_X,Gyr_Y,Gyr_Z,Velo_X,Velo_Y,Velo_Z,ANG_X,ANG_Y,ANG_Z
0,529721867,-125.340065,-56.40651703,-170.4114227,0.0,0.0,0.0,0.0,0.0,0.0,0.0,0.0,0.0,0.0,0.0,0.0
1,529738534,-125.3369217,-56.40852737,-170.3837128,8.359750748,-4.53895998,-3.212298155,1.526868939,0.788275599,1.973695278,0.139329,-0.075649,-0.053538,0.025448,0.013138,0.032895
2,529755201,-125.2821884,-56.3909111,-170.4253082,8.320371628,-4.530376911,-3.192883968,1.568643332,0.769360602,1.960620165,0.278002,-0.151155,-0.106753,0.051592,0.025961,0.065572
3,529771868,-125.2080002,-56.36621857,-170.4703064,8.282736778,-4.547646999,-3.209031582,1.412969351,0.789236128,1.931011677,0.416048,-0.226949,-0.160237,0.075141,0.039115,0.097756
4,529788535,-125.1386032,-56.32588577,-170.5439453,8.271990776,-4.539384365,-3.225839138,1.243310928,0.78625232,1.916118264,0.553915,-0.302605,-0.214001,0.095863,0.052219,0.129691
5,529805202,-125.0828094,-56.27825928,-170.5798187,8.308642387,-4.528842449,-3.228957415,1.210155368,0.678409994,2.096572399,0.692392,-0.378086,-0.267817,0.116032,0.063526,0.164634
6,529821869,-125.0366974,-56.23852158,-170.5776825,8.346662521,-4.528657436,-3.245433569,1.274904132,0.672493458,2.081076384,0.831503,-0.453564,-0.321908,0.13728,0.074734,0.199319
7,529838536,-124.9997711,-56.20763016,-170.5617218,8.365598679,-4.539496422,-3.226452351,1.526388764,0.556794465,1.929942369,0.97093,-0.529222,-0.375682,0.16272,0.084014,0.231485
8,529855203,-124.9593353,-56.18332672,-170.5706787,8.358148575,-4.541777134,-3.217617512,1.632150054,0.574499249,1.932484388,1.110232,-0.604918,-0.429309,0.189923,0.093589,0.263693
9,529871870,-124.9174423,-56.16501617,-170.5875702,8.341844559,-4.525350571,-3.207065105,1.484300852,0.692817211,1.850895524,1.249263,-0.680341,-0.48276,0.214661,0.105136,0.294541
10,529888537,-124.8724594,-56.15002441,-170.6091003,8.312638283,-4.532906532,-3.216262341,1.365841985,0.822058856,1.907755494,1.387807,-0.755889,-0.536364,0.237425,0.118837,0.326337
11,529905204,-124.8289185,-56.13389587,-170.6318359,8.310900688,-4.530677319,-3.219916105,1.279501677,0.764302194,1.949619651,1.526322,-0.8314,-0.590029,0.25875,0.131575,0.358831
12,529921871,-124.7818604,-56.11781311,-170.6433716,8.319169998,-4.520770073,-3.226114511,1.378878832,0.831240892,1.992200613,1.664975,-0.906746,-0.643798,0.281731,0.145429,0.392034
13,529938538,-124.7346268,-56.09998322,-170.6521759,8.34215641,-4.518897057,-3.242610216,1.540495038,0.70618701,2.069896698,1.804011,-0.982061,-0.697842,0.307406,0.157199,0.426532
14,529955205,-124.6918411,-56.08268738,-170.6618958,8.347382545,-4.519974709,-3.228830338,1.534450293,0.617515743,2.015277386,1.943134,-1.057394,-0.751656,0.33298,0.167491,0.46012
15,529971872,-124.6497955,-56.06487274,-170.6727753,8.340648651,-4.527095795,-3.215368271,1.53077507,0.561206281,2.073661804,2.082145,-1.132846,-0.805245,0.358493,0.176844,0.494681
16,529988539,-124.604538,-56.04994965,-170.6914215,8.347557068,-4.538928509,-3.189720631,1.503945708,0.73817724,2.021309376,2.221271,-1.208495,-0.858407,0.383559,0.189147,0.528369
17,530005206,-124.5605087,-56.0359993,-170.7092896,8.325788498,-4.538366795,-3.220297098,1.371950507,0.71416533,1.976884246,2.360034,-1.284134,-0.912079,0.406425,0.20105,0.561317
18,530021873,-124.5175476,-56.02249908,-170.7251587,8.324838638,-4.540004253,-3.224976063,1.348258972,0.705853999,1.918692112,2.498781,-1.359801,-0.965829,0.428896,0.212814,0.593295
19,530038540,-124.473587,-56.00883865,-170.7308197,8.328631401,-4.535009384,-3.225200653,1.30021596,0.764487863,1.949472189,2.637592,-1.435384,-1.019582,0.450566,0.225555,0.625786
20,530055207,-124.4275284,-55.99516296,-170.7446289,8.318668365,-4.518525124,-3.21964097,1.353720903,0.810974896,1.973163724,2.776236,-1.510693,-1.073243,0.473128,0.239071,0.658672
21,530071874,-124.380722,-55.98115158,-170.7553864,8.322511673,-4.520237923,-3.237929344,1.365995646,0.820073724,2.009207249,2.914945,-1.58603,-1.127208,0.495895,0.252739,0.692159
22,530088541,-124.333992,-55.96702194,-170.7737427,8.329721451,-4.520676613,-3.203032017,1.428183317,0.800736129,1.998001695,3.053774,-1.661375,-1.180592,0.519698,0.266085,0.725459
23,530105208,-124.2852554,-55.95301819,-170.7931824,8.343484879,-4.537466526,-3.235652685,1.450504661,0.840090096,2.032310009,3.192832,-1.736999,-1.23452,0.543873,0.280087,0.759331
24,530121875,-124.2353897,-55.93951797,-170.8122864,8.338129997,-4.526984215,-3.215385437,1.507365108,0.869045377,2.010168076,3.331801,-1.812449,-1.28811,0.568996,0.294571,0.792834
25,530138542,-124.1867218,-55.92683792,-170.8287201,8.336538315,-4.520598412,-3.218698978,1.482072473,0.864037991,1.955215693,3.470743,-1.887792,-1.341755,0.593697,0.308972,0.825421
26,530155209,-124.1382217,-55.91399765,-170.8444366,8.348489761,-4.532625198,-3.228239298,1.431314468,0.879386365,1.984497666,3.609884,-1.963336,-1.395559,0.617552,0.323628,0.858496
27,530171876,-124.0862045,-55.90052414,-170.871109,8.332337379,-4.509516716,-3.185373545,1.479978681,0.950858593,2.080122709,3.748756,-2.038495,-1.448649,0.642218,0.339476,0.893165
28,530188543,-124.0373459,-55.88623428,-170.897049,8.325574875,-4.545832157,-3.22388339,1.412565947,0.834231138,2.078995466,3.887516,-2.114259,-1.50238,0.665761,0.35338,0.927815
29,530205210,-123.9893417,-55.87066269,-170.9191742,8.32030201,-4.5339818,-3.230415583,1.418373585,0.763892293,2.108161926,4.026188,-2.189825,-1.55622,0.689401,0.366112,0.962951
30,530221877,-123.9451523,-55.85360718,-170.9375305,8.330799103,-4.532962799,-3.18928957,1.347477794,0.635918498,2.117792606,4.165035,-2.265374,-1.609375,0.711859,0.376711,0.998248
31,530238544,-123.9008789,-55.83752441,-170.9379578,8.351782799,-4.527994156,-3.192302704,1.419718146,0.615005732,2.038700104,4.304231,-2.340841,-1.66258,0.735521,0.386961,1.032226
32,530255211,-123.8561249,-55.82092285,-170.957901,8.338522911,-4.542308331,-3.191708088,1.384315133,0.619865656,2.093466759,4.443206,-2.416546,-1.715775,0.758593,0.397292,1.067117
33,530271878,-123.8121109,-55.80384445,-170.9720154,8.325889587,-4.525806904,-3.202566385,1.300561786,0.616049469,2.12596941,4.581971,-2.491976,-1.769151,0.780269,0.407559,1.10255
34,530288545,-123.769516,-55.78638077,-170.9905396,8.312023163,-4.523985386,-3.216097593,1.237925649,0.588938415,2.138212204,4.720505,-2.567376,-1.822753,0.800901,0.417375,1.138187
35,530305212,-123.7285767,-55.7690773,-171.0067291,8.298975945,-4.540835381,-3.240764856,1.311114192,0.507233918,2.063743353,4.858821,-2.643057,-1.876766,0.822753,0.425829,1.172583
36,530321879,-123.6865005,-55.75232697,-171.0187531,8.327020645,-4.541116714,-3.226600647,1.335606217,0.565854967,2.047818661,4.997605,-2.718742,-1.930543,0.845013,0.43526,1.206713
37,530338546,-123.6459045,-55.7354126,-171.0297089,8.353572845,-4.526747704,-3.209855795,1.38082552,0.488747954,2.003572702,5.136831,-2.794188,-1.984041,0.868027,0.443406,1.240106
38,530355213,-123.6048965,-55.72059631,-171.0429688,8.3367939,-4.539334774,-3.225919247,1.272048473,0.632281482,1.957661986,5.275778,-2.869844,-2.037806,0.889228,0.453944,1.272734
39,530371880,-123.563385,-55.7048645,-171.0592041,8.322888374,-4.538180828,-3.202857971,1.341048956,0.586626887,1.988678932,5.414493,-2.94548,-2.091187,0.911579,0.463721,1.305879
40,530388547,-123.5178909,-55.68984985,-171.0761719,8.302252769,-4.519913197,-3.218134165,1.399804235,0.709145188,2.020681858,5.552864,-3.020812,-2.144823,0.934909,0.47554,1.339557
41,530405214,-123.4734573,-55.67322922,-171.0955658,8.311332703,-4.519969463,-3.213817596,1.392018318,0.631910145,2.081998825,5.691386,-3.096145,-2.198387,0.958109,0.486072,1.374257
42,530421881,-123.4309998,-55.65657806,-171.1135101,8.311388969,-4.520564556,-3.238934278,1.313937664,0.612354815,2.071177244,5.829909,-3.171488,-2.252369,0.980008,0.496278,1.408777
43,530438548,-123.3909607,-55.6391449,-171.1243591,8.33936882,-4.531285763,-3.222048044,1.364042759,0.486000985,2.042279959,5.968898,-3.247009,-2.30607,1.002742,0.504378,1.442815
44,530455215,-123.3520813,-55.62204361,-171.1322784,8.366223335,-4.539918423,-3.205009699,1.36551559,0.459415019,2.004834175,6.108335,-3.322674,-2.359487,1.025501,0.512035,1.476229
45,530471882,-123.3100662,-55.60594177,-171.1460266,8.359973907,-4.526507854,-3.195081234,1.334697008,0.615121007,2.042542458,6.247668,-3.398116,-2.412738,1.047746,0.522287,1.510271
46,530488549,-123.2693176,-55.58892441,-171.1638947,8.315858841,-4.531861782,-3.207897186,1.223473907,0.596859157,2.109378815,6.386266,-3.473647,-2.466203,1.068137,0.532235,1.545427
47,530505216,-123.2273941,-55.57304764,-171.1803894,8.306095123,-4.522675514,-3.224367142,1.278592348,0.648020506,2.058332682,6.524701,-3.549025,-2.519942,1.089447,0.543035,1.579733
48,530521883,-123.185936,-55.55647278,-171.1906586,8.304674149,-4.531562328,-3.229008198,1.27962327,0.616343915,2.0865767,6.663112,-3.624551,-2.573759,1.110774,0.553307,1.614509
49,530538550,-123.1429138,-55.53899002,-171.2046204,8.323468208,-4.535188675,-3.206510544,1.343174815,0.611919403,2.147631168,6.801836,-3.700137,-2.627201,1.13316,0.563506,1.650303
50,530555217,-123.1020737,-55.52096176,-171.2171478,8.321831703,-4.522697449,-3.212887764,1.336169839,0.524119079,2.130483627,6.940533,-3.775515,-2.680749,1.155429,0.572241,1.685811
51,530571884,-123.057663,-55.50322723,-171.2363892,8.337182999,-4.532814503,-3.235169649,1.300548792,0.684653044,2.216305017,7.079486,-3.851062,-2.734668,1.177105,0.583652,1.722749
52,530588551,-123.0168991,-55.48420715,-171.2544098,8.355404854,-4.529445171,-3.243850708,1.328940392,0.504442096,2.19549489,7.218743,-3.926553,-2.788732,1.199254,0.592059,1.759341
53,530605218,-122.9749222,-55.46761703,-171.2726288,8.348993301,-4.538936615,-3.213163614,1.397480011,0.596378863,2.084207773,7.357893,-4.002202,-2.842285,1.222545,0.601999,1.794078
54,530621885,-122.9341202,-55.45208359,-171.2867584,8.343196869,-4.5424366,-3.207159996,1.410817981,0.582951427,2.005724192,7.496946,-4.077909,-2.895738,1.246059,0.611715,1.827507
55,530638552,-122.8939972,-55.43473816,-171.2953491,8.337645531,-4.542176723,-3.208812714,1.399240971,0.508738637,2.092615128,7.635907,-4.153612,-2.949218,1.26938,0.620194,1.862384
56,530655219,-122.8561478,-55.41731262,-171.3041077,8.332878113,-4.516530037,-3.198621988,1.355833888,0.454266876,2.065984488,7.774788,-4.228888,-3.002528,1.291977,0.627765,1.896817
57,530671886,-122.820282,-55.39966583,-171.3153381,8.326458931,-4.538577557,-3.207342625,1.257097006,0.437311232,2.080365658,7.913562,-4.304531,-3.055984,1.312929,0.635054,1.93149
58,530688553,-122.7871704,-55.38175964,-171.325058,8.331676483,-4.539897442,-3.214795351,1.230370164,0.35212338,2.04600668,8.052423,-4.380196,-3.109564,1.333435,0.640923,1.96559
59,530705220,-122.7525406,-55.36522675,-171.3314514,8.324956894,-4.540173531,-3.20782876,1.373865247,0.370654166,1.963853598,8.191172,-4.455866,-3.163028,1.356333,0.647101,1.998321
60,530721887,-122.7185135,-55.34922409,-171.3397522,8.337844849,-4.528179169,-3.191608667,1.251302004,0.441121161,1.976986766,8.330136,-4.531336,-3.216221,1.377188,0.654453,2.031271
61,530738554,-122.687355,-55.33418655,-171.3442688,8.329223633,-4.527192593,-3.244053841,1.17914474,0.414439112,1.899028063,8.468956,-4.606789,-3.270289,1.39684,0.66136,2.062921
62,530755221,-122.6542587,-55.32003021,-171.3493347,8.352550507,-4.536203861,-3.228192806,1.252640367,0.478381217,1.879818559,8.608165,-4.682392,-3.324092,1.417717,0.669333,2.094251
63,530771888,-122.6213608,-55.30553436,-171.3537903,8.353957176,-4.520721436,-3.215872526,1.29775703,0.43907854,1.886375308,8.747398,-4.757737,-3.37769,1.439346,0.676651,2.125691
64,530788555,-122.5851059,-55.29175949,-171.3625488,8.336800575,-4.546472073,-3.232811451,1.36447823,0.547125697,1.910797119,8.886345,-4.833512,-3.43157,1.462087,0.68577,2.157538
65,530805222,-122.5469513,-55.27927017,-171.3755188,8.312390327,-4.540356636,-3.226508856,1.351390123,0.668632388,1.901704669,9.024885,-4.909185,-3.485345,1.48461,0.696914,2.189233
66,530821889,-122.5075607,-55.26683044,-171.3874512,8.319852829,-4.521981716,-3.230068684,1.38147223,0.702748477,1.922783613,9.163549,-4.984551,-3.539179,1.507635,0.708626,2.221279
67,530838556,-122.4670181,-55.25482941,-171.4017181,8.319103241,-4.522300243,-3.222078562,1.36885798,0.773772478,1.941417098,9.302201,-5.059923,-3.59288,1.530449,0.721522,2.253636
68,530855223,-122.4278488,-55.2420578,-171.4145966,8.328170776,-4.528688908,-3.215573072,1.370638132,0.705937326,1.958795428,9.441004,-5.135401,-3.646473,1.553293,0.733288,2.286283
69,530871890,-122.3873444,-55.22768402,-171.4268188,8.344659805,-4.517823696,-3.181839943,1.40072,0.690479875,2.069083214,9.580082,-5.210698,-3.699504,1.576638,0.744796,2.320768
70,530888557,-122.3463287,-55.21281052,-171.4412079,8.353885651,-4.507257938,-3.213525772,1.41592133,0.685856879,2.11193347,9.719313,-5.285819,-3.753063,1.600237,0.756227,2.355967
71,530905224,-122.3068314,-55.19734955,-171.4553223,8.345079422,-4.534048557,-3.193066597,1.405522466,0.624808967,2.125879526,9.858398,-5.361386,-3.806281,1.623662,0.76664,2.391398
72,530921891,-122.2650986,-55.18214035,-171.4699402,8.35308075,-4.516964912,-3.187495708,1.422606111,0.707064152,2.168268442,9.997616,-5.436669,-3.859406,1.647372,0.778424,2.427536
73,530938558,-122.2290497,-55.16547012,-171.47966,8.330570221,-4.526825905,-3.194325447,1.248772621,0.566181421,2.192933321,10.136459,-5.512116,-3.912645,1.668185,0.78786,2.464085
74,530955225,-122.1923981,-55.14979172,-171.4899597,8.317317963,-4.524825573,-3.231034756,1.312676311,0.584507346,2.144768953,10.275081,-5.58753,-3.966496,1.690063,0.797602,2.499831
75,530971892,-122.1569519,-55.13357925,-171.4991608,8.330962181,-4.52077055,-3.22073102,1.311543226,0.537988365,2.157799482,10.41393,-5.662876,-4.020175,1.711922,0.806568,2.535794
76,530988559,-122.121254,-55.11827087,-171.5090179,8.324005127,-4.52987051,-3.221278191,1.323343992,0.576593041,2.125328779,10.552663,-5.738374,-4.073863,1.733978,0.816178,2.571216
77,531005226,-122.0876236,-55.10416412,-171.5189667,8.328415871,-4.519879341,-3.231638193,1.278035402,0.577271879,2.048747063,10.69147,-5.813705,-4.127724,1.755279,0.825799,2.605362
78,531021893,-122.0521088,-55.09011841,-171.526886,8.334914207,-4.533462048,-3.227851868,1.378437042,0.596455693,2.063986778,10.830385,-5.889263,-4.181522,1.778253,0.83574,2.639762
79,531038560,-122.0173798,-55.07717514,-171.5337219,8.344659805,-4.525986671,-3.226968288,1.372776628,0.614525497,2.006268501,10.969463,-5.964696,-4.235305,1.801133,0.845982,2.6732
80,531055227,-121.9824295,-55.06446457,-171.5434875,8.318265915,-4.535796165,-3.203731775,1.275281906,0.699623644,2.050065994,11.108101,-6.040293,-4.288701,1.822388,0.857642,2.707368
81,531071894,-121.9460373,-55.0525589,-171.5524445,8.326637268,-4.521872044,-3.224281549,1.377770901,0.721138299,2.016077757,11.246878,-6.115658,-4.342439,1.845351,0.869661,2.740969
82,531088561,-121.9120789,-55.03842926,-171.5596161,8.319308281,-4.53753376,-3.209704876,1.385762334,0.569626451,2.086781979,11.385533,-6.191284,-4.395934,1.868447,0.879155,2.775749
83,531105228,-121.8789902,-55.02562714,-171.5661926,8.345103264,-4.53724432,-3.204708576,1.39657104,0.582778573,2.008765459,11.524618,-6.266905,-4.449346,1.891723,0.888868,2.809228
84,531121895,-121.842392,-55.01267242,-171.5756683,8.348329544,-4.527853489,-3.205226898,1.432210803,0.689160883,2.095797539,11.663757,-6.342369,-4.502766,1.915593,0.900354,2.844158
85,531138562,-121.8083267,-55.00016403,-171.5852509,8.339326859,-4.529993057,-3.21747613,1.347548127,0.670297086,2.063487053,11.802746,-6.417869,-4.556391,1.938052,0.911526,2.878549
86,531155229,-121.7766495,-54.98717117,-171.5909576,8.328627586,-4.545427322,-3.22495389,1.354233027,0.575581372,2.049655914,11.941556,-6.493626,-4.61014,1.960623,0.921119,2.91271
87,531171896,-121.7459106,-54.97399902,-171.5968323,8.32763195,-4.531650543,-3.218239784,1.274142265,0.595469654,2.080621958,12.08035,-6.569154,-4.663777,1.981859,0.931043,2.947387
88,531188563,-121.7152405,-54.96296692,-171.6020966,8.348944664,-4.52511692,-3.206815958,1.322255611,0.64054805,1.967900515,12.219499,-6.644573,-4.717224,2.003897,0.941719,2.980185
89,531205230,-121.6826477,-54.95143127,-171.6085968,8.320254326,-4.516889095,-3.214250088,1.362839103,0.677660882,2.038950205,12.35817,-6.719854,-4.770795,2.026611,0.953013,3.014168
90,531221897,-121.6526947,-54.93657303,-171.6149292,8.316830635,-4.514057636,-3.216064453,1.261118054,0.548969805,2.204472065,12.496784,-6.795088,-4.824396,2.04763,0.962162,3.050909
91,531238564,-121.6207123,-54.92276382,-171.6207581,8.320734024,-4.515222549,-3.235076904,1.347599387,0.613436878,2.18192029,12.635463,-6.870342,-4.878314,2.07009,0.972386,3.087274
92,531255231,-121.5866547,-54.90882111,-171.6278076,8.332463264,-4.513712406,-3.219065428,1.399477959,0.665430725,2.232274771,12.774337,-6.945571,-4.931965,2.093415,0.983477,3.124479
93,531271898,-121.5539551,-54.89565277,-171.6356964,8.344171524,-4.532342911,-3.216703415,1.353477597,0.680862427,2.198799133,12.913407,-7.02111,-4.985577,2.115973,0.994825,3.161126
94,531288565,-121.521759,-54.88320923,-171.6434326,8.351221085,-4.541969299,-3.181794643,1.395405412,0.668952465,2.152696133,13.052594,-7.096809,-5.038607,2.13923,1.005974,3.197004
95,531305232,-121.4898453,-54.87047958,-171.648468,8.342039108,-4.530202389,-3.191117525,1.406175733,0.650191247,2.173686028,13.191628,-7.172312,-5.091792,2.162666,1.016811,3.233232
96,531321899,-121.4609299,-54.85751343,-171.6532898,8.334403992,-4.540117264,-3.207848787,1.254663587,0.635335743,2.193919659,13.330535,-7.247981,-5.145256,2.183577,1.0274,3.269797
97,531338566,-121.4369431,-54.84532928,-171.6521759,8.312017441,-4.533168793,-3.210448742,1.282415152,0.474244803,2.052217722,13.469069,-7.323534,-5.198763,2.204951,1.035304,3.304001
98,531355233,-121.4135818,-54.83449936,-171.6483612,8.307243347,-4.526153088,-3.22551918,1.313060641,0.486564487,1.974380612,13.607523,-7.39897,-5.252522,2.226835,1.043413,3.336907
99,531371900,-121.391861,-54.82332993,-171.6453552,8.32550621,-4.528988361,-3.226089478,1.261207938,0.459005207,1.994140744,13.746281,-7.474453,-5.30629,2.247855,1.051063,3.370143
100,531388567,-121.3706589,-54.81089401,-171.643158,8.335577011,-4.537721634,-3.204758167,1.22926867,0.432150275,2.077241421,13.885207,-7.550082,-5.359703,2.268343,1.058266,3.404764
101,531405234,-121.3513718,-54.7997818,-171.6394348,8.341431618,-4.523550034,-3.228377104,1.1802845,0.442818016,2.003592014,14.024231,-7.625475,-5.413509,2.288014,1.065646,3.438157
102,531421901,-121.3301468,-54.7894249,-171.6358643,8.351177216,-4.52289629,-3.204659462,1.233417988,0.517568648,2.00914979,14.163417,-7.700857,-5.46692,2.308571,1.074272,3.471643
103,531438568,-121.3078079,-54.77956772,-171.6342621,8.341150284,-4.529100895,-3.21928525,1.230408549,0.583687782,2.029101849,14.302436,-7.776342,-5.520575,2.329078,1.084,3.505461
104,531455235,-121.2859268,-54.76861191,-171.6318207,8.326113701,-4.526732445,-3.232519865,1.217243552,0.551966488,2.099383593,14.441205,-7.851788,-5.57445,2.349365,1.093199,3.540451
105,531471902,-121.262207,-54.75747681,-171.6319733,8.316542625,-4.538779259,-3.211739302,1.23180449,0.616856217,2.163799286,14.579814,-7.927434,-5.627979,2.369895,1.10348,3.576514
106,531488569,-121.2409134,-54.74775314,-171.6328735,8.319915771,-4.522678852,-3.225305557,1.07838428,0.676533818,2.114251614,14.718479,-8.002812,-5.681734,2.387868,1.114756,3.611752
107,531505236,-121.2182236,-54.73733521,-171.6335754,8.312297821,-4.503183365,-3.239715815,1.202362657,0.641367614,2.154027939,14.857017,-8.077865,-5.735729,2.407907,1.125445,3.647652
108,531521903,-121.2009964,-54.7274437,-171.6285248,8.314172745,-4.520630836,-3.201523304,1.131300092,0.519348741,2.055099249,14.995587,-8.153209,-5.789088,2.426762,1.134101,3.681904
109,531538570,-121.1826935,-54.71606064,-171.622406,8.320392609,-4.53498745,-3.19011426,1.224594474,0.463986814,2.140146017,15.13426,-8.228792,-5.842257,2.447172,1.141834,3.717573
110,531555237,-121.1656036,-54.7032547,-171.6165314,8.319652557,-4.542442322,-3.194476843,1.146360397,0.434250534,2.235182047,15.272921,-8.304499,-5.895498,2.466278,1.149072,3.754826
111,531571904,-121.1532822,-54.69102097,-171.6097412,8.331659317,-4.51906395,-3.213448524,0.970772445,0.39229691,2.184276819,15.411782,-8.379817,-5.949055,2.482458,1.15561,3.791231
112,531588571,-121.1413727,-54.67879486,-171.6024323,8.328602791,-4.532405376,-3.208163977,0.868872404,0.450181603,2.232799768,15.550592,-8.455357,-6.002524,2.496939,1.163113,3.828444
113,531605238,-121.1284103,-54.66518402,-171.5953979,8.32379055,-4.53968811,-3.23969388,1.001110911,0.379042327,2.298983335,15.689322,-8.531018,-6.056519,2.513624,1.16943,3.86676
114,531621905,-121.1141891,-54.65087128,-171.5903168,8.340755463,-4.528152943,-3.237021208,1.007052898,0.409457445,2.382070541,15.828335,-8.606487,-6.110469,2.530408,1.176254,3.906461
115,531638572,-121.1011505,-54.63657379,-171.5804291,8.355031013,-4.523683071,-3.223914385,1.119864106,0.312538952,2.334648848,15.967586,-8.681882,-6.164201,2.549072,1.181463,3.945372
116,531655239,-121.0900345,-54.62613297,-171.5679016,8.356207848,-4.534486771,-3.236078978,1.119428754,0.373189867,2.116710424,16.106856,-8.757457,-6.218136,2.567729,1.187683,3.980651
117,531671906,-121.0777512,-54.61780167,-171.5570831,8.335132599,-4.521186352,-3.238483429,1.132299066,0.483619034,2.051141977,16.245775,-8.83281,-6.272111,2.586601,1.195743,4.014837
118,531688573,-121.0653229,-54.60859299,-171.5479431,8.325001717,-4.533808708,-3.232988119,1.146565318,0.465779752,2.116569519,16.384525,-8.908373,-6.325994,2.60571,1.203506,4.050113
119,531705240,-121.052536,-54.60260391,-171.536972,8.34352684,-4.529301643,-3.222869396,1.235594988,0.538968027,1.946847081,16.523584,-8.983861,-6.379708,2.626303,1.212489,4.08256
120,531721907,-121.0365295,-54.59701538,-171.5284271,8.333475113,-4.547662258,-3.227706671,1.342220783,0.614602387,1.979900002,16.662475,-9.059655,-6.433503,2.648673,1.222732,4.115558
121,531738574,-121.0196304,-54.59272385,-171.5198364,8.337388039,-4.535732746,-3.224190474,1.379397631,0.675458193,1.939496279,16.801431,-9.135251,-6.48724,2.671663,1.23399,4.147883
122,531755241,-120.9997101,-54.59019852,-171.5147247,8.363088608,-4.53105402,-3.230242252,1.378616333,0.85181427,1.936115146,16.940816,-9.210769,-6.541077,2.69464,1.248187,4.180152
123,531771908,-120.9766235,-54.58835983,-171.5105133,8.371068954,-4.507371426,-3.267036915,1.558238149,0.890835404,1.927368641,17.080334,-9.285892,-6.595528,2.720611,1.263034,4.212275
124,531788575,-120.9510956,-54.59034729,-171.5048981,8.393854141,-4.508868694,-3.265098095,1.801353931,0.964394987,1.719994903,17.220232,-9.36104,-6.649946,2.750634,1.279107,4.240942
125,531805242,-120.9223099,-54.59575272,-171.4988861,8.404348373,-4.509488583,-3.233709812,2.024543285,1.065974951,1.558455825,17.360304,-9.436198,-6.703841,2.784376,1.296873,4.266916
126,531821909,-120.8899078,-54.60189056,-171.4945984,8.370675087,-4.526630402,-3.242814064,2.094504118,1.190708756,1.599692345,17.499815,-9.511642,-6.757888,2.819284,1.316718,4.293578
127,531838576,-120.8542938,-54.6067276,-171.4953613,8.342932701,-4.532001495,-3.196622372,2.069441795,1.294401765,1.767494082,17.638864,-9.587175,-6.811165,2.853775,1.338291,4.323036
128,531855243,-120.8225784,-54.61206055,-171.4934845,8.304660797,-4.53067112,-3.223993778,2.01386261,1.213516712,1.696713209,17.777275,-9.662686,-6.864898,2.887339,1.358516,4.351315
129,531871910,-120.7928696,-54.61472321,-171.4882813,8.290236473,-4.524894714,-3.24063158,2.030344248,1.0589571,1.804376364,17.915446,-9.738101,-6.918909,2.921178,1.376165,4.381388
130,531888577,-120.7666016,-54.61581039,-171.4806824,8.268979073,-4.517460346,-3.211950779,2.002195835,0.917446792,1.841412187,18.053262,-9.813392,-6.972442,2.954548,1.391456,4.412078
131,531905244,-120.73806,-54.61580658,-171.4758453,8.277562141,-4.523561001,-3.241816282,1.974137068,0.996807873,1.976058006,18.191221,-9.888785,-7.026472,2.98745,1.408069,4.445012
132,531921911,-120.712532,-54.61306763,-171.4721375,8.300642014,-4.507899761,-3.209178925,1.762396932,0.946632445,2.147086859,18.329565,-9.963917,-7.079958,3.016823,1.423846,4.480797
133,531938578,-120.6860809,-54.60974121,-171.4728394,8.33327961,-4.496411324,-3.205720425,1.615392923,1.065078497,2.272512197,18.468453,-10.038857,-7.133387,3.043746,1.441597,4.518672
134,531955245,-120.6561508,-54.60409164,-171.4783173,8.37112999,-4.503252506,-3.215541601,1.617749095,1.131658673,2.489912748,18.607972,-10.113911,-7.186979,3.070708,1.460458,4.560171
135,531971912,-120.6240005,-54.59644318,-171.4872894,8.402400017,-4.513638973,-3.204069614,1.64425838,1.149036884,2.653155327,18.748012,-10.189138,-7.24038,3.098112,1.479609,4.60439
136,531988579,-120.5896683,-54.58896255,-171.4955902,8.407428741,-4.515833378,-3.184593678,1.795270801,1.151316404,2.663387775,18.888136,-10.264402,-7.293457,3.128033,1.498798,4.64878
137,532005246,-120.5542984,-54.58102417,-171.504364,8.374689102,-4.51739502,-3.164730072,1.836020827,1.160998225,2.717085123,19.027714,-10.339692,-7.346203,3.158633,1.518148,4.694065
138,532021913,-120.5207901,-54.5754509,-171.5128632,8.312428474,-4.539699554,-3.163031816,1.700977683,1.256033778,2.625621557,19.166254,-10.415354,-7.39892,3.186983,1.539082,4.737825
139,532038580,-120.4935379,-54.56908417,-171.5166473,8.274895668,-4.559465885,-3.182172298,1.513364792,1.125076294,2.617797375,19.304169,-10.491345,-7.451956,3.212206,1.557833,4.781455
140,532055247,-120.4737625,-54.56358337,-171.5144806,8.264433861,-4.558764458,-3.192173004,1.400835395,0.95733875,2.467617273,19.44191,-10.567324,-7.505159,3.235553,1.573789,4.822582
141,532071914,-120.4589539,-54.55994797,-171.5023041,8.293906212,-4.562298298,-3.199229479,1.486228108,0.790612817,2.249627352,19.580142,-10.643362,-7.558479,3.260323,1.586966,4.860076
142,532088581,-120.450058,-54.55829239,-171.488678,8.328667641,-4.55522871,-3.191747665,1.391435504,0.703350306,2.071094036,19.718953,-10.719282,-7.611675,3.283514,1.598689,4.894594
143,532105248,-120.4443054,-54.56068802,-171.468399,8.356564522,-4.550407887,-3.198261023,1.46824801,0.675137997,1.783309937,19.858229,-10.795122,-7.664979,3.307985,1.609941,4.924316
144,532121915,-120.4413986,-54.56482697,-171.4456787,8.336382866,-4.555274963,-3.190486431,1.374300718,0.690377533,1.686327457,19.997169,-10.871043,-7.718154,3.33089,1.621447,4.952421
145,532138582,-120.4394608,-54.5709877,-171.4221954,8.352675438,-4.546639919,-3.184933186,1.390231848,0.715887725,1.574195027,20.13638,-10.94682,-7.771236,3.354061,1.633378,4.978658
146,532155249,-120.4389648,-54.57979202,-171.3963318,8.341493607,-4.536424637,-3.233819246,1.52101028,0.674625754,1.377092361,20.275405,-11.022427,-7.825133,3.379411,1.644622,5.00161
147,532171916,-120.4387207,-54.59037781,-171.3678131,8.349031448,-4.521804333,-3.21731019,1.607453108,0.680644751,1.269032478,20.414556,-11.09779,-7.878755,3.406202,1.655966,5.022761
148,532188583,-120.4381714,-54.60413361,-171.3404083,8.332663536,-4.523890972,-3.212096214,1.626739383,0.787872255,1.124884248,20.553434,-11.173188,-7.93229,3.433314,1.669097,5.041509
149,532205250,-120.4293747,-54.61779404,-171.3183441,8.351564407,-4.525829792,-3.210931063,1.817477345,0.984488189,1.25804472,20.692627,-11.248618,-7.985806,3.463605,1.685505,5.062476
150,532221917,-120.4183121,-54.63169098,-171.3009491,8.343528748,-4.498189449,-3.2304039,1.753701687,1.125332236,1.3381356,20.831686,-11.323588,-8.039646,3.492833,1.704261,5.084778
151,532238584,-120.4039688,-54.6429863,-171.2852936,8.352840424,-4.498232365,-3.212281227,1.773538709,1.165762067,1.558058858,20.9709,-11.398559,-8.093184,3.522392,1.72369,5.110746
152,532255251,-120.3871002,-54.65281677,-171.2744751,8.357136726,-4.506054401,-3.179451466,1.800636768,1.212441087,1.697456121,21.110186,-11.47366,-8.146175,3.552403,1.743897,5.139037
153,532271918,-120.3679581,-54.66176987,-171.2658081,8.378373146,-4.524645805,-3.190698624,1.855601668,1.243330121,1.792620063,21.249826,-11.549071,-8.199353,3.58333,1.764619,5.168914
154,532288585,-120.350174,-54.67170334,-171.2544098,8.384932518,-4.525827885,-3.183434248,1.890690923,1.212274551,1.71867609,21.389575,-11.624501,-8.25241,3.614842,1.784824,5.197559
155,532305252,-120.332428,-54.68150711,-171.2438965,8.36223793,-4.529583454,-3.161354303,1.915420294,1.200953841,1.733467698,21.528946,-11.699994,-8.305099,3.646766,1.80484,5.22645
156,532321919,-120.3200912,-54.6935463,-171.2289429,8.336598396,-4.529443264,-3.174690723,1.78713882,1.155529737,1.566242099,21.667889,-11.775485,-8.358011,3.676552,1.824099,5.252554
157,532338586,-120.3129501,-54.70463562,-171.2111816,8.326818466,-4.528934002,-3.166964293,1.576833129,1.075246811,1.595850587,21.806669,-11.850967,-8.410794,3.702833,1.84202,5.279152
158,532355253,-120.3077011,-54.71630478,-171.1901398,8.322091103,-4.548666,-3.176071167,1.582147717,1.028017044,1.540053368,21.945371,-11.926778,-8.463729,3.729202,1.859154,5.30482
159,532371920,-120.3069,-54.72682571,-171.1636963,8.330369949,-4.533007145,-3.175491571,1.672701478,0.787052691,1.483897448,22.08421,-12.002328,-8.516654,3.75708,1.872272,5.329552
160,532388587,-120.308197,-54.73894882,-171.1338654,8.360936165,-4.551891804,-3.194217682,1.77954483,0.701467812,1.335062027,22.223559,-12.078193,-8.569891,3.786739,1.883963,5.351803
161,532405254,-120.3120499,-54.75685501,-171.1009369,8.37948513,-4.542589664,-3.181530952,1.792722583,0.786156297,0.991698146,22.363217,-12.153903,-8.622917,3.816618,1.897066,5.368331
162,532421921,-120.3175812,-54.77787018,-171.068634,8.406514168,-4.547596931,-3.152282476,1.780889511,0.835729659,0.814125359,22.503326,-12.229696,-8.675455,3.846299,1.910995,5.3819
163,532438588,-120.3274307,-54.80408478,-171.0289154,8.404900551,-4.536547184,-3.167921066,1.717254639,0.881947637,0.491225928,22.643408,-12.305305,-8.728254,3.87492,1.925694,5.390087
164,532455255,-120.3427429,-54.83525467,-170.9893341,8.414902687,-4.571746349,-3.161224365,1.402756453,1.033216357,0.247380272,22.783656,-12.381501,-8.780941,3.898299,1.942914,5.39421
165,532471922,-120.3514023,-54.86973953,-170.9515991,8.380437851,-4.506994247,-3.176067352,1.806374192,1.137216687,0.088274173,22.92333,-12.456618,-8.833875,3.928405,1.961868,5.395681
166,532488589,-120.3615417,-54.90908813,-170.908844,8.367588997,-4.491829872,-3.241051197,2.031983614,1.106814504,-0.259757608,23.06279,-12.531482,-8.887893,3.962271,1.980315,5.391352
167,532505256,-120.3814163,-54.95139694,-170.865097,8.346721649,-4.477222919,-3.190951109,1.599974036,1.120120049,-0.449394017,23.201902,-12.606102,-8.941076,3.988937,1.998984,5.383862
168,532521923,-120.4006805,-54.99305344,-170.8136597,8.333140373,-4.471842289,-3.16342926,1.78757441,1.023099422,-0.453210324,23.340788,-12.680633,-8.9938,4.01873,2.016036,5.376308
169,532538590,-120.4149933,-55.03347397,-170.7686768,8.351385117,-4.494982243,-3.189826727,1.939227343,1.083763003,-0.322009265,23.479978,-12.755549,-9.046964,4.05105,2.034099,5.370941
170,532555257,-120.430687,-55.0739212,-170.7243195,8.364343643,-4.448823929,-3.181865454,1.808538437,1.12643373,-0.29223451,23.619384,-12.829696,-9.099995,4.081192,2.052873,5.36607
171,532571924,-120.4458923,-55.11347198,-170.6832581,8.399014473,-4.454016685,-3.188973188,1.697225451,1.195011735,-0.178501293,23.759368,-12.90393,-9.153145,4.109479,2.07279,5.363095
172,532588591,-120.4581909,-55.15161514,-170.6469116,8.408457756,-4.455274105,-3.159785509,1.780928016,1.222443104,-0.059632767,23.899509,-12.978185,-9.205808,4.139161,2.093164,5.362101
173,532605258,-120.4694061,-55.18654251,-170.6136932,8.355044365,-4.411015987,-3.178132772,1.711940169,1.210443497,0.171938077,24.03876,-13.051702,-9.258777,4.167693,2.113338,5.364967
174,532621925,-120.4827652,-55.21681976,-170.5838318,8.338432312,-4.428107738,-3.142788649,1.382534862,1.20129931,0.497795492,24.177734,-13.125504,-9.311157,4.190735,2.13336,5.373264
175,532638592,-120.4981003,-55.24050903,-170.5505676,8.351233482,-4.438434601,-3.130817175,1.425384879,0.913041353,0.796785355,24.316921,-13.199478,-9.363337,4.214491,2.148577,5.386544
176,532655259,-120.5035553,-55.25737,-170.5230713,8.346971512,-4.444184303,-3.150006533,1.73846209,0.880769432,1.259094715,24.456037,-13.273548,-9.415837,4.243465,2.163256,5.407529
177,532671926,-120.5100861,-55.26765823,-170.5020905,8.343705177,-4.426560879,-3.13130188,1.560581803,0.75713706,1.652070403,24.595099,-13.347324,-9.468025,4.269475,2.175875,5.435064
178,532688593,-120.5178528,-55.27357101,-170.4815216,8.332249641,-4.422278404,-3.133456945,1.40530479,0.677007675,1.918186545,24.73397,-13.421029,-9.520249,4.292897,2.187158,5.467034
179,532705260,-120.5288696,-55.27544785,-170.4572144,8.331178665,-4.450106144,-3.140252352,1.347163916,0.480250895,2.090470076,24.872823,-13.495197,-9.572587,4.31535,2.195162,5.501875
180,532721927,-120.545639,-55.2752037,-170.4264526,8.372965813,-4.462753773,-3.147750139,1.410875559,0.178033888,2.065549135,25.012372,-13.569576,-9.62505,4.338865,2.198129,5.536301
181,532738594,-120.5656128,-55.27492142,-170.3869629,8.397094727,-4.470721245,-3.106818676,1.455633759,0.040916286,1.9953444,25.152324,-13.644088,-9.67683,4.363126,2.198811,5.569557
182,532755261,-120.5870895,-55.27770996,-170.3493958,8.414392471,-4.495446205,-3.137369633,1.378654838,0.131585255,1.840861678,25.292564,-13.719012,-9.729119,4.386104,2.201004,5.600238
183,532771928,-120.6102448,-55.28527069,-170.3129883,8.406839371,-4.471913338,-3.15333724,1.317786098,0.25957191,1.589126945,25.432678,-13.793544,-9.781675,4.408067,2.20533,5.626723
184,532788595,-120.6359482,-55.29919815,-170.2715759,8.387526512,-4.456718445,-3.161565304,1.414640307,0.309542239,1.18334496,25.57247,-13.867823,-9.834368,4.431644,2.210489,5.646445
185,532805262,-120.6699371,-55.31906128,-170.2178345,8.368555069,-4.478693008,-3.212288141,1.544766188,0.126616389,0.66577661,25.711946,-13.942468,-9.887906,4.45739,2.212599,5.657541
186,532821929,-120.7104797,-55.34532166,-170.1517639,8.391384125,-4.487370491,-3.188568354,1.779788256,-0.038963322,0.121749975,25.851802,-14.017258,-9.941049,4.487053,2.21195,5.65957
187,532838596,-120.7549973,-55.37709045,-170.0789185,8.397267342,-4.497607231,-3.171601295,1.78078711,5.12254e-05,-0.239549205,25.991756,-14.092218,-9.993909,4.516733,2.211951,5.655578
188,532855263,-120.8053513,-55.41434479,-170.0079346,8.390190125,-4.45171833,-3.139004946,1.435271621,0.174076691,-0.513835549,26.131593,-14.166413,-10.046226,4.540654,2.214852,5.647014
189,532871930,-120.8548279,-55.45465851,-169.9454803,8.339885712,-4.440343857,-3.165675402,1.22931993,0.432636887,-0.572706401,26.270591,-14.240419,-10.098987,4.561143,2.222063,5.637469
190,532888597,-120.9165039,-55.49536896,-169.88237,8.322979927,-4.445809841,-3.173792124,0.608122349,0.392770737,-0.62384212,26.409307,-14.314516,-10.151884,4.571278,2.228609,5.627072
191,532905264,-120.9776535,-55.53423691,-169.8155518,8.343577385,-4.373734951,-3.188670635,0.877849638,0.208244041,-0.606809616,26.548367,-14.387412,-10.205029,4.585909,2.23208,5.616959
192,532921931,-121.0424271,-55.57542419,-169.7366028,8.350234032,-4.403538227,-3.276257038,1.197739482,-0.021162495,-0.905633152,26.687538,-14.460804,-10.259633,4.605871,2.231727,5.601865
193,532938598,-121.1098404,-55.6186142,-169.6516418,8.317936897,-4.378036976,-3.196468353,1.335177302,-0.112433359,-1.102850914,26.82617,-14.533771,-10.312907,4.628124,2.229853,5.583484
194,532955265,-121.178772,-55.66068649,-169.5624847,8.320315361,-4.384485245,-3.198191404,1.473421693,-0.263727576,-1.119281411,26.964842,-14.606846,-10.36621,4.652681,2.225458,5.564829
195,532971932,-121.2431946,-55.70022202,-169.4759979,8.336802483,-4.371736526,-3.183288574,1.687300444,-0.292465031,-0.960956514,27.103789,-14.679708,-10.419265,4.680803,2.220584,5.548813
196,532988599,-121.3068237,-55.73406601,-169.3972931,8.425200462,-4.348781586,-3.158664942,1.441264987,-0.286638111,-0.55869627,27.244209,-14.752188,-10.471909,4.704824,2.215807,5.539501
197,533005266,-121.3679657,-55.76200485,-169.32724,8.444696426,-4.332371235,-3.141795635,1.075272322,-0.160098568,-0.064486369,27.384954,-14.824394,-10.524272,4.722745,2.213139,5.538426
198,533021933,-121.4226379,-55.78217697,-169.2722626,8.459012985,-4.342178822,-3.140412331,0.8131392,-0.017858453,0.573276222,27.525938,-14.896764,-10.576612,4.736297,2.212841,5.547981
199,533038600,-121.4672012,-55.79687881,-169.2297668,8.456415176,-4.33865118,-3.187916279,0.773452401,0.188240543,1.09206152,27.666878,-14.969075,-10.629744,4.749188,2.215978,5.566182
200,533055267,-121.5080948,-55.80668259,-169.194397,8.464473724,-4.330218315,-3.210037947,0.766652107,0.173308328,1.432684779,27.807953,-15.041245,-10.683245,4.761966,2.218866,5.59006
201,533071934,-121.5434189,-55.8146019,-169.1600952,8.442458153,-4.338962555,-3.213608027,0.90895617,0.230206907,1.605711102,27.948661,-15.113561,-10.736805,4.777115,2.222703,5.616822
202,533088601,-121.5833282,-55.82193375,-169.1257172,8.419518471,-4.354135513,-3.217411518,0.896226823,0.06747666,1.549901366,28.088986,-15.18613,-10.790429,4.792052,2.223828,5.642654
203,533105268,-121.623497,-55.82950974,-169.0864258,8.372350693,-4.365531921,-3.186816454,0.919060647,0.0556564,1.530358911,28.228525,-15.258889,-10.843543,4.80737,2.224756,5.66816
204,533121935,-121.6663666,-55.83370209,-169.0541382,8.303897858,-4.369388103,-3.138537645,0.47218287,0.119662531,1.809434772,28.366923,-15.331712,-10.895852,4.81524,2.22675,5.698317
205,533138602,-121.7136459,-55.83335495,-169.0259705,8.277165413,-4.367281437,-3.135727644,-0.077305533,0.142906055,2.144026518,28.504876,-15.4045,-10.948114,4.813952,2.229132,5.734051
206,533155269,-121.7668381,-55.83086014,-169.0002747,8.330994606,-4.374326229,-3.193381786,-0.366908342,0.039802141,2.230507612,28.643726,-15.477405,-11.001337,4.807837,2.229795,5.771226
207,533171936,-121.8301926,-55.82714462,-168.9661713,8.303126335,-4.338006496,-3.241952181,-0.63070637,-0.194035411,2.170240879,28.782111,-15.549705,-11.05537,4.797325,2.226561,5.807397
208,533188603,-121.9053268,-55.81906509,-168.9225311,8.262499809,-4.338865757,-3.195703745,-0.860759676,-0.603006184,2.223246336,28.919819,-15.622019,-11.108632,4.782979,2.216511,5.844451
209,533205270,-121.9882584,-55.80399323,-168.8726044,8.214588165,-4.347096443,-3.170894146,-0.942246497,-1.043890476,2.440813303,29.056729,-15.694471,-11.16148,4.767275,2.199113,5.885131
210,533221937,-122.0746231,-55.7768364,-168.8201294,8.164126396,-4.332764626,-3.151726007,-1.128373861,-1.435905337,3.043671846,29.192798,-15.766684,-11.214009,4.748469,2.175181,5.935859
211,533238604,-122.1665421,-55.73530579,-168.7725983,8.135486603,-4.29977417,-3.151431322,-1.702777147,-1.758267164,3.857003927,29.328389,-15.838347,-11.266533,4.720089,2.145877,6.000142
212,533255271,-122.2578888,-55.67570877,-168.7385406,8.121850014,-4.241397858,-3.185324192,-2.341673136,-1.950989723,5.012226582,29.463753,-15.909037,-11.319622,4.681061,2.113361,6.083679
213,533271938,-122.318924,-55.59143448,-168.7238159,8.140563965,-4.183652401,-3.239036798,-1.417631149,-2.226275444,6.587152004,29.599429,-15.978765,-11.373606,4.657434,2.076256,6.193465
214,533288605,-122.3791885,-55.47845459,-168.7090149,8.196063042,-4.214905739,-3.433913231,-1.295176864,-3.195024967,8.017058372,29.73603,-16.049013,-11.430838,4.635848,2.023006,6.327083
215,533305272,-122.433876,-55.34379578,-168.6815033,8.31966877,-4.248365879,-3.353717327,-0.515398085,-4.14498806,8.95366478,29.874691,-16.119819,-11.486733,4.627258,1.953923,6.476311
216,533321939,-122.4747086,-55.19524002,-168.6497803,8.416935921,-4.412087917,-3.276548862,0.495746821,-4.699119568,9.592549324,30.014973,-16.193354,-11.541342,4.63552,1.875604,6.636187
217,533338606,-122.5056839,-55.03853989,-168.6363525,8.467012405,-4.36709404,-3.262818098,0.072343089,-4.376590729,10.38266087,30.15609,-16.266139,-11.595722,4.636726,1.802661,6.809231
218,533355273,-122.5396194,-54.87802887,-168.6416931,8.488081932,-4.392076969,-3.216676474,-0.907195866,-4.035980701,10.88158607,30.297558,-16.33934,-11.649333,4.621606,1.735395,6.990591
219,533371940,-122.5884552,-54.71509933,-168.6352997,8.471126556,-4.465424538,-3.26586175,-1.246653795,-4.454517365,10.79956055,30.438743,-16.413764,-11.703764,4.600828,1.661153,7.170584
220,533388607,-122.650116,-54.55023575,-168.6001282,8.288945198,-4.429842949,-3.12449646,-0.63684082,-5.359863281,10.36872959,30.576892,-16.487595,-11.755839,4.590214,1.571822,7.343396
221,533405274,-122.7212906,-54.38276291,-168.5285339,7.542627811,-4.594751358,-3.108500004,0.483760059,-6.485106468,9.839213371,30.702602,-16.564174,-11.807647,4.598277,1.463737,7.507383
222,533421941,-122.8189316,-54.20556641,-168.4092865,6.809535027,-4.71561718,-2.879530191,1.073608041,-8.144515991,9.440896988,30.816094,-16.642768,-11.855639,4.61617,1.327995,7.664731
223,533438608,-123.010643,-54.00475311,-168.2577057,6.11894846,-4.714558125,-2.583037376,-3.039633751,-9.890650749,9.94530201,30.918076,-16.721344,-11.89869,4.565509,1.163151,7.830486
224,533455275,-123.2889481,-53.78398895,-168.1183624,5.725953579,-5.15805912,-2.590354443,-8.758482933,-10.29947376,11.02285862,31.013509,-16.807312,-11.941863,4.419534,0.991493,8.0142
225,533471942,-123.6222153,-53.51481628,-168.0461121,6.182593346,-5.301640034,-2.232867956,-15.45949173,-9.908502579,14.654603,31.116552,-16.895673,-11.979077,4.161876,0.826351,8.258443
226,533488609,-123.9609985,-53.25068665,-168.0707855,7.065611362,-5.471581459,-1.769860625,-20.62016296,-6.895205975,16.23472977,31.234312,-16.986866,-12.008575,3.818207,0.711431,8.529022
227,533505276,-124.2999496,-53.08410263,-168.015213,9.45254612,-5.656817436,-2.98429203,-16.9367981,-6.064601898,9.717446327,31.391854,-17.081146,-12.058313,3.535927,0.610354,8.690979
228,533521943,-124.6282196,-53.06752777,-167.7315063,13.03320122,-2.975364447,-6.125653744,-5.396194458,-7.832910538,-2.398969412,31.609074,-17.130735,-12.160407,3.44599,0.479805,8.650996
229,533538610,-124.9291916,-53.20276642,-167.2650299,12.66584873,-2.182617903,-5.713830471,5.15919733,-8.014074326,-13.51203823,31.820171,-17.167112,-12.255638,3.531977,0.346237,8.425795
230,533555277,-125.0558853,-53.38418198,-166.9029388,8.245231628,-5.303396225,-3.938857079,10.76934433,-3.261044502,-13.45522976,31.957592,-17.255502,-12.321286,3.711466,0.291886,8.201541
231,533571944,-125.214325,-53.54319,-166.5811615,6.502236843,-5.349378109,-3.868025064,7.147843838,-2.873394728,-11.61923981,32.065963,-17.344658,-12.385753,3.830597,0.243996,8.007887
232,533588611,-125.4875412,-53.67718887,-166.267868,8.243297577,-3.986834764,-4.552749634,0.056642506,-3.47921133,-10.36301041,32.203351,-17.411105,-12.461632,3.831541,0.186009,7.83517
233,533605278,-125.7262726,-53.8403244,-166.0770264,10.11274433,-3.933189154,-4.355814457,-3.756622553,1.205334067,-9.22478199,32.371897,-17.476658,-12.534229,3.768931,0.206098,7.681424
234,533621945,-125.8002167,-54.03812027,-166.0489807,9.433869362,-4.734494209,-3.958601236,-1.728620768,7.141117573,-7.467801094,32.529128,-17.555566,-12.600206,3.740121,0.325117,7.556961
235,533638612,-125.8417664,-54.25663376,-166.0532684,7.921872616,-4.911969185,-4.123495579,-1.31642282,8.772340775,-7.800844669,32.661159,-17.637432,-12.668931,3.718181,0.471323,7.426947
236,533655279,-125.9751053,-54.5004158,-166.003952,7.942247391,-4.61686182,-4.12643528,-4.035033703,8.085320473,-10.21652222,32.79353,-17.71438,-12.737705,3.65093,0.606078,7.256672
237,533671946,-126.1650391,-54.76711655,-165.9338837,8.431801796,-4.477403164,-3.939586401,-6.472315311,8.420040131,-11.71010208,32.93406,-17.789003,-12.803365,3.543058,0.746412,7.061504
238,533688613,-126.397583,-55.06141281,-165.8609924,8.626249313,-4.384093761,-3.826772928,-8.774812698,9.341155052,-13.10717869,33.077831,-17.862071,-12.867145,3.396811,0.902098,6.843051
239,533705280,-126.6363525,-55.40013123,-165.7962952,8.663384438,-4.481615543,-3.809104681,-9.457036018,11.19041061,-15.06361389,33.222221,-17.936765,-12.93063,3.239194,1.088605,6.591991
240,533721947,-126.8296204,-55.81126404,-165.7293396,8.502056122,-4.460064411,-3.944456577,-6.553476334,13.7869215,-18.5596962,33.363922,-18.011099,-12.996371,3.129969,1.318387,6.282663
241,533738614,-126.9515533,-56.30051422,-165.6698456,8.712500572,-4.286474705,-3.95232749,-2.506612539,16.83017349,-22.15890503,33.50913,-18.08254,-13.062243,3.088192,1.59889,5.913348
242,533755281,-126.9643555,-56.85892868,-165.6812439,8.620742798,-4.035192013,-3.923759699,0.629447162,21.20290947,-24.07549095,33.652809,-18.149793,-13.127639,3.098683,1.952272,5.51209
243,533771948,-126.8857651,-57.47337341,-165.7776947,8.493022919,-3.968160868,-3.81071949,1.923317313,25.38423157,-25.14169693,33.794359,-18.215929,-13.191151,3.130738,2.375343,5.093062
244,533788615,-126.7247238,-58.13508224,-165.9343109,8.451423645,-4.14993763,-3.725244522,3.841502428,28.51488304,-26.35585594,33.935216,-18.285095,-13.253238,3.194763,2.850591,4.653798
245,533805282,-126.4471054,-58.83985519,-166.1539764,8.829927444,-3.893245935,-3.772057295,7.53740406,31.4874897,-27.4106617,34.082381,-18.349982,-13.316106,3.320386,3.375382,4.196954
246,533821949,-126.0767593,-59.57726669,-166.4553986,8.911518097,-3.675226927,-3.47522521,8.796616554,34.4173851,-27.74650574,34.230906,-18.411236,-13.374026,3.466996,3.949005,3.734512
247,533838616,-125.6585312,-60.34369659,-166.8158417,8.864293098,-3.797451258,-3.330547571,8.521103859,36.49702072,-28.46100616,34.378644,-18.474527,-13.429535,3.609014,4.557289,3.260162
248,533855283,-125.2045135,-61.1492424,-167.2111664,8.816271782,-3.846503735,-3.0036695,8.648139,38.28371048,-30.17461586,34.525582,-18.538635,-13.479596,3.75315,5.195351,2.757252
249,533871950,-124.787117,-61.95236969,-167.5221558,8.700866699,-3.970802307,-3.075145245,9.842965126,36.13768387,-31.60795403,34.670596,-18.604815,-13.530848,3.917199,5.797646,2.230453
250,533888617,-124.3768616,-62.76999283,-167.7783203,8.89282608,-3.406228781,-2.836458683,12.18513107,34.95030594,-33.58773041,34.81881,-18.661585,-13.578122,4.120285,6.380151,1.670657
251,533905284,-123.960556,-63.62107468,-168.1247101,9.006152153,-3.306319475,-2.429359674,7.595349789,37.6777916,-34.22841644,34.968913,-18.71669,-13.618611,4.246874,7.008114,1.100183
252,533921951,-123.5046463,-64.46539307,-168.4777679,8.863985062,-3.633027315,-2.511663675,9.454452515,37.08343506,-34.21695328,35.116646,-18.77724,-13.660472,4.404448,7.626171,0.5299
253,533938618,-123.0596542,-65.29384613,-168.7875061,8.867618561,-3.403119802,-2.750520468,10.99167252,35.11673355,-34.47184372,35.26444,-18.833959,-13.706314,4.587643,8.21145,-0.044631
254,533955285,-122.6088257,-66.10951996,-169.1029663,9.093613625,-2.66575408,-2.161409616,10.90623856,34.34362793,-34.15818405,35.416,-18.878388,-13.742337,4.769414,8.783844,-0.613934
255,533971952,-122.1812973,-66.87572479,-169.4141846,9.143712044,-2.834300518,-1.83663702,9.616872787,32.18008804,-32.0679245,35.568395,-18.925626,-13.772948,4.929695,9.320179,-1.148399
256,533988619,-121.7043686,-67.61003876,-169.7257843,9.131867409,-3.391999245,-1.925077081,12.44181538,30.69633484,-30.79525757,35.720593,-18.982159,-13.805033,5.137059,9.831785,-1.661653
257,534005286,-121.1955032,-68.30709076,-170.041626,9.268015862,-2.892603874,-2.234926462,14.00849724,29.13164139,-29.22081947,35.87506,-19.030369,-13.842282,5.370534,10.317312,-2.148667
258,534021953,-120.6945496,-68.98751831,-170.3848114,9.444694519,-1.992016196,-1.765858293,11.91282368,28.67915535,-28.41582298,36.032472,-19.063569,-13.871713,5.569081,10.795298,-2.622264
259,534038620,-120.2029724,-69.62470245,-170.7725677,9.557581902,-2.396504641,-1.580471396,8.750510216,27.70898819,-26.01614189,36.191765,-19.103511,-13.898054,5.714923,11.257114,-3.055866
260,534055287,-119.6990356,-70.20588684,-171.1695099,9.451438904,-2.859700918,-1.921714067,8.873431206,25.73023605,-23.34174538,36.349289,-19.151173,-13.930083,5.862814,11.685951,-3.444895
261,534071954,-119.1505585,-70.7631073,-171.6071625,9.412032127,-2.180289745,-1.585978508,9.150457382,25.30469704,-22.03018379,36.506156,-19.187511,-13.956516,6.015322,12.107696,-3.812065
262,534088621,-118.6551132,-71.28046417,-172.043808,9.339209557,-1.791717768,-1.432409525,5.936519146,23.69651604,-20.26547432,36.661809,-19.217373,-13.980389,6.114264,12.502638,-4.149823
263,534105288,-118.2497406,-71.75507355,-172.4639435,9.21349144,-2.171194077,-1.304469109,1.385125875,21.81444931,-18.40905762,36.815367,-19.25356,-14.00213,6.137349,12.866212,-4.456641
264,534121955,-117.8503799,-72.17956543,-172.8461761,9.333990097,-2.550144434,-1.189761281,3.119261742,19.45370483,-16.31568909,36.970934,-19.296062,-14.021959,6.189337,13.19044,-4.728569
265,534138622,-117.4539185,-72.56712341,-173.1916809,9.316883087,-2.227524281,-1.754591703,4.977031708,17.54754066,-14.86845303,37.126215,-19.333187,-14.051202,6.272288,13.482899,-4.976377
266,534155289,-117.2031403,-72.8999176,-173.4247437,9.349030495,-1.638849854,-1.3446244,2.639917135,14.05916119,-13.02011108,37.282032,-19.360501,-14.073612,6.316287,13.717218,-5.193379
267,534171956,-117.0712891,-73.16916656,-173.5441742,9.446013451,-2.2948699,-0.811453521,2.001582623,10.42858982,-10.58809853,37.439466,-19.398749,-14.087136,6.349647,13.891028,-5.369847
268,534188623,-116.9656906,-73.37268829,-173.594635,9.448199272,-2.029661894,-0.773816943,4.368273735,7.4963274,-7.651931763,37.596936,-19.432577,-14.100033,6.422452,14.015967,-5.497379
269,534205290,-117.0243225,-73.49981689,-173.5035706,9.393149376,-1.541692972,-1.225024462,2.644562721,3.221591473,-4.67231369,37.753488,-19.458272,-14.12045,6.466528,14.06966,-5.575251
270,534221957,-117.1798172,-73.55693054,-173.3700256,9.564083099,-1.699550152,-1.242391586,-0.720261097,0.677852869,-1.232899189,37.912889,-19.486598,-14.141157,6.454524,14.080958,-5.595799
271,534238624,-117.3970718,-73.56739807,-173.1822052,9.493746758,-1.920482039,-1.71650672,-1.29625237,-1.416849732,0.844194651,38.071118,-19.518606,-14.169765,6.43292,14.057344,-5.581729
272,534255291,-117.6660309,-73.54532623,-172.9346313,9.552752495,-2.150038242,-1.121901393,-0.955155313,-3.20411706,2.10259819,38.230331,-19.55444,-14.188463,6.417001,14.003942,-5.546686
273,534271958,-117.9741821,-73.501091,-172.616333,9.510172844,-2.368073702,-1.245242953,0.761619329,-4.906541824,2.686285973,38.388834,-19.593908,-14.209217,6.429695,13.922166,-5.501915
274,534288625,-118.3147202,-73.44478607,-172.2578583,9.654981613,-2.136222124,-1.389939785,1.124986649,-5.874612808,2.947599649,38.54975,-19.629512,-14.232383,6.448445,13.824256,-5.452788
275,534305292,-118.627121,-73.37937164,-171.9310455,9.587985039,-1.803321362,-1.996579528,0.987164795,-5.684758663,3.634942293,38.70955,-19.659567,-14.265659,6.464898,13.72951,-5.392206
276,534321959,-118.9764023,-73.2960434,-171.5651245,9.406218529,-2.165156603,-1.821255088,1.030911207,-6.80078125,4.208846092,38.86632,-19.695653,-14.296013,6.48208,13.616164,-5.322059
277,534338626,-119.2709198,-73.21321106,-171.2240601,9.427384377,-2.460526943,-1.350891829,2.881634235,-6.436262131,4.329417706,39.023443,-19.736662,-14.318528,6.530107,13.508893,-5.249902
278,534355293,-119.533226,-73.13230896,-170.9277649,9.575124741,-2.183435917,-1.447378159,2.234708309,-5.742233753,4.545678139,39.183028,-19.773053,-14.342651,6.567352,13.413189,-5.174141
279,534371960,-119.7664948,-73.06233215,-170.7321167,9.694727898,-2.066399574,-1.623809576,-1.802884579,-3.92359066,4.797412872,39.344607,-19.807493,-14.369714,6.537304,13.347796,-5.094184
280,534388627,-119.9125671,-73.00280762,-170.6321869,9.635357857,-2.168544769,-1.901197195,-2.061713696,-2.176932573,5.065104485,39.505196,-19.843635,-14.401401,6.502942,13.311514,-5.009766
281,534405294,-119.9786835,-72.95401764,-170.5949554,9.588502884,-2.174279213,-1.737729073,-0.862565458,-0.903904378,5.050121307,39.665004,-19.879873,-14.430363,6.488566,13.296449,-4.925597
282,534421961,-120.026619,-72.9072876,-170.5615997,9.636996269,-2.244091272,-1.710857153,0.010846977,-0.784203172,4.970592022,39.825621,-19.917275,-14.458877,6.488747,13.283379,-4.842754
283,534438628,-120.0335388,-72.86774445,-170.5653839,9.646221161,-2.208098888,-1.661345005,0.345835447,-0.001325457,4.917497158,39.986391,-19.954077,-14.486566,6.494511,13.283357,-4.760796
284,534455295,-119.9961929,-72.83452606,-170.6070709,9.505653381,-2.391591787,-1.699568748,0.829262495,0.767945707,4.925732613,40.144819,-19.993937,-14.514892,6.508332,13.296156,-4.6787
285,534471962,-119.8803253,-72.81999969,-170.7145996,9.38012886,-2.367913723,-1.941418409,1.763959527,2.341615677,4.529465675,40.301154,-20.033402,-14.547249,6.537731,13.335183,-4.603209
286,534488629,-119.6763382,-72.82450867,-170.9008942,9.331346512,-2.296771765,-1.854547381,2.543444157,4.138885021,4.215159893,40.456676,-20.071682,-14.578158,6.580122,13.404164,-4.532956
287,534505296,-119.3965149,-72.84589386,-171.1453705,9.363977432,-2.4489429,-1.93968904,3.757127523,5.545176029,3.821761608,40.612742,-20.112498,-14.610486,6.642741,13.496584,-4.46926
288,534521963,-119.0330429,-72.88414001,-171.4647369,9.416899681,-2.379413128,-1.609977365,4.482056618,7.205660343,3.544926167,40.76969,-20.152155,-14.637319,6.717442,13.616678,-4.410178
289,534538630,-118.6190338,-72.92915344,-171.8446198,9.407973289,-2.210818291,-1.712865829,4.039674282,8.331069946,3.646609068,40.92649,-20.189002,-14.665867,6.78477,13.755529,-4.349401
290,534555297,-118.1812744,-72.96792603,-172.2553558,9.490078926,-2.16693306,-1.5193398,3.683350801,8.623697281,4.175358295,41.084658,-20.225118,-14.691189,6.846159,13.899257,-4.279812
291,534571964,-117.6857071,-73.00699615,-172.7038574,9.592328072,-2.296560526,-1.784484744,4.984874249,9.216952324,4.397024155,41.24453,-20.263394,-14.72093,6.92924,14.052873,-4.206528
292,534588631,-117.1334686,-73.05171204,-173.2067566,9.537025452,-2.221335411,-1.531193018,5.258379459,10.22286606,4.448941231,41.40348,-20.300416,-14.74645,7.01688,14.223254,-4.132379
293,534605298,-116.5525513,-73.09690094,-173.7501984,9.499009132,-2.241849899,-1.597285748,4.642470837,10.86263371,4.644597054,41.561797,-20.33778,-14.773071,7.094255,14.404298,-4.054969
294,534621965,-115.918541,-73.14959717,-174.3344421,9.509442329,-2.359770775,-1.675095916,5.475153446,11.69992733,4.436954975,41.720288,-20.37711,-14.800989,7.185508,14.599297,-3.98102
295,534638632,-115.2076569,-73.21317291,-174.9749298,9.587171555,-2.371772766,-1.503172874,6.847227573,12.85722637,4.127297401,41.880074,-20.41664,-14.826042,7.299628,14.813584,-3.912232
296,534655299,-114.3996811,-73.29026794,-175.7034149,9.661067963,-2.209572077,-1.717735887,7.602484703,14.558465,3.847581863,42.041092,-20.453466,-14.854671,7.426336,15.056225,-3.848106
297,534671966,-113.5125504,-73.37672424,-176.5432434,9.519678116,-2.105278254,-1.645424128,5.931407452,16.50568581,3.896822214,42.199753,-20.488554,-14.882095,7.525193,15.33132,-3.783159
298,534688633,-112.5625153,-73.46607208,-177.4362335,9.498822212,-2.467206955,-1.563417196,6.628165722,17.37168312,3.818320513,42.358067,-20.529674,-14.908152,7.635662,15.620848,-3.71952
299,534705300,-111.5229645,-73.5712204,-178.3933868,9.603084564,-2.458222151,-1.390833139,8.281924248,18.68388367,3.025152445,42.518118,-20.570644,-14.931333,7.773694,15.932246,-3.669101
300,534721967,-110.4195557,-73.68083191,-179.4182587,9.635795593,-2.429044962,-1.19157958,8.178570747,19.75810432,2.819514751,42.678715,-20.611128,-14.951193,7.910004,16.261548,-3.622109
301,534738634,-109.3010483,-73.78804779,179.5357513,9.373117447,-2.152861118,-1.209801316,7.826946259,19.9371376,2.673304319,42.834934,-20.647009,-14.971356,8.040453,16.593834,-3.577554
302,534755301,-108.1852951,-73.89179993,178.5225372,9.238684654,-2.3419981,-1.133170128,9.523431778,19.24651527,2.289394855,42.988912,-20.686042,-14.990242,8.199177,16.914609,-3.539397
303,534771968,-107.1213684,-73.977005,177.6020966,10.03636456,-2.444242001,-0.736519873,11.72438526,17.3404541,2.508063555,43.156185,-20.726779,-15.002517,8.394583,17.203617,-3.497596
304,534788635,-106.1500397,-74.06484985,176.700882,9.94210434,-2.313662291,-0.227233648,7.249951363,16.98816872,1.954187155,43.321887,-20.76534,-15.006304,8.515416,17.486753,-3.465026
305,534805302,-105.4528275,-74.13689423,175.9754486,9.431159019,-2.491152048,-0.181181058,0.913772166,13.84409714,1.830976248,43.479073,-20.806859,-15.009324,8.530646,17.717488,-3.43451
306,534821969,-105.0267105,-74.19369507,175.5695801,9.307714462,-2.711914778,-0.243962377,3.074715853,8.476436615,1.190299273,43.634202,-20.852058,-15.01339,8.581891,17.858762,-3.414672
307,534838636,-104.8900681,-74.23331451,175.4910583,9.237959862,-2.402764797,-0.108664654,4.588989258,3.001821756,0.752219439,43.788168,-20.892104,-15.015201,8.658374,17.908792,-3.402135
308,534855303,-105.026268,-74.25919342,175.6707306,9.329297066,-2.485314369,-0.353769779,3.121291876,-1.300107121,0.453575313,43.943656,-20.933526,-15.021097,8.710396,17.887124,-3.394575
309,534871970,-105.3150787,-74.29502869,175.9960785,9.501723289,-2.592772245,-0.610691667,2.378638506,-3.428983212,-0.761958599,44.102018,-20.976739,-15.031275,8.75004,17.829974,-3.407274
310,534888637,-105.6531219,-74.35657501,176.3663025,9.501479149,-2.436493874,-0.821110606,2.015565634,-3.693907976,-2.474065065,44.260376,-21.017347,-15.04496,8.783633,17.768409,-3.448508
311,534905304,-106.0063782,-74.43981171,176.7328033,9.535644531,-2.266291142,-0.832420826,0.898480773,-3.224184513,-3.739742517,44.419303,-21.055119,-15.058834,8.798608,17.714673,-3.510837
312,534921971,-106.3238831,-74.53460693,177.0404663,9.64074707,-2.181912899,-1.080675483,-0.347596377,-2.056194067,-4.163363934,44.579982,-21.091484,-15.076845,8.792815,17.680403,-3.580226
313,534938638,-106.5964584,-74.63493347,177.2768555,9.622693062,-2.180067301,-1.015735149,-1.767090678,-0.805077672,-4.162198067,44.74036,-21.127818,-15.093774,8.763363,17.666985,-3.649596
314,534955305,-106.8553314,-74.73474884,177.4873657,9.581904411,-2.207182884,-0.920384645,-2.433123589,-0.363719583,-4.016885281,44.900058,-21.164604,-15.109114,8.722811,17.660923,-3.716544
315,534971972,-107.1237717,-74.82670593,177.6984558,9.598327637,-2.132259369,-0.878909409,-2.965816259,-0.461009443,-3.57356739,45.06003,-21.200142,-15.123762,8.673381,17.65324,-3.776103
316,534988639,-107.4220963,-74.91316223,177.9211426,9.607995033,-2.174622536,-0.916576564,-4.085181236,-0.68673414,-3.310716867,45.220163,-21.236386,-15.139038,8.605295,17.641794,-3.831282
317,535005306,-107.7046738,-74.99593353,178.1303406,9.59488678,-2.086156368,-0.998758435,-3.913754702,-0.504986346,-3.043998718,45.380078,-21.271155,-15.155684,8.540066,17.633378,-3.882015
318,535021973,-108.0126114,-75.06839752,178.335144,9.572440147,-1.946112633,-0.906411171,-5.686423302,-0.586140335,-2.432777643,45.539619,-21.30359,-15.170791,8.445292,17.623609,-3.922561
319,535038640,-108.3744965,-75.12245178,178.5776825,9.683574677,-2.073465824,-0.86427182,-6.728591919,-1.443832994,-1.570167661,45.701012,-21.338148,-15.185196,8.333149,17.599545,-3.94873
320,535055307,-108.7974854,-75.15748596,178.8868103,9.651839256,-1.941158295,-0.887877047,-6.530887604,-2.744087458,-0.827078998,45.861876,-21.370501,-15.199994,8.224301,17.55381,-3.962515
321,535071974,-109.3347855,-75.16540527,179.2939911,9.626994133,-1.986552835,-0.772962809,-7.701798916,-4.67004776,0.196321413,46.022326,-21.40361,-15.212877,8.095938,17.475976,-3.959243
322,535088641,-110.0378494,-75.13749695,179.8520355,9.593752861,-1.892885566,-0.637620449,-8.894493103,-7.560941696,1.372072816,46.182222,-21.435158,-15.223504,7.947696,17.34996,-3.936375
323,535105308,-110.9859695,-75.06071472,-179.3876038,9.624808311,-1.866633773,-0.441116571,-11.88080025,-11.53864002,2.903176308,46.342635,-21.466269,-15.230856,7.749683,17.157649,-3.887989
324,535121975,-112.2836304,-74.91956329,-178.3134155,9.516056061,-2.031920195,-0.302273959,-14.6852808,-17.59392738,4.418352604,46.501236,-21.500134,-15.235894,7.504928,16.864417,-3.81435
325,535138642,-114.0403671,-74.68996429,-176.7640228,9.54178524,-2.380875111,-0.024741951,-14.76576614,-26.80015373,5.776695251,46.660266,-21.539815,-15.236306,7.258832,16.417748,-3.718072
326,535155309,-116.2770081,-74.35871124,-174.6871643,9.524184227,-2.7451334,0.529512644,-13.17885208,-37.55906677,6.536512852,46.819002,-21.585567,-15.227481,7.039184,15.791764,-3.60913
327,535171976,-118.9577026,-73.89817047,-172.1380768,9.882773399,-2.428110838,0.932183146,-12.8080759,-48.93598175,7.754303455,46.983715,-21.626036,-15.211945,6.825716,14.976164,-3.479892
328,535188643,-121.8433609,-73.26419067,-169.463028,10.46813011,-1.461151958,0.544567466,-18.27391434,-57.51325226,12.50341606,47.158184,-21.650389,-15.202869,6.521151,14.01761,-3.271502
329,535205310,-124.6809921,-72.44696045,-167.0451202,11.04096127,-0.918605149,-0.701634824,-30.71066856,-61.85037613,20.21166992,47.3422,-21.665699,-15.214563,6.009307,12.98677,-2.934641
330,535221977,-127.3029404,-71.50291443,-165.0362244,11.70996284,-1.040289044,-1.532562852,-41.76943588,-62.71170425,26.62382126,47.537366,-21.683037,-15.240106,5.31315,11.941575,-2.490911
331,535238644,-129.6952209,-70.47260284,-163.2492981,12.18161869,-0.478838116,-2.616339207,-41.22019958,-65.0978241,29.39282417,47.740393,-21.691018,-15.283712,4.626147,10.856611,-2.001031
332,535255311,-131.9703217,-69.3633194,-161.436203,13.39495182,0.295500457,-2.500203848,-33.34817886,-71.07234955,28.74908257,47.963642,-21.686093,-15.325382,4.070344,9.672072,-1.52188
333,535271978,-133.8009033,-68.15490723,-159.7786102,13.00017929,-0.960450828,-2.898454666,-16.11257935,-75.06723785,31.51108551,48.180312,-21.702101,-15.37369,3.801801,8.420951,-0.996695
334,535288645,-135.4407654,-66.91786957,-158.1213684,12.49067783,-0.725380778,-2.41671133,-5.440022469,-78.52084351,29.10102463,48.38849,-21.714191,-15.413969,3.711134,7.11227,-0.511678
335,535305312,-136.7068481,-65.75360107,-156.6819916,11.70829201,-1.892813802,-1.922724485,4.228031158,-73.73829651,26.51297188,48.583628,-21.745738,-15.446014,3.781601,5.883298,-0.069795
336,535321979,-137.4911957,-64.66966248,-155.5863953,10.12356281,-3.233523607,-2.202617645,13.7234993,-65.82787323,27.1272583,48.752354,-21.79963,-15.482724,4.010326,4.786167,0.382326
337,535338646,-137.863205,-63.69207382,-154.8682098,8.49215126,-4.694617271,-3.125356674,17.5773201,-55.45794678,28.6413784,48.89389,-21.877874,-15.534813,4.303281,3.861868,0.859682
338,535355313,-137.9286194,-62.89323807,-154.3773041,7.292302132,-4.622561932,-4.195586681,23.48418236,-43.8821373,25.27490044,49.015428,-21.954917,-15.604739,4.694684,3.130499,1.28093
339,535371980,-137.8679504,-62.36014175,-153.9897919,6.870155811,-2.418566942,-3.367166281,25.38018227,-30.30034447,16.40419388,49.129931,-21.995226,-15.660858,5.117687,2.625493,1.554333
340,535388647,-137.7685852,-62.28268433,-153.7315979,6.645747662,0.265475422,-0.035074092,20.78239632,-7.64999485,0.664035916,49.240693,-21.990801,-15.661443,5.46406,2.497993,1.5654
341,535405314,-137.7576294,-62.64156342,-153.5584106,5.590468884,-1.038972616,-0.571419716,10.96759605,13.28143883,-15.09952831,49.333867,-22.008117,-15.670967,5.646853,2.71935,1.313741
342,535421981,-137.573349,-63.38758469,-153.4390869,5.55752182,-0.797982097,-1.001322865,18.51656342,31.43770409,-29.59982109,49.426492,-22.021417,-15.687656,5.955462,3.243312,0.820411
343,535438648,-137.3781128,-64.47537231,-153.2092438,5.892712593,-0.846956253,-1.320958138,25.16703033,44.528965,-45.61450577,49.524704,-22.035533,-15.709672,6.374913,3.985461,0.060169
344,535455315,-137.0947571,-65.88703156,-152.9245148,6.433839321,-0.894505799,-1.289588451,33.56176758,57.83586502,-59.78815842,49.631935,-22.050441,-15.731165,6.934276,4.949392,-0.9363
345,535471982,-136.6320953,-67.60157776,-152.6209412,6.752689362,-1.636000037,-1.817406178,45.52450943,70.66984558,-72.57463837,49.74448,-22.077708,-15.761455,7.693018,6.127223,-2.145877
346,535488649,-135.8627319,-69.56679535,-152.3348999,7.252777576,-2.699766159,-2.368187189,63.14065933,81.37478638,-83.05232239,49.86536,-22.122704,-15.800925,8.745362,7.483469,-3.530082
347,535505316,-134.4588013,-71.71479797,-152.3014832,7.933316708,-3.987014294,-2.778678417,87.0949707,91.49481964,-88.3543396,49.997582,-22.189154,-15.847236,10.196945,9.008383,-5.002654
348,535521983,-132.0808563,-73.94776154,-152.819046,8.303598404,-4.79488039,-3.196175575,113.9294968,99.14527893,-88.33636475,50.135975,-22.269069,-15.900506,12.09577,10.660804,-6.474927
349,535538650,-128.9460602,-76.12677002,-153.9294281,8.230476379,-3.842496157,-3.333220005,124.601326,98.71640778,-85.35991669,50.27315,-22.333111,-15.95606,14.172459,12.306077,-7.897592
350,535555317,-125.1029739,-78.16677856,-156.0464783,9.349839211,-4.563680172,-3.289517879,107.5886383,97.0415802,-77.89803314,50.428981,-22.409172,-16.010885,15.965603,13.923437,-9.195893
351,535571984,-119.7631226,-80.00918579,-160.0125122,10.51618481,-4.616811275,-3.140557766,87.54911804,98.13375092,-66.38760376,50.604251,-22.486119,-16.063228,17.424755,15.559,-10.302353
352,535588651,-113.1990814,-81.18405151,-165.8569183,9.560508728,-10.54336834,-8.197898865,48.69519043,83.58112335,-34.85319519,50.763593,-22.661842,-16.19986,18.236342,16.952019,-10.88324
353,535605318,-110.743309,-81.44783783,-168.0679626,9.499501228,-11.57262421,-17.71527672,17.0388813,25.62199593,-4.803582668,50.921918,-22.854719,-16.495115,18.520323,17.379052,-10.9633
354,535621985,-110.4913177,-81.77371979,-169.2957916,14.33860302,6.13912487,-1.593634486,-56.86643982,18.51297379,-12.40059566,51.160895,-22.7524,-16.521676,17.572549,17.687602,-11.169977
355,535638652,-106.8324127,-82.38558197,-173.5098114,14.23169708,8.447249413,13.57952023,-29.99554825,46.31332779,-21.28040123,51.39809,-22.611613,-16.295351,17.072623,18.459491,-11.52465
356,535655319,-104.0336075,-82.64993286,-176.149765,11.74900723,-7.043843746,-0.531196952,11.72084045,25.29226685,-7.198694229,51.593907,-22.72901,-16.304204,17.26797,18.881029,-11.644628
357,535671986,-103.176033,-82.7033844,-176.3477173,12.43451118,-1.203138947,-6.493978024,40.51557159,3.422120333,-0.322817981,51.801149,-22.749062,-16.412437,17.94323,18.938064,-11.650008
358,535688653,-101.970871,-82.7206955,-177.5729828,9.899510384,4.490637779,4.294093609,0.237263292,10.67266178,3.470777988,51.966141,-22.674218,-16.340869,17.947184,19.115942,-11.592162
359,535705320,-101.4957275,-82.66436005,-178.6921692,8.018010139,-2.539089441,1.215812922,-37.25790787,8.892148972,7.635289192,52.099775,-22.716536,-16.320605,17.326219,19.264144,-11.464907
360,535721987,-101.2342987,-82.53704834,-179.1782074,8.779405594,-4.259013653,-2.27712512,-12.39436245,3.347762585,10.77193069,52.246098,-22.78752,-16.358557,17.119646,19.31994,-11.285375
361,535738654,-101.4494324,-82.46334076,-178.8321686,9.361772537,-0.804269969,-0.363425821,8.523550034,-2.308505535,6.257236004,52.402128,-22.800924,-16.364614,17.261705,19.281465,-11.181088
362,535755321,-101.8195496,-82.36791229,-178.3516388,9.24251461,-0.791629612,-0.168785349,7.213384151,-3.667029142,7.308881283,52.55617,-22.814118,-16.367427,17.381928,19.220348,-11.059273
363,535771988,-102.0872574,-82.23545074,-178.0223846,9.489537239,-1.015284896,-0.711132288,4.363234043,-3.027499199,9.689294815,52.714329,-22.831039,-16.379279,17.454649,19.16989,-10.897785
364,535788655,-102.4797897,-82.10420227,-177.5999298,9.98800087,-1.076655865,-0.363582671,2.402689934,-3.83764863,9.428794861,52.880796,-22.848983,-16.385339,17.494694,19.105929,-10.740638
365,535805322,-102.8149109,-81.98036194,-177.205658,10.03182888,-1.449219823,-0.169496343,4.172182083,-3.615444899,9.001803398,53.047993,-22.873137,-16.388164,17.56423,19.045672,-10.590608
366,535821989,-103.1390533,-81.8625946,-176.7909546,10.05207443,-1.365610003,-0.5282166,6.02959013,-3.795194626,8.561995506,53.215528,-22.895897,-16.396968,17.664723,18.982419,-10.447908
367,535838656,-103.4952393,-81.7537384,-176.3815155,9.996034622,-1.094069362,-0.53728646,3.791103363,-3.713490248,8.008965492,53.382129,-22.914131,-16.405923,17.727908,18.920527,-10.314425
368,535855323,-103.8419495,-81.64093018,-176.0345154,9.872085571,-1.01719141,-0.527067661,0.659335077,-3.321858883,8.315254211,53.546664,-22.931084,-16.414707,17.738897,18.865163,-10.175837
369,535871990,-104.1613846,-81.5218277,-175.7356873,9.830918312,-1.073709249,-0.688370943,-0.583207667,-3.081535101,8.763579369,53.710513,-22.948979,-16.42618,17.729177,18.813804,-10.029777
370,535888657,-104.4172821,-81.40115356,-175.4950867,9.796092987,-1.107344151,-0.645312846,-0.220851943,-2.66699338,8.951742172,53.873781,-22.967435,-16.436935,17.725496,18.769354,-9.880581
371,535905324,-104.5191345,-81.29618073,-175.3894958,9.765236855,-1.370403409,-0.619612873,1.005849361,-1.299006104,8.329238892,54.036535,-22.990275,-16.447262,17.74226,18.747704,-9.74176
372,535921991,-104.4696198,-81.21405792,-175.4300385,9.752088547,-1.47037816,-0.803841531,1.419199944,0.321951717,7.329703331,54.19907,-23.014781,-16.460659,17.765913,18.75307,-9.619598
373,535938658,-104.2503357,-81.15802002,-175.6584015,9.750817299,-1.368576646,-0.746974945,0.484579504,2.404046535,6.22748518,54.361584,-23.037591,-16.473109,17.773989,18.793137,-9.515807
374,535955325,-103.892601,-81.12554932,-176.0396118,9.794279099,-1.383373499,-0.790093005,-0.27736634,4.148309708,5.200684547,54.524822,-23.060647,-16.486277,17.769366,18.862275,-9.429129
375,535971992,-103.4437943,-81.1096344,-176.5044708,9.852919579,-1.407857776,-0.635108113,0.222535983,5.166043758,4.40565443,54.689037,-23.084111,-16.496862,17.773075,18.948376,-9.355701
376,535988659,-102.9421005,-81.10168457,-177.0006714,9.840436935,-1.36924684,-0.470926642,1.545483708,5.582635403,3.964757442,54.853044,-23.106932,-16.504711,17.798833,19.04142,-9.289622
377,536005326,-102.4131546,-81.0970459,-177.5098572,9.849411964,-1.293138385,-0.52173835,2.417698145,5.758516312,3.751363993,55.017201,-23.128484,-16.513407,17.839128,19.137395,-9.227099
378,536021993,-101.8635101,-81.08976746,-178.0317993,9.847484589,-1.355317116,-0.473732024,2.90268755,5.85411644,3.889955044,55.181326,-23.151073,-16.521303,17.887506,19.234964,-9.162266
379,536038660,-101.3198624,-81.08030701,-178.5389557,9.732498169,-1.35548389,-0.459473819,3.401636124,5.707803726,3.956688881,55.343534,-23.173664,-16.528961,17.9442,19.330094,-9.096321
380,536055327,-100.8538361,-81.06484222,-178.9638977,9.678490639,-1.343178153,-0.395735443,3.628154278,4.905267715,4.120903969,55.504842,-23.19605,-16.535557,18.004669,19.411848,-9.027639
381,536071994,-100.4679184,-81.04399872,-179.3110809,9.709586143,-1.333926201,-0.352823138,3.428925991,4.150602341,4.270853519,55.666668,-23.218282,-16.541437,18.061818,19.481025,-8.956458
382,536088661,-100.1568832,-81.01698303,-179.602417,9.704461098,-1.267653942,-0.295368344,2.247591257,3.586059332,4.526545048,55.828409,-23.23941,-16.54636,18.099278,19.540793,-8.881016
383,536105328,-99.93693542,-80.98123932,-179.8188477,9.746310234,-1.303726673,-0.263292342,1.23066473,2.817742825,4.901694298,55.990848,-23.261139,-16.550748,18.119789,19.587755,-8.799321
384,536121995,-99.8033905,-80.9380722,-179.943634,9.756094933,-1.351831675,-0.258346975,1.460167289,1.898131371,5.204488277,56.15345,-23.28367,-16.555054,18.144125,19.619391,-8.71258
385,536138662,-99.79244232,-80.88380432,-179.9493103,9.758923531,-1.309744954,-0.323924512,1.173048973,0.678979933,5.658331871,56.316099,-23.305499,-16.560453,18.163676,19.630707,-8.618274
386,536155329,-99.86175537,-80.82189941,-179.888504,9.751904488,-1.344197392,-0.286108881,0.287720323,-0.030626392,6.00965023,56.478631,-23.327902,-16.565221,18.168471,19.630197,-8.518113
387,536171996,-100.0059433,-80.75333405,-179.7588806,9.720891953,-1.410246611,-0.375458747,-0.116877161,-0.764199853,6.272794247,56.640646,-23.351406,-16.571479,18.166523,19.61746,-8.413566
388,536188663,-100.2062683,-80.6807785,-179.5633698,9.70996666,-1.448729634,-0.359888166,0.403835505,-1.458201528,6.397528172,56.802479,-23.375551,-16.577477,18.173254,19.593157,-8.306941
389,536205330,-100.45298,-80.60359955,-179.3158264,9.702740669,-1.397426724,-0.400933355,0.695769131,-2.041582346,6.566790104,56.964191,-23.398841,-16.584159,18.18485,19.559131,-8.197494
390,536221997,-100.69944,-80.52526855,-179.0638275,9.760349274,-1.425539136,-0.42684111,0.981927097,-2.136451721,6.600932598,57.126863,-23.4226,-16.591273,18.201215,19.523523,-8.087478
391,536238664,-100.937294,-80.44976044,-178.8131714,9.748428345,-1.513599515,-0.401177466,1.405458808,-2.131854296,6.425702572,57.289337,-23.447827,-16.597959,18.224639,19.487992,-7.980383
392,536255331,-101.1663361,-80.37986755,-178.564743,9.71846199,-1.482236862,-0.459705651,1.807988048,-2.08001399,6.071658134,57.451311,-23.472531,-16.605621,18.254772,19.453325,-7.879189
393,536271998,-101.3816299,-80.31240845,-178.3380737,9.718660355,-1.411646366,-0.514466226,1.337905169,-1.872218251,5.960895538,57.613289,-23.496058,-16.614195,18.27707,19.422121,-7.779841
394,536288665,-101.5856247,-80.24853516,-178.1272736,9.785842896,-1.487180471,-0.490028977,1.073671579,-1.69961381,5.766993999,57.776386,-23.520844,-16.622362,18.294965,19.393794,-7.683724
395,536305332,-101.7756805,-80.1897583,-177.9277344,9.753773689,-1.523908138,-0.488640547,1.242024064,-1.551790357,5.478480339,57.938949,-23.546242,-16.630506,18.315665,19.367931,-7.592416
396,536321999,-101.9485626,-80.13723755,-177.7512817,9.748799324,-1.497191191,-0.478022248,0.90921247,-1.26415956,5.142364025,58.101429,-23.571195,-16.638473,18.330819,19.346862,-7.50671
397,536338666,-102.0962372,-80.09007263,-177.6088104,9.753407478,-1.533142209,-0.520385385,0.411160678,-0.872362196,4.889707565,58.263986,-23.596747,-16.647146,18.337672,19.332323,-7.425215
398,536355333,-102.2334824,-80.04769897,-177.4716492,9.731266022,-1.548870325,-0.517065048,0.71939677,-0.772459865,4.617982864,58.426174,-23.622562,-16.655764,18.349662,19.319449,-7.348249
399,536372000,-102.3560791,-80.00904846,-177.3457794,9.716786385,-1.517721891,-0.498974711,0.927986562,-0.622305453,4.416897297,58.58812,-23.647857,-16.66408,18.365128,19.309077,-7.274634
400,536388667,-102.4538345,-79.97296906,-177.2384644,9.763706207,-1.536552668,-0.535363019,1.322358251,-0.409169376,4.301423073,58.750848,-23.673466,-16.673003,18.387167,19.302258,-7.202944
401,536405334,-102.5434341,-79.93920898,-177.1360321,9.745916367,-1.551318049,-0.536981344,1.528335452,-0.336313963,4.166687012,58.91328,-23.699321,-16.681953,18.412639,19.296653,-7.133499
402,536422001,-102.6236038,-79.90958405,-177.0413361,9.728790283,-1.54944849,-0.512525022,1.62827611,-0.211195931,3.948377132,59.075427,-23.725145,-16.690495,18.439777,19.293133,-7.067693
403,536438668,-102.7020645,-79.88244629,-176.9511566,9.739695549,-1.546567559,-0.501896739,1.461665511,-0.137943596,3.805201769,59.237755,-23.750921,-16.69886,18.464138,19.290834,-7.004273
404,536455335,-102.7823715,-79.85811615,-176.8630981,9.741973877,-1.560816765,-0.506147146,1.227296591,-0.084874101,3.645353556,59.400121,-23.776935,-16.707296,18.484593,19.289419,-6.943517
405,536472002,-102.860527,-79.83235168,-176.7783356,9.744543076,-1.565327168,-0.497989744,1.165044904,-0.074385688,3.726507187,59.56253,-23.803024,-16.715596,18.50401,19.288179,-6.881409
406,536488669,-102.9400253,-79.80870056,-176.6947479,9.757652283,-1.542465687,-0.515542507,1.008154154,-0.041012332,3.60862422,59.725158,-23.828732,-16.724188,18.520813,19.287495,-6.821265
407,536505336,-103.0090408,-79.78527069,-176.620163,9.744586945,-1.552468657,-0.536997437,1.108709812,0.052774973,3.609072924,59.887568,-23.854606,-16.733138,18.539291,19.288375,-6.761114
408,536522003,-103.0559158,-79.76420593,-176.5665436,9.737164497,-1.598233342,-0.508782625,1.196625352,0.296518236,3.522117615,60.049854,-23.881243,-16.741618,18.559235,19.293317,-6.702412
409,536538670,-103.0875702,-79.74598694,-176.5215912,9.714834213,-1.60036099,-0.534133792,1.594825983,0.421636283,3.377380371,60.211768,-23.907916,-16.75052,18.585815,19.300344,-6.646122
410,536555337,-103.1076965,-79.72915649,-176.4859772,9.719382286,-1.566415429,-0.557875156,1.73691237,0.535113335,3.312285423,60.373758,-23.934023,-16.759818,18.614764,19.309263,-6.590917
411,536572004,-103.1152954,-79.71422577,-176.4651184,9.751336098,-1.565281391,-0.594578564,1.615277886,0.714082122,3.239046335,60.53628,-23.960111,-16.769728,18.641685,19.321164,-6.536933
412,536588671,-103.0958176,-79.70249176,-176.4734344,9.743847847,-1.578659534,-0.546054721,1.51629734,1.061864018,3.124044895,60.698677,-23.986422,-16.778829,18.666957,19.338862,-6.484866
413,536605338,-103.0615997,-79.69385529,-176.4940643,9.723615646,-1.626103163,-0.503225625,1.669948101,1.232406378,2.970074415,60.860737,-24.013524,-16.787216,18.694789,19.359402,-6.435365
414,536622005,-102.9997559,-79.689888,-176.5426025,9.732491493,-1.590922117,-0.530129373,1.688504577,1.587821007,2.759691715,61.022945,-24.040039,-16.796051,18.722931,19.385866,-6.38937
415,536638672,-102.9099884,-79.68775177,-176.6212921,9.735972404,-1.571237206,-0.531080186,1.575578213,1.926318526,2.727074146,61.185211,-24.066226,-16.804902,18.749191,19.417971,-6.343919
416,536655339,-102.8174362,-79.68754578,-176.6978149,9.731933594,-1.583496571,-0.566767633,1.870726109,1.928982258,2.607488394,61.34741,-24.092618,-16.814348,18.78037,19.450121,-6.300461
417,536672006,-102.7063751,-79.68935394,-176.7902069,9.726438522,-1.572356701,-0.507544637,2.041601419,2.12166667,2.525963306,61.509517,-24.118824,-16.822807,18.814397,19.485482,-6.258362
418,536688673,-102.5894165,-79.69026947,-176.8904266,9.733653069,-1.602731705,-0.454494298,1.93778038,2.192050695,2.590469122,61.671745,-24.145536,-16.830382,18.846693,19.522016,-6.215188
419,536705340,-102.4693985,-79.69351196,-176.9925842,9.732555389,-1.63018775,-0.475426912,1.999955416,2.238793373,2.458704472,61.833954,-24.172706,-16.838306,18.880026,19.559329,-6.17421
420,536722007,-102.3511124,-79.69538879,-177.0950928,9.710928917,-1.58024013,-0.474460065,1.877385259,2.224808931,2.533621311,61.995803,-24.199043,-16.846214,18.911316,19.596409,-6.131983
421,536738674,-102.2366562,-79.69664001,-177.1940613,9.705830574,-1.587227821,-0.496215671,1.851772904,2.177130938,2.560988665,62.157567,-24.225497,-16.854484,18.942179,19.632695,-6.0893
422,536755341,-102.125061,-79.69572449,-177.2893982,9.713481903,-1.560244203,-0.463929683,1.899271607,2.11151123,2.673428535,62.319458,-24.251501,-16.862216,18.973834,19.667887,-6.044743
423,536772008,-102.0245056,-79.69271851,-177.3748779,9.717077255,-1.582047105,-0.452694207,1.811176658,1.980297446,2.777198315,62.481409,-24.277868,-16.869761,19.00402,19.700892,-5.998456
424,536788675,-101.9258194,-79.68964386,-177.4581909,9.711864471,-1.597087264,-0.45681572,1.831910133,1.956528425,2.768771172,62.643273,-24.304486,-16.877375,19.034552,19.733501,-5.95231
425,536805342,-101.840065,-79.68481445,-177.5274048,9.702278137,-1.621920586,-0.455311805,1.883686423,1.785346389,2.841383696,62.804978,-24.331518,-16.884964,19.065947,19.763257,-5.904954
426,536822009,-101.7562485,-79.67929077,-177.5969543,9.73753643,-1.584946752,-0.442205518,1.745505571,1.7794168,2.881646395,62.96727,-24.357934,-16.892334,19.095039,19.792914,-5.856927
427,536838676,-101.6745453,-79.67285919,-177.667572,9.747011185,-1.608287692,-0.464201748,1.558084488,1.781196952,2.930553913,63.12972,-24.384739,-16.900071,19.121007,19.822601,-5.808084
428,536855343,-101.6011658,-79.66629028,-177.7292938,9.694900513,-1.604454875,-0.454769969,1.579458475,1.684073567,2.923369646,63.291302,-24.41148,-16.90765,19.147331,19.850669,-5.759361
429,536872010,-101.5285263,-79.6577301,-177.7906647,9.729808807,-1.593621731,-0.431951046,1.556291461,1.655963302,3.036590338,63.453465,-24.43804,-16.914849,19.173269,19.878268,-5.708751
430,536888677,-101.4560852,-79.64785767,-177.8453064,9.747749329,-1.618058681,-0.462228209,1.942313671,1.569008708,3.097306013,63.615927,-24.465008,-16.922553,19.205641,19.904418,-5.657129
431,536905344,-101.390274,-79.63640594,-177.8902435,9.711151123,-1.60299933,-0.412053585,2.111319065,1.447924614,3.170148134,63.77778,-24.491725,-16.929421,19.24083,19.92855,-5.604293
432,536922011,-101.32444,-79.6231842,-177.9380341,9.711556435,-1.616696,-0.445183277,1.9498564,1.458143711,3.2760818,63.939639,-24.51867,-16.936841,19.273328,19.952852,-5.549692
433,536938678,-101.2759552,-79.60913849,-177.9689484,9.73120594,-1.639019251,-0.424539655,1.897824407,1.267918468,3.291335106,64.101826,-24.545987,-16.943917,19.304958,19.973984,-5.494836
434,536955345,-101.2424545,-79.59404755,-177.9867706,9.698878288,-1.607368946,-0.42235294,1.778059483,1.117533445,3.319828749,64.263474,-24.572776,-16.950956,19.334592,19.99261,-5.439506
435,536972012,-101.2107925,-79.57862854,-178.0070343,9.716194153,-1.618974447,-0.426953077,1.513685226,1.137857199,3.34924531,64.425411,-24.599759,-16.958072,19.35982,20.011574,-5.383685
436,536988679,-101.1845169,-79.56298828,-178.0205231,9.709733963,-1.661842227,-0.425406188,1.593699098,1.062735081,3.342790604,64.58724,-24.627456,-16.965162,19.386382,20.029286,-5.327972
437,537005346,-101.161171,-79.54930878,-178.0269012,9.748624802,-1.640669942,-0.424417108,1.839645267,1.009960055,3.209233284,64.749717,-24.6548,-16.972236,19.417043,20.046119,-5.274485
438,537022013,-101.1353912,-79.537323,-178.0384674,9.718050957,-1.651482224,-0.466674119,1.678720474,1.08198297,3.123161554,64.911685,-24.682325,-16.980014,19.445022,20.064152,-5.222432
439,537038680,-101.0991745,-79.52716827,-178.0634613,9.705589294,-1.653570056,-0.449777782,1.504861474,1.247095227,3.045119762,65.073445,-24.709885,-16.98751,19.470103,20.084937,-5.17168
440,537055347,-101.0430145,-79.51909637,-178.107254,9.751161575,-1.640951872,-0.457531542,1.601267695,1.472128391,2.955526114,65.235964,-24.737234,-16.995136,19.496791,20.109472,-5.122421
441,537072014,-100.9573975,-79.51117706,-178.1794128,9.741785049,-1.650909662,-0.447571993,1.687454581,1.779545069,3.006521702,65.398327,-24.764749,-17.002596,19.524915,20.139131,-5.072312
442,537088681,-100.8670044,-79.50395966,-178.2582092,9.705397606,-1.676424265,-0.44289431,1.576244235,1.860020161,2.97824502,65.560084,-24.792689,-17.009978,19.551186,20.170131,-5.022675
443,537105348,-100.7608337,-79.49858093,-178.3531647,9.719878197,-1.670228601,-0.440110564,1.575757623,2.052794218,2.900894642,65.722082,-24.820526,-17.017313,19.577449,20.204344,-4.974327
444,537122015,-100.6490021,-79.49198151,-178.4513702,9.740633965,-1.661446333,-0.433529228,1.719726563,2.075551033,2.978770256,65.884426,-24.848217,-17.024538,19.606111,20.238937,-4.924681
445,537138682,-100.5378647,-79.48296356,-178.5469513,9.700042725,-1.653187037,-0.44447419,1.83062923,2.023364782,3.107575893,66.046093,-24.87577,-17.031946,19.636621,20.27266,-4.872888
446,537155349,-100.4344864,-79.47144318,-178.6316528,9.702701569,-1.618162155,-0.367584318,1.974444628,1.888565302,3.240378141,66.207805,-24.902739,-17.038072,19.669528,20.304136,-4.818882
447,537172016,-100.3386688,-79.45707703,-178.7092285,9.719333649,-1.66109848,-0.357545853,1.981705785,1.771860957,3.380466461,66.369794,-24.930424,-17.044031,19.702556,20.333667,-4.762541
448,537188683,-100.2614822,-79.44136047,-178.7694397,9.741354942,-1.675941944,-0.395954907,1.873184681,1.571864128,3.431563616,66.53215,-24.958356,-17.05063,19.733776,20.359865,-4.705348
449,537205350,-100.1843338,-79.42517853,-178.8283997,9.71968174,-1.656070113,-0.337878019,1.94602716,1.553525329,3.457061291,66.694145,-24.985957,-17.056261,19.76621,20.385757,-4.64773
450,537222017,-100.0952225,-79.40929413,-178.9011078,9.716094971,-1.669232607,-0.404996008,1.864182115,1.703154922,3.460672855,66.85608,-25.013778,-17.063011,19.79728,20.414143,-4.590052
451,537238684,-99.99829865,-79.39252472,-178.9809875,9.71400547,-1.662983298,-0.409734279,1.885722399,1.782439113,3.525984764,67.01798,-25.041494,-17.06984,19.828709,20.44385,-4.531286
452,537255351,-99.89485168,-79.37484741,-179.0626678,9.704063416,-1.6951015,-0.378889114,2.180896044,1.788624525,3.586546898,67.179714,-25.069746,-17.076155,19.865057,20.47366,-4.47151
453,537272018,-99.79332733,-79.3548584,-179.1398621,9.707671165,-1.642183065,-0.376229227,2.371032,1.709020257,3.702738762,67.341509,-25.097116,-17.082425,19.904574,20.502144,-4.409798
454,537288685,-99.70657349,-79.33090973,-179.1999512,9.712400436,-1.682196498,-0.346456796,2.449214458,1.494731545,3.912890434,67.503382,-25.125153,-17.088199,19.945394,20.527056,-4.344583
455,537305352,-99.62826538,-79.30355072,-179.2487488,9.695490837,-1.698393822,-0.338055998,2.567468405,1.355692983,4.087543964,67.664974,-25.15346,-17.093833,19.988185,20.549651,-4.276457
456,537322019,-99.56786346,-79.27129364,-179.2776031,9.709308624,-1.648525,-0.391855389,2.71530509,1.070905566,4.342134476,67.826796,-25.180935,-17.100364,20.03344,20.567499,-4.204088
457,537338686,-99.51579285,-79.23667145,-179.2982788,9.721168518,-1.667934418,-0.365993351,2.561090946,1.001277447,4.478227139,67.988815,-25.208734,-17.106464,20.076125,20.584187,-4.129451
458,537355353,-99.48475647,-79.20030975,-179.3046875,9.691729546,-1.740582943,-0.311138451,2.201411724,0.808746517,4.549097061,68.150344,-25.237744,-17.11165,20.112815,20.597666,-4.053633
459,537372020,-99.4611969,-79.16068268,-179.3064728,9.679252625,-1.719493747,-0.353649557,2.245081425,0.658131182,4.710393906,68.311665,-25.266402,-17.117544,20.150233,20.608635,-3.975126
460,537388687,-99.44149017,-79.12043762,-179.3015289,9.704810143,-1.703978539,-0.349004388,2.203153372,0.637039125,4.754191875,68.473412,-25.294802,-17.123361,20.186952,20.619252,-3.895889
461,537405354,-99.42963409,-79.07756805,-179.2885284,9.676052094,-1.733505368,-0.351584733,2.216164827,0.517466247,4.895868301,68.63468,-25.323694,-17.129221,20.223888,20.627876,-3.814291
462,537422021,-99.42645264,-79.03057861,-179.2649384,9.706753731,-1.736243367,-0.356430143,2.321382046,0.356490403,5.116905689,68.796459,-25.352631,-17.135162,20.262578,20.633818,-3.729009
463,537438688,-99.42107391,-78.98046875,-179.2444305,9.710965157,-1.738611817,-0.330327272,2.502245665,0.286618918,5.283400059,68.958308,-25.381608,-17.140667,20.304282,20.638595,-3.640952
464,537455355,-99.43122101,-78.92649841,-179.2047424,9.679379463,-1.746758342,-0.36063081,2.578404903,0.068936586,5.481387138,69.119631,-25.410721,-17.146678,20.347255,20.639744,-3.549596
465,537472022,-99.44517517,-78.86997986,-179.1498566,9.711892128,-1.749270916,-0.359022409,2.805218697,-0.002106645,5.657142162,69.281496,-25.439876,-17.152662,20.394009,20.639709,-3.45531
466,537488689,-99.47369385,-78.80965424,-179.0887146,9.718515396,-1.785741806,-0.370361567,2.548604727,-0.194291562,5.839619637,69.443471,-25.469638,-17.158835,20.436486,20.636471,-3.357983
467,537505356,-99.49926758,-78.74777222,-179.0283661,9.698659897,-1.793919802,-0.340780765,2.625788689,-0.1904881,5.940559864,69.605115,-25.499537,-17.164515,20.480249,20.633296,-3.258974
468,537522023,-99.51822662,-78.68367004,-178.9790802,9.676811218,-1.798578978,-0.388955295,2.442337513,-0.111959517,6.076664925,69.766395,-25.529513,-17.170998,20.520955,20.63143,-3.157696
469,537538690,-99.5254364,-78.61927795,-178.9311981,9.701385498,-1.777056575,-0.396942168,2.714267492,0.007107525,6.134792328,69.928085,-25.559131,-17.177614,20.566193,20.631548,-3.055449
470,537555357,-99.51533508,-78.55480194,-178.9021149,9.700793266,-1.851274848,-0.383866638,2.986236334,0.113771625,6.142655849,70.089765,-25.589986,-17.184012,20.615964,20.633444,-2.953071
471,537572024,-99.48312378,-78.49045563,-178.9001617,9.699954033,-1.871039629,-0.396631181,3.232169867,0.2745682,6.123473167,70.251431,-25.62117,-17.190623,20.669833,20.63802,-2.851013
472,537588691,-99.43893433,-78.4260788,-178.9010773,9.698347092,-1.836164951,-0.427366823,3.303834438,0.455278695,6.192345619,70.41307,-25.651773,-17.197746,20.724897,20.645608,-2.747807
473,537605358,-99.37995148,-78.36186218,-178.9163208,9.694410324,-1.874104857,-0.392921001,3.485159159,0.591205299,6.189194679,70.574644,-25.683008,-17.204295,20.782983,20.655461,-2.644654
474,537622025,-99.30828857,-78.29615021,-178.9440613,9.664571762,-1.869364142,-0.381465375,3.557476044,0.715247452,6.297049046,70.73572,-25.714164,-17.210653,20.842274,20.667382,-2.539703
475,537638692,-99.23273468,-78.23154449,-178.9703217,9.709854126,-1.871379256,-0.385207891,3.571755171,0.814086914,6.261332035,70.897551,-25.745354,-17.217073,20.901803,20.68095,-2.435347
476,537655359,-99.13858032,-78.16625977,-179.0227509,9.703913689,-1.882562518,-0.395132452,3.294280052,1.081662774,6.343433857,71.059283,-25.77673,-17.223659,20.956708,20.698978,-2.329623
477,537672026,-99.01776886,-78.10015869,-179.1065826,9.697069168,-1.918470502,-0.357476205,3.356467724,1.366770625,6.417377949,71.220901,-25.808705,-17.229617,21.012649,20.721758,-2.222667
478,537688693,-98.87302399,-78.03145599,-179.2054443,9.694648743,-1.875680566,-0.409541368,3.659709692,1.625830293,6.620281696,71.382478,-25.839966,-17.236443,21.073644,20.748855,-2.112329
479,537705360,-98.73252106,-77.95980072,-179.2949524,9.683763504,-1.937914371,-0.397218525,3.957188368,1.497574687,6.78305006,71.543874,-25.872265,-17.243063,21.139597,20.773815,-1.999278
480,537722027,-98.58052063,-77.88062286,-179.3981781,9.6879673,-1.902467251,-0.280284107,3.845286369,1.617365479,7.25415802,71.70534,-25.903973,-17.247734,21.203685,20.800771,-1.878375
481,537738694,-98.47599792,-77.79444885,-179.4554291,9.62046814,-1.934206486,-0.386491507,3.869644165,0.939896584,7.562458038,71.865681,-25.93621,-17.254176,21.268179,20.816436,-1.752334
482,537755361,-98.40118408,-77.70124054,-179.476944,9.64081192,-1.943937778,-0.284998953,4.048945904,0.484682024,7.930230618,72.026361,-25.968609,-17.258926,21.335661,20.824514,-1.620163
483,537772028,-98.36418152,-77.60038757,-179.4603271,9.61538887,-1.984581232,-0.310029477,3.974259138,-0.044341993,8.312653542,72.186617,-26.001685,-17.264093,21.401899,20.823775,-1.481619
484,537788695,-98.3675766,-77.49528503,-179.4021912,9.630321503,-2.012295723,-0.334307909,3.980752468,-0.617836118,8.490560532,72.347122,-26.035223,-17.269665,21.468245,20.813478,-1.34011
485,537805362,-98.41483307,-77.38269806,-179.3001556,9.616584778,-2.022763968,-0.254082292,3.940835238,-1.265607119,8.842352867,72.507398,-26.068936,-17.2739,21.533926,20.792385,-1.192737
486,537822029,-98.51042938,-77.26706696,-179.1480713,9.607601166,-2.047274351,-0.276920706,3.961248398,-1.965436101,8.923069954,72.667525,-26.103057,-17.278515,21.599947,20.759628,-1.044019
487,537838696,-98.65428925,-77.14836884,-178.9443359,9.614430428,-2.086952925,-0.25411585,4.031222343,-2.686062336,8.999472618,72.827766,-26.13784,-17.28275,21.667134,20.71486,-0.894028
488,537855363,-98.83874512,-77.02236938,-178.6953735,9.596879959,-2.064260006,-0.311603665,4.274300098,-3.412336111,9.31744194,72.987714,-26.172244,-17.287943,21.738372,20.657988,-0.738737
489,537872030,-99.06917572,-76.88897705,-178.3959045,9.574007988,-2.059351683,-0.371869951,4.399021149,-4.197711945,9.638650894,73.147281,-26.206567,-17.294141,21.811689,20.588026,-0.578093
490,537888697,-99.3332901,-76.74942017,-178.0580139,9.613099098,-2.134254694,-0.307575375,4.697371006,-4.874131203,9.874289513,73.307499,-26.242138,-17.299267,21.889979,20.50679,-0.413522
491,537905364,-99.61480713,-76.61103058,-177.6989594,9.633895874,-2.182590008,-0.332144469,4.833554745,-5.222950459,9.72606945,73.468064,-26.278515,-17.304803,21.970538,20.419741,-0.251421
492,537922031,-99.92079926,-76.47302246,-177.3302155,9.621707916,-2.177433729,-0.317706734,3.924968719,-5.444014072,9.639753342,73.628426,-26.314806,-17.310098,22.035954,20.329007,-0.090758
493,537938698,-100.2401962,-76.33396912,-176.963089,9.579848289,-2.18119669,-0.442345262,3.02205658,-5.528728008,9.656722069,73.78809,-26.351159,-17.31747,22.086322,20.236862,0.070187
494,537955365,-100.5692673,-76.19159698,-176.5898285,9.566902161,-2.221434116,-0.470560968,2.808638573,-5.752915382,9.788870811,73.947538,-26.388183,-17.325313,22.133133,20.14098,0.233335
495,537972032,-100.8908463,-76.04910278,-176.2173004,9.562213898,-2.239707947,-0.476519167,3.175527811,-5.830919266,9.752142906,74.106908,-26.425511,-17.333255,22.186058,20.043798,0.395871
496,537988699,-101.2134399,-75.90757751,-175.8491669,9.577814102,-2.287084579,-0.479778767,2.847070694,-5.852536678,9.659015656,74.266538,-26.463629,-17.341251,22.233509,19.946256,0.556855
497,538005366,-101.5239258,-75.76724243,-175.499588,9.596146584,-2.29576993,-0.502034843,2.476467133,-5.663348198,9.593266487,74.426474,-26.501892,-17.349618,22.274783,19.851867,0.716743
498,538022033,-101.8170166,-75.62794495,-175.173233,9.615673065,-2.300068855,-0.573350012,2.16691184,-5.402084827,9.551221848,74.586735,-26.540226,-17.359174,22.310898,19.761832,0.87593
499,538038700,-102.0760727,-75.4885788,-174.875824,9.617296219,-2.310689926,-0.611088037,2.50807333,-5.059323311,9.609541893,74.747023,-26.578737,-17.369359,22.352699,19.67751,1.036089
500,538055367,-102.3085709,-75.345047,-174.5997009,9.589738846,-2.307416677,-0.689052105,2.854677677,-4.869315147,9.882766724,74.906852,-26.617194,-17.380843,22.400277,19.596355,1.200802
501,538072034,-102.5202942,-75.19425964,-174.3367767,9.542408943,-2.346561909,-0.677329779,3.322788477,-4.83315134,10.32115364,75.065892,-26.656303,-17.392132,22.455657,19.515802,1.372821
502,538088701,-102.7004089,-75.04183197,-174.0948792,9.593058586,-2.396272659,-0.566477239,3.99130559,-4.603391647,10.45622349,75.225776,-26.696241,-17.401573,22.522179,19.439079,1.547091
503,538105368,-102.8493805,-74.89105225,-173.8833466,9.62852478,-2.434797287,-0.642959476,4.08530426,-4.180717945,10.441329,75.386251,-26.736821,-17.412289,22.590267,19.3694,1.721113
504,538122035,-102.9508438,-74.7410202,-173.7173157,9.589733124,-2.441327333,-0.688063979,4.29731369,-3.524725676,10.53877258,75.54608,-26.77751,-17.423757,22.661889,19.310655,1.896759
505,538138702,-103.0070038,-74.58854675,-173.5892944,9.5569067,-2.453199387,-0.774584651,4.806034088,-3.004390717,10.8026371,75.705362,-26.818397,-17.436667,22.74199,19.260582,2.076803
506,538155369,-103.0214157,-74.43348694,-173.4897766,9.460468292,-2.452968359,-0.770836532,5.656298637,-2.618624449,11.05433083,75.863036,-26.85928,-17.449514,22.836262,19.216938,2.261042
507,538172036,-103.0010452,-74.27464294,-173.3975677,9.503872871,-2.545044661,-0.649902821,7.318039894,-2.566156864,11.29349041,76.021434,-26.901697,-17.460346,22.958229,19.174169,2.449267
508,538188703,-102.9496078,-74.1193924,-173.3167267,9.577933311,-2.632186413,-0.631168842,8.526870728,-2.346451521,11.12187481,76.181066,-26.945567,-17.470865,23.100344,19.135061,2.634632
509,538205370,-102.8765717,-73.9666214,-173.2607422,9.550075531,-2.542210579,-0.639653027,8.377049446,-1.916439652,11.07082844,76.340234,-26.987937,-17.481526,23.239961,19.10312,2.819146
510,538222037,-102.7905197,-73.80937195,-173.2220917,9.392077446,-2.545382738,-0.735051394,8.157214165,-1.691995263,11.39660835,76.496769,-27.03036,-17.493777,23.375915,19.07492,3.009089
511,538238704,-102.7035675,-73.65027618,-173.1621399,9.3904953,-2.720712662,-0.668539405,9.437915802,-2.057155848,11.43036652,76.653277,-27.075705,-17.504919,23.533214,19.040634,3.199595
512,538255371,-102.6090698,-73.49378204,-173.0805359,9.446998596,-2.737452507,-0.645150065,11.14140606,-2.375266314,11.1911211,76.810727,-27.121329,-17.515672,23.718904,19.001046,3.386114
513,538272038,-102.5015793,-73.34423828,-173.0166168,9.48525238,-2.664505482,-0.628833592,10.89042568,-1.986042261,10.85561752,76.968815,-27.165737,-17.526153,23.900411,18.967945,3.567041
514,538288705,-102.3750992,-73.20207214,-172.9718018,9.489775658,-2.768024445,-0.736811221,10.92816544,-1.56176734,10.50041962,77.126978,-27.211871,-17.538433,24.082547,18.941916,3.742048
515,538305372,-102.1925354,-73.06873322,-172.9563751,9.585611343,-2.820841074,-0.752089858,12.61077023,-0.930106759,10.08959484,77.286738,-27.258885,-17.550968,24.292727,18.926414,3.910208
516,538322039,-101.9717865,-72.95283508,-172.980423,9.59687233,-2.835536242,-0.66866976,12.63087559,-0.009188564,9.218762398,77.446686,-27.306144,-17.562112,24.503242,18.926261,4.063854
517,538338706,-101.7327499,-72.85179901,-173.0278015,9.549593925,-2.865496397,-0.58231616,12.39327717,0.607392788,8.433397293,77.605846,-27.353902,-17.571817,24.709797,18.936384,4.204411
518,538355373,-101.5178223,-72.76104736,-173.085556,9.54140377,-2.725568533,-0.417067587,10.34980297,0.940486133,7.866894245,77.764869,-27.399328,-17.578768,24.882294,18.952059,4.335526
519,538372040,-101.3207397,-72.67521667,-173.1541443,9.472325325,-2.793132305,-0.575365484,8.662423134,1.208779097,7.616016388,77.922741,-27.44588,-17.588357,25.026668,18.972205,4.46246
520,538388707,-101.1437225,-72.59369659,-173.2127228,9.480316162,-2.788935423,-0.564535022,8.031915665,1.105265141,7.328205585,78.080746,-27.492362,-17.597766,25.160533,18.990626,4.584597
521,538405374,-100.9811096,-72.51130676,-173.2658691,9.451755524,-2.755296707,-0.563354075,7.482036114,1.018066764,7.360824108,78.238275,-27.538284,-17.607155,25.285234,19.007594,4.707277
522,538422041,-100.8526077,-72.42251587,-173.3047485,9.368709564,-2.78975749,-0.54404676,6.249769688,0.708421886,7.688716888,78.39442,-27.58478,-17.616222,25.389397,19.019401,4.835422
523,538438708,-100.748558,-72.3319397,-173.3346405,9.320097923,-2.853134632,-0.564531922,5.299307823,0.540658653,7.763646603,78.549755,-27.632332,-17.625631,25.477719,19.028412,4.964816
524,538455375,-100.6717377,-72.24121857,-173.3452301,9.284516335,-2.953930616,-0.519871533,4.765320778,0.204146057,7.709219933,78.704497,-27.681564,-17.634296,25.557141,19.031814,5.093303
525,538472042,-100.6229706,-72.15697479,-173.3352814,9.361784935,-2.954408884,-0.551650167,4.255461693,-0.09035521,7.258742809,78.860527,-27.730804,-17.64349,25.628065,19.030308,5.214282
526,538488709,-100.591423,-72.07728577,-173.3192291,9.445267677,-2.889052391,-0.524733841,3.577185869,-0.147087365,6.961136818,79.017948,-27.778955,-17.652236,25.687685,19.027857,5.330301
527,538505376,-100.5668793,-72.00094604,-173.3111572,9.536455154,-2.850600481,-0.557017922,2.694750547,0.033655088,6.796458244,79.176889,-27.826465,-17.66152,25.732598,19.028418,5.443575
528,538522043,-100.5689392,-71.92205048,-173.2950897,9.590021133,-2.795164585,-0.500424206,1.553013563,-0.142284974,6.921845913,79.336723,-27.873051,-17.66986,25.758482,19.026047,5.558939
529,538538710,-100.5824203,-71.8441925,-173.2837067,9.535831451,-2.895032406,-0.562375307,0.60285902,-0.048388802,6.876998425,79.495654,-27.921302,-17.679233,25.76853,19.025241,5.673556
530,538555377,-100.6227188,-71.77152252,-173.2554474,9.431945801,-3.000947475,-0.519691408,-0.045584209,-0.305681229,6.512042999,79.652853,-27.971318,-17.687895,25.76777,19.020146,5.78209
531,538572044,-100.70784,-71.70593262,-173.1888123,9.389065742,-3.033005714,-0.47211951,-0.5505898,-0.944782078,5.958321095,79.809337,-28.021868,-17.695764,25.758594,19.0044,5.881395
532,538588711,-100.8338776,-71.6436615,-173.0968323,9.403800964,-2.934258223,-0.439593732,-1.563828468,-1.390942693,5.668180943,79.966067,-28.070772,-17.703091,25.73253,18.981218,5.975865
533,538605378,-101.014473,-71.57914734,-172.9785156,9.382673264,-2.860341787,-0.521124184,-3.338660717,-1.923635721,5.697763443,80.122445,-28.118444,-17.711776,25.676886,18.949157,6.070828
534,538622045,-101.244278,-71.51216888,-172.826828,9.377988815,-2.992263317,-0.522842705,-4.395863533,-2.596673489,5.710749626,80.278745,-28.168315,-17.72049,25.603622,18.905879,6.166007
535,538638712,-101.5272598,-71.44309998,-172.6336823,9.296812057,-3.015867472,-0.503378451,-5.232758045,-3.423157215,5.659139156,80.433692,-28.218579,-17.72888,25.516409,18.848826,6.260326
536,538655379,-101.8626022,-71.37041473,-172.4130249,9.31423378,-2.975181103,-0.559506297,-6.812077999,-4.017462254,5.737169743,80.588929,-28.268165,-17.738205,25.402874,18.781868,6.355945
537,538672046,-102.2275848,-71.29312897,-172.1953583,9.278642654,-2.965863228,-0.593728185,-8.764509201,-4.057200432,5.98201561,80.743573,-28.317596,-17.7481,25.256799,18.714248,6.455645
538,538688713,-102.6272583,-71.20970917,-171.958252,9.297483444,-3.015383005,-0.648502171,-9.752008438,-4.5470438,6.229203224,80.898531,-28.367852,-17.758908,25.094266,18.638464,6.559465
539,538705380,-103.0658646,-71.12028503,-171.7059326,9.403311729,-2.924460649,-0.613635659,-11.23189926,-4.964006901,6.468901157,81.055253,-28.416593,-17.769135,24.907068,18.555731,6.66728
540,538722047,-103.5611343,-71.02056122,-171.4277649,9.372437477,-2.98661375,-0.658696294,-13.16930008,-5.654975414,6.89867115,81.21146,-28.46637,-17.780113,24.68758,18.461481,6.782258
541,538738714,-104.1107407,-70.90725708,-171.100296,9.308303833,-3.033088684,-0.627843857,-13.64357185,-6.85943985,7.393407345,81.366598,-28.516921,-17.790577,24.460187,18.347157,6.905481
542,538755381,-104.735321,-70.78224182,-170.6916046,9.343899727,-3.142701387,-0.570831239,-13.55191612,-8.676252365,7.584580421,81.52233,-28.569299,-17.800091,24.234322,18.202553,7.031891
543,538772048,-105.4263611,-70.63941193,-170.207077,9.396731377,-3.005354166,-0.631533265,-13.26431465,-10.52227879,8.100269318,81.678942,-28.619388,-17.810617,24.01325,18.027182,7.166895
544,538788715,-106.1972122,-70.46948242,-169.6604156,9.392455101,-2.914281845,-0.662653804,-14.56145096,-12.30912971,9.15920639,81.835483,-28.667959,-17.821661,23.770559,17.82203,7.319548
545,538805382,-107.0379181,-70.27417755,-169.0531921,9.326575279,-3.015313148,-0.759869933,-15.36855221,-14.10808372,10.05772972,81.990926,-28.718214,-17.834325,23.514416,17.586895,7.487177
546,538822049,-107.9371567,-70.05662537,-168.3789063,9.336950302,-3.191069841,-0.705920279,-15.13382626,-16.04708862,10.65061569,82.146542,-28.771398,-17.84609,23.262186,17.319444,7.664687
547,538838716,-108.907692,-69.81776428,-167.641449,9.261884689,-3.085119724,-0.799522758,-15.90587807,-17.96915436,11.12647915,82.300907,-28.822817,-17.859415,22.997088,17.019958,7.850128
548,538855383,-109.9494324,-69.55622864,-166.8606873,9.287470818,-3.01418376,-1.002773285,-17.81306267,-19.60017014,11.71911144,82.455698,-28.873053,-17.876128,22.700204,16.693288,8.045447
549,538872050,-111.0308609,-69.26163483,-166.0563202,9.31354332,-3.012238741,-1.005149603,-18.94087791,-21.13421822,12.94336987,82.610924,-28.923257,-17.89288,22.384523,16.341051,8.26117
550,538888717,-112.1749725,-68.93202209,-165.1751099,9.35209465,-3.255762339,-0.876928687,-18.48878288,-23.87222099,13.77225685,82.766792,-28.97752,-17.907495,22.076377,15.943181,8.490708
551,538905384,-113.4127579,-68.56621552,-164.2070923,9.366042137,-3.124589682,-1.048455477,-19.37101555,-26.96909523,14.41024303,82.922893,-29.029596,-17.924969,21.753527,15.493696,8.730879
552,538922051,-114.8016739,-68.14902496,-163.1587219,9.436869621,-2.911031008,-0.777371645,-24.09744263,-30.46347809,15.70367908,83.080174,-29.078113,-17.937925,21.351903,14.985971,8.992607
553,538938718,-116.2806015,-67.64926147,-162.0692596,9.280612946,-2.919384003,-0.865719199,-27.39936066,-34.19569397,18.78800011,83.234851,-29.126769,-17.952354,20.895247,14.416043,9.30574
554,538955385,-117.9119186,-67.07167816,-160.8326263,9.318799019,-3.320777893,-1.27402854,-28.62385559,-40.29738235,20.17916679,83.390164,-29.182115,-17.973588,20.418183,13.74442,9.642059
555,538972052,-119.671814,-66.41601563,-159.4939117,9.64017868,-3.209870577,-0.89056617,-31.02057076,-45.83521271,21.53917503,83.550834,-29.235613,-17.988431,19.901173,12.9805,10.001045
556,538988719,-121.5703049,-65.66265869,-158.0995026,9.767348289,-3.12087512,-1.032583594,-36.67388153,-51.37348175,23.93078804,83.713623,-29.287628,-18.005641,19.289942,12.124275,10.399891
557,539005386,-123.6406326,-64.80815887,-156.6242828,9.992453575,-3.118147373,-1.394146562,-43.06170654,-57.98705673,25.55321503,83.880164,-29.339597,-18.028877,18.572247,11.157824,10.825778
558,539022053,-125.8669891,-63.83972168,-155.0414734,10.70508194,-3.185132027,-1.565242171,-47.20035934,-66.07271576,26.63121223,84.058582,-29.392683,-18.054964,17.785574,10.056612,11.269632
559,539038720,-128.2059784,-62.74034119,-153.3537598,11.75393963,-2.846184969,-1.232676864,-49.08760834,-75.22268677,27.59360123,84.254481,-29.440119,-18.075509,16.967447,8.802901,11.729525
560,539055387,-130.5591431,-61.48132706,-151.650177,12.85033035,-2.376410007,-1.39119637,-50.04275513,-84.07350922,30.41731834,84.468653,-29.479726,-18.098696,16.133401,7.401676,12.23648
561,539072054,-132.9091644,-60.03841019,-149.9617157,13.87065792,-1.56669414,-1.915278196,-51.79392624,-93.7817688,34.05419159,84.699831,-29.505838,-18.130617,15.270169,5.838647,12.80405
562,539088721,-135.2211609,-58.4019165,-148.3500824,14.77159595,-0.458689779,-2.020891428,-54.82432556,-103.1047516,38.56472778,84.946024,-29.513483,-18.164299,14.35643,4.120234,13.446795
563,539105388,-137.4994659,-56.5538826,-146.8476868,15.67682362,0.771226943,-1.336169124,-59.86205292,-112.9948425,43.92869186,85.207304,-29.500629,-18.186568,13.358729,2.236987,14.17894
564,539122055,-139.4577789,-54.44485092,-145.4813995,15.84245968,0.464006841,-0.123991787,-49.09724045,-124.8878784,51.66550064,85.471345,-29.492896,-18.188635,12.540442,0.155522,15.040032
565,539138722,-140.8856812,-52.10456848,-144.3240662,14.55328465,0.161389932,0.115837783,-29.16259003,-133.8798065,60.65077591,85.7139,-29.490206,-18.186704,12.054399,-2.075808,16.050878
566,539155389,-141.9715576,-49.6207695,-143.1683197,13.43110275,-0.773941934,-0.928290844,-10.49805641,-143.3369446,61.34926605,85.937752,-29.503105,-18.202176,11.879431,-4.464757,17.073366
567,539172056,-142.8115845,-47.04798889,-142.0004578,12.00370598,-5.1704669,-2.752146244,2.829721928,-150.3182373,59.98910141,86.137814,-29.589279,-18.248045,11.926593,-6.970061,18.073184
568,539188723,-143.3115082,-44.43492126,-141.0162048,11.30948353,-9.57914257,-5.065363884,13.18841457,-149.7403412,63.95786667,86.326305,-29.748931,-18.332468,12.1464,-9.465733,19.139148
569,539205390,-143.3576965,-42.08005524,-140.0556335,10.34935284,-9.329092026,-3.810550928,37.60229111,-138.0973663,53.33177948,86.498794,-29.904416,-18.395977,12.773105,-11.767356,20.028011
570,539222057,-143.1979675,-40.03890991,-138.9946136,9.149206161,-4.613285065,-2.425376177,52.26774216,-126.6119003,37.33190536,86.651281,-29.981304,-18.4364,13.644234,-13.877554,20.650209
571,539238724,-143.6522369,-38.74625397,-138.0844574,8.349543571,0.542759418,2.772092342,8.269828796,-87.22749329,14.90193653,86.79044,-29.972258,-18.390198,13.782064,-15.331346,20.898575
572,539255391,-145.0493927,-38.10839462,-137.3306885,7.582677841,0.794462383,3.580368042,-54.84283829,-51.63254547,-3.888041258,86.916818,-29.959017,-18.330525,12.868017,-16.191888,20.833774
573,539272058,-146.4602051,-38.26319122,-136.6637573,6.176738739,-0.519872129,4.544076443,-59.02821732,-10.00047398,-28.62443542,87.019764,-29.967682,-18.25479,11.884213,-16.358563,20.3567
574,539288725,-147.5392151,-38.96936798,-135.8901825,4.921323776,-1.081820369,1.765012383,-34.8895874,15.71215534,-50.90903473,87.101786,-29.985712,-18.225373,11.30272,-16.096694,19.508216
575,539305392,-148.4196472,-40.196064,-134.8579254,4.706263542,-1.156258821,0.730527997,-12.46452236,36.96778107,-76.92577362,87.180224,-30.004983,-18.213198,11.094978,-15.480564,18.22612
576,539322059,-149.0438385,-41.88798141,-133.6790619,5.265802383,-1.751741529,0.500579119,9.902639389,58.91456223,-95.72034454,87.267987,-30.034179,-18.204855,11.260022,-14.498655,16.630781
577,539338726,-149.3653564,-44.01683044,-132.4685364,6.375805855,-2.34462285,0.547628164,31.13231277,82.2999115,-108.4956589,87.37425,-30.073256,-18.195728,11.778894,-13.12699,14.82252
578,539355393,-149.3856506,-46.6136322,-131.2134552,7.005723476,-2.879469633,1.037709713,53.28063965,106.8518295,-122.376709,87.491012,-30.121247,-18.178433,12.666905,-11.346126,12.782908
579,539372060,-149.1199036,-49.64225769,-129.9709625,7.358337879,-3.449563026,1.228237748,72.43135834,130.4378662,-133.1010132,87.613651,-30.17874,-18.157962,13.874094,-9.172162,10.564558
580,539388727,-148.593277,-53.07141876,-128.8244629,8.101226807,-4.25298214,0.915025115,86.3285141,153.5385284,-140.6088104,87.748671,-30.249623,-18.142712,15.312903,-6.613187,8.221078
581,539405394,-147.8087311,-56.86470032,-127.8826141,9.026194572,-4.375542641,0.598888993,94.37639618,175.9614563,-144.9313354,87.899108,-30.322549,-18.132731,16.885843,-3.680496,5.805556
582,539422061,-146.7548218,-60.96225357,-127.3017654,10.48301601,-4.299417019,0.158028066,94.13921356,196.7071686,-145.4497986,88.073825,-30.394206,-18.130097,18.45483,-0.402043,3.381393
583,539438728,-145.2570496,-65.31854248,-127.3030319,11.81849098,-4.535018921,-0.294860303,90.86850739,216.2857971,-143.5100708,88.2708,-30.46979,-18.135011,19.969305,3.20272,0.989558
584,539455395,-142.9339294,-69.87757874,-128.1999664,12.81561184,-5.013504028,-0.769729376,90.70020294,233.1329956,-141.174057,88.484394,-30.553348,-18.14784,21.480975,7.08827,-1.363343
585,539472062,-138.9569397,-74.57215118,-130.7373962,13.9550457,-5.846311092,-1.207939148,94.64745331,247.5050201,-138.6835327,88.716978,-30.650787,-18.167972,23.058433,11.213354,-3.674735
586,539488729,-131.1045532,-79.30400848,-137.0244446,15.0851965,-6.597774506,-1.162820816,104.5032578,260.3536377,-137.3827667,88.968398,-30.76075,-18.187352,24.800154,15.552581,-5.964448
587,539505396,-111.3216476,-83.61843872,-155.1111145,16.31167793,-7.343198776,-1.640605688,114.0278549,269.344635,-132.7939453,89.240259,-30.883137,-18.214695,26.700618,20.041658,-8.17768
588,539522063,-59.02056503,-85.45576477,154.3380737,16.90452766,-7.160725117,-3.963192463,117.9257736,269.7975769,-120.1885757,89.522001,-31.002482,-18.280748,28.666048,24.538284,-10.180823
589,539538730,-16.02293968,-83.07281494,112.3695755,15.86405659,-5.093126297,-5.508213043,73.98839569,255.5097046,-111.194191,89.786402,-31.087367,-18.372552,29.899188,28.796779,-12.03406
590,539555397,-1.854685426,-79.33827972,98.59779358,14.32792377,-7.895215988,-8.055892944,34.18084717,239.1512299,-87.25643158,90.025201,-31.218954,-18.506817,30.468869,32.782633,-13.488334
591,539572064,3.805376768,-75.86867523,93.08050537,11.98990059,-9.374899864,-10.58292103,17.27994156,206.6305695,-71.92848969,90.225033,-31.375202,-18.683199,30.756868,36.226476,-14.687142
592,539588731,6.642629147,-73.16426086,90.75232697,9.441840172,-11.99892139,-13.26313591,36.66733551,158.2555084,-49.34216309,90.382397,-31.575184,-18.904251,31.36799,38.864068,-15.509511
593,539605398,7.734297752,-71.73654938,90.46204376,5.344411373,-10.1102457,-14.28227901,49.92961121,84.60797119,-13.48335743,90.471471,-31.743688,-19.142289,32.20015,40.274201,-15.734234
594,539622065,7.021176338,-71.78303528,91.81197357,5.204240322,-8.407096863,-12.25705719,35.11127853,0.938955426,27.83373451,90.558208,-31.883806,-19.346573,32.785338,40.28985,-15.270338
595,539638732,5.183094978,-72.94251251,94.55406189,5.941047192,-8.430150032,-13.36906815,47.4320755,-63.25645065,59.19260025,90.657225,-32.024309,-19.569391,33.575873,39.235576,-14.283795
596,539655399,3.933051825,-74.98271942,97.03770447,11.31171703,3.555723906,-7.400938988,69.07764435,-117.9668884,52.90009308,90.845754,-31.965047,-19.69274,34.727167,37.269461,-13.402127
597,539672066,3.756752729,-75.70821381,99.27386475,19.35635567,17.30852509,18.97714806,119.9716187,-40.28215027,38.9359169,91.16836,-31.676572,-19.376454,36.726694,36.598092,-12.753195
598,539688733,0.98001039,-77.11975098,101.8834457,11.84703255,5.813467503,-1.444970131,-13.61504936,-82.35781097,42.57164383,91.365811,-31.579681,-19.400537,36.499777,35.225462,-12.043668
599,539705400,-5.214265823,-78.82897186,107.707489,12.09243298,-7.478596687,-13.39705181,-29.10113525,-104.2755127,71.3194809,91.567352,-31.704324,-19.623821,36.014758,33.487537,-10.85501
600,539722067,-16.52636337,-79.93540192,119.0159683,17.02895737,-11.77396297,0.782860875,-11.09028435,-87.48331451,112.420784,91.851168,-31.900557,-19.610773,35.82992,32.029482,-8.98133
601,539738734,-26.79256058,-80.93495178,130.0662384,12.00827885,-3.146927595,0.57384634,38.5788269,-95.11174774,82.39363098,92.051306,-31.953006,-19.601209,36.4729,30.444286,-7.608103
602,539755401,-34.53981781,-81.63783264,138.3533325,6.820130825,-3.353709221,1.462426066,27.35596275,-73.57789612,45.45488358,92.164975,-32.008901,-19.576835,36.928833,29.217988,-6.850522
603,539772068,-41.68259048,-82.13713074,145.762085,6.024320602,-1.43351233,1.013759255,12.21622944,-61.23243332,33.01356506,92.26538,-32.032793,-19.559939,37.132437,28.197447,-6.300296
604,539788735,-48.55593872,-82.37504578,152.4732208,9.736370087,1.058784366,-1.360981226,-12.69484711,-47.50035477,30.30541992,92.427653,-32.015147,-19.582622,36.920856,27.405774,-5.795206
605,539805402,-54.44608307,-82.17416382,158.140686,11.87753582,0.447603732,-2.204283237,-15.76250267,-27.26386452,40.02453995,92.625612,-32.007687,-19.61936,36.658148,26.951376,-5.12813
606,539822069,-60.17486954,-81.79250336,163.7891998,11.14581013,-1.328129768,-0.628568828,-7.460820675,-26.37380791,46.93909454,92.811376,-32.029822,-19.629836,36.533801,26.511813,-4.345812
607,539838736,-65.93310547,-81.45188141,169.9361877,10.24530792,-2.701745987,0.213340372,20.0442543,-37.57261276,44.71722031,92.982131,-32.074851,-19.62628,36.867872,25.885603,-3.600525
608,539855403,-71.08715057,-81.18842316,175.6082153,9.524079323,-1.639722109,1.44845891,27.84856415,-40.9258194,35.65730286,93.140866,-32.10218,-19.602139,37.332015,25.203506,-3.006237
609,539872070,-76.35819244,-80.90428925,-179.002533,9.164189339,-0.855752468,2.012331009,3.820749283,-42.46482086,32.61727142,93.293602,-32.116443,-19.5686,37.395694,24.495759,-2.462616
610,539888737,-81.4422226,-80.55427551,-174.1832581,9.834521294,-1.408122897,0.907985747,-18.97595215,-40.62855911,31.7252388,93.457511,-32.139912,-19.553467,37.079428,23.818616,-1.933862
611,539905404,-86.00279999,-80.18739319,-169.937088,10.22179604,-2.004688025,-0.248970807,-21.7726841,-38.92095184,28.70634651,93.627874,-32.173323,-19.557617,36.71655,23.169933,-1.455423
612,539922071,-90.15815735,-79.81852722,-165.9711151,10.2978754,-1.922866464,-0.810965061,-14.2847271,-39.51055908,25.66314507,93.799505,-32.205371,-19.571133,36.478471,22.511424,-1.027704
613,539938738,-93.8237381,-79.44322205,-162.425705,9.984161377,-1.810284972,-0.74469161,-10.00413227,-38.00305176,23.34531593,93.965908,-32.235542,-19.583545,36.311735,21.87804,-0.638615
614,539955405,-96.90823364,-79.07632446,-159.5096741,9.618140221,-1.724399686,-0.719971716,-12.49687576,-33.47276688,21.04787445,94.12621,-32.264282,-19.595545,36.103454,21.320161,-0.287817
615,539972072,-99.46738434,-78.73306274,-157.172699,9.626068115,-1.770676732,-0.817995191,-15.27169228,-28.58855438,18.72469139,94.286644,-32.293793,-19.609178,35.848926,20.843685,0.024261
616,539988739,-101.6435699,-78.40932465,-155.2128754,9.679546356,-2.014061451,-0.887762547,-14.63910675,-25.40758896,17.01481628,94.44797,-32.327361,-19.623974,35.604941,20.420225,0.307841
617,540005406,-103.5630417,-78.10297394,-153.436203,9.584529877,-2.195236444,-0.87700057,-10.13032246,-24.12487984,15.39749527,94.607712,-32.363948,-19.638591,35.436102,20.018144,0.564466
618,540022073,-105.1976013,-77.80802917,-151.8371429,9.595208168,-2.10739851,-1.011882782,-3.566609621,-22.72315216,14.35978317,94.767632,-32.399071,-19.655456,35.376659,19.639425,0.803796
619,540038740,-106.5744095,-77.51692963,-150.4546204,9.756797791,-1.806332231,-0.95957315,-0.902510285,-20.75906754,14.1405592,94.930245,-32.429177,-19.671449,35.361617,19.293441,1.039472
620,540055407,-107.6268692,-77.26247406,-149.4667664,10.16128349,-1.131150246,-0.499362588,-4.636066437,-15.78679085,12.98496914,95.0996,-32.44803,-19.679772,35.284349,19.030328,1.255888
621,540072074,-108.5177307,-77.39794922,-150.2014008,8.630111694,2.050167799,2.151546001,-95.78570557,12.77468872,-2.513949871,95.243435,-32.413861,-19.643913,33.687921,19.243239,1.213989
622,540088741,-109.7122498,-77.17787933,-148.6907959,11.15572643,-8.635838509,-6.907679081,17.42503738,-22.14331627,8.192144394,95.429364,-32.557792,-19.759041,33.978338,18.874184,1.350525
623,540105408,-110.133812,-76.83205414,-147.8330231,9.282348633,-2.634805202,0.35337919,25.5124836,-16.85790825,17.76058769,95.58407,-32.601705,-19.753151,34.403546,18.593219,1.646535
624,540122075,-110.8923111,-76.70120239,-147.084137,9.738512039,0.024048101,0.106003918,-1.099829078,-11.31271935,5.938115597,95.746379,-32.601304,-19.751384,34.385216,18.404674,1.745504
625,540138742,-111.292923,-76.56573486,-146.7874451,10.07148647,-1.796070814,-0.778448999,-6.041955471,-5.708861828,8.309877396,95.914237,-32.631239,-19.764358,34.284517,18.309526,1.884002
626,540155409,-111.9538193,-76.39328766,-146.3490753,9.820260048,-2.200265884,-0.54350394,-13.40476036,-8.482827187,9.565662384,96.077908,-32.66791,-19.773416,34.061104,18.168146,2.04343
627,540172076,-112.8746033,-76.20230103,-145.6396332,9.492594719,-2.312868357,-0.485237062,-13.21159458,-12.65500546,8.963370323,96.236118,-32.706458,-19.781503,33.840911,17.957229,2.19282
628,540188743,-114.14608,-75.96730804,-144.5839386,9.238949776,-2.061935186,-0.297135502,-14.11098099,-18.56697273,9.059167862,96.3901,-32.740824,-19.786455,33.605728,17.647779,2.343806
629,540205410,-115.8266754,-75.65492249,-143.1524811,9.197413445,-2.024659634,-0.273612022,-16.86978531,-25.98877144,10.30515385,96.54339,-32.774568,-19.791015,33.324565,17.214633,2.515559
630,540222077,-117.8505325,-75.24894714,-141.3978729,9.232819557,-1.991307735,-0.338723361,-18.82318115,-33.59638596,12.00508595,96.69727,-32.807756,-19.79666,33.010845,16.654693,2.715644
631,540238744,-120.1182251,-74.74958801,-139.4024811,9.333932877,-2.088596344,-0.717360198,-19.70093727,-40.64203262,13.40009403,96.852836,-32.842566,-19.808616,32.682496,15.977326,2.938979
632,540255411,-122.4718246,-74.17089081,-137.2872925,9.527083397,-2.059443951,-1.00954926,-18.22452164,-46.11844254,14.21943188,97.011621,-32.87689,-19.825442,32.378754,15.208685,3.17597
633,540272078,-124.83638,-73.52599335,-135.1546936,9.668109894,-2.141286135,-1.219420314,-18.24297523,-50.11221313,14.6937027,97.172756,-32.912578,-19.845766,32.074704,14.373481,3.420865
634,540288745,-127.1505051,-72.82784271,-133.0699615,9.698770523,-2.125989914,-1.478317022,-18.37851524,-52.95333099,14.824193,97.334402,-32.948011,-19.870405,31.768395,13.490925,3.667935
635,540305412,-129.4514618,-72.08625793,-131.0362854,9.723972321,-1.885721684,-1.948848605,-20.97669983,-55.49745941,14.33793354,97.496468,-32.97944,-19.902886,31.418783,12.565967,3.906901
636,540322079,-131.6859894,-71.30695343,-129.0695496,9.643529892,-2.022771597,-2.147228479,-21.29887581,-57.62212753,13.63489246,97.657193,-33.013153,-19.938673,31.063802,11.605598,4.134149
637,540338746,-133.8753357,-70.49581146,-127.1383438,9.627913475,-2.207998753,-2.160444021,-21.12074089,-59.94956207,12.19169617,97.817658,-33.049953,-19.97468,30.71179,10.606439,4.337344
638,540355413,-135.9606476,-69.67133331,-125.2754211,9.797798157,-2.257822752,-2.369175911,-19.2800312,-60.9642334,10.36462593,97.980955,-33.087583,-20.014166,30.390456,9.590368,4.510088
639,540372080,-138.0072937,-68.8398819,-123.4198837,10.02470207,-2.066012144,-2.773085833,-17.93330383,-62.45861816,7.426451206,98.148033,-33.122017,-20.060384,30.091568,8.549391,4.633862
640,540388747,-140.0166473,-67.99733734,-121.5851517,10.26497746,-2.070826292,-2.756083727,-17.43806648,-63.8008461,4.819642067,98.319116,-33.156531,-20.106319,29.800934,7.486044,4.714189
641,540405414,-142.0278931,-67.12389374,-119.7204971,10.81128502,-2.130865812,-2.64286375,-16.51234055,-66.69509125,1.997542262,98.499304,-33.192045,-20.150367,29.525728,6.374459,4.747481
642,540422081,-143.9981689,-66.20613098,-117.8924713,11.50064659,-2.149503946,-2.173107862,-16.74305725,-69.22734833,0.658860087,98.690981,-33.22787,-20.186585,29.246677,5.22067,4.758462
643,540438748,-145.8973541,-65.22360229,-116.177803,11.8143549,-1.510659218,-2.29001689,-19.40178871,-71.68353271,1.451397538,98.887887,-33.253048,-20.224752,28.923314,4.025944,4.782652
644,540455415,-147.7466583,-64.16952515,-114.5882111,12.46668625,-0.726373136,-2.380666256,-23.94984436,-74.38355255,2.724584103,99.095665,-33.265154,-20.26443,28.52415,2.786218,4.828062
645,540472082,-149.4758759,-63.0475769,-113.1333542,13.40726566,-0.596468985,-2.130564451,-24.76498985,-76.83864594,4.179851532,99.319119,-33.275095,-20.299939,28.1114,1.505574,4.897726
