PacketCounter,SampleTimeFine,Euler_X,Euler_Y,Euler_Z,Acc_X,Acc_Y,Acc_Z,Gyr_X,Gyr_Y,Gyr_Z,Velo_X,Velo_Y,Velo_Z,ANG_X,ANG_Y,ANG_Z
0,524357486,59.42868423,-14.92190742,110.9176788,0.0,0.0,0.0,0.0,0.0,0.0,0.0,0.0,0.0,0.0,0.0,0.0
1,524374153,59.24161911,-15.08056068,110.9558945,2.614343882,7.919697285,5.019723892,3.187455654,-3.774620056,-0.067745589,0.043572,0.131995,0.083662,0.053124,-0.06291,-0.001129
2,524390820,59.0303421,-15.23428154,111.027359,2.597498655,7.918039322,4.99844408,6.002189636,-3.108460188,0.179807574,0.086864,0.263962,0.166969,0.15316,-0.114718,0.001868
3,524407487,58.89637375,-15.34078598,111.1310043,2.593803167,8.074113846,5.010599613,7.009845734,-2.562026262,0.140338421,0.130094,0.398531,0.250479,0.269991,-0.157418,0.004207
4,524424154,58.86345291,-15.40251541,111.2073669,2.566791058,8.12663269,4.983095169,7.605916977,-2.774739265,0.157806262,0.172874,0.533975,0.333531,0.396756,-0.203664,0.006837
5,524440821,58.88891602,-15.43401623,111.2677765,2.590693235,8.258159637,4.879825115,7.090460777,-3.13181901,0.11046119,0.216052,0.671611,0.414861,0.51493,-0.255861,0.008678
6,524457488,58.95970154,-15.45395756,111.2964249,2.597318172,8.196558952,4.85270977,5.775299072,-3.142114878,0.18010211,0.259341,0.80822,0.495739,0.611185,-0.30823,0.01168
7,524474155,59.04889297,-15.46846581,111.3138428,2.65954113,8.183233261,4.83417654,5.2434268,-2.922832012,0.03786198,0.303667,0.944607,0.576309,0.698575,-0.356944,0.012311
8,524490822,59.1235733,-15.48195457,111.3259659,2.662659645,8.16494751,4.963045597,3.7859478,-2.049797535,-0.056463201,0.348045,1.080689,0.659026,0.761674,-0.391107,0.01137
9,524507489,59.1844368,-15.49794006,111.3437881,2.621040106,8.099251747,4.98367548,3.5772686,-1.595620155,0.194598928,0.391729,1.215677,0.742087,0.821295,-0.417701,0.014613
10,524524156,59.24849701,-15.51107502,111.3582382,2.593700171,8.107578278,4.919505119,4.424075603,-1.304672599,0.238281399,0.434957,1.350803,0.824079,0.89503,-0.439446,0.018584
11,524540823,59.31651306,-15.5209446,111.3846359,2.577991247,8.138663292,4.856246471,4.787967205,-1.170052171,0.241534173,0.477924,1.486447,0.905016,0.974829,-0.458947,0.02261
12,524557490,59.38898849,-15.52953148,111.3926086,2.54322052,8.125332832,4.804312706,4.840486526,-1.273347974,0.238896027,0.520311,1.621869,0.985088,1.055504,-0.480169,0.026592
13,524574157,59.48121643,-15.54575348,111.3827515,2.534397364,8.177688599,4.856763363,5.654688835,-2.052537918,0.484163344,0.562551,1.758164,1.066034,1.149749,-0.514378,0.034661
14,524590824,59.59391403,-15.57863331,111.33815,2.540888071,8.168192863,4.836129665,6.417064667,-3.888700008,0.757117927,0.604899,1.894301,1.146636,1.2567,-0.57919,0.04728
15,524607491,59.68901825,-15.60468102,111.2900848,2.636623621,8.169535637,4.699951172,5.227097511,-4.013984203,0.31049639,0.648843,2.03046,1.224969,1.343818,-0.64609,0.052455
16,524624158,59.75072098,-15.62498379,111.2552872,2.655021191,8.123118401,4.80654192,3.082456827,-3.435534239,0.064908996,0.693093,2.165845,1.305078,1.395192,-0.703349,0.053537
17,524640825,59.80915451,-15.64120007,111.2266922,2.667625666,8.111844063,4.900559902,3.139047384,-2.646764994,0.082146324,0.737553,2.301042,1.386754,1.447509,-0.747462,0.054906
18,524657492,59.86585617,-15.65142345,111.2118835,2.653700829,8.220233917,4.899451256,3.409492493,-1.882316113,-0.005814083,0.781781,2.438046,1.468412,1.504334,-0.778834,0.054809
19,524674159,59.91901779,-15.65606594,111.2081146,2.625417233,8.205833435,4.83010149,3.384724855,-1.350122213,-0.108879596,0.825538,2.57481,1.548914,1.560746,-0.801336,0.052994
20,524690826,59.96948624,-15.65700722,111.1956329,2.608823299,8.18554306,4.841536045,3.279123783,-1.040528774,-0.181222662,0.869018,2.711236,1.629606,1.615398,-0.818678,0.049974
21,524707493,60.01662064,-15.66175556,111.1793976,2.60035181,8.162513733,4.79349947,3.090690613,-1.206729293,0.001684035,0.912357,2.847278,1.709498,1.66691,-0.83879,0.050002
22,524724160,60.06121445,-15.66673851,111.1837158,2.601351261,8.132189751,4.797661304,2.969414473,-1.086477876,0.095234416,0.955713,2.982814,1.789459,1.7164,-0.856898,0.051589
23,524740827,60.11759186,-15.67634678,111.1775665,2.591319323,8.107552528,4.822021484,3.733941555,-1.09705615,0.404533446,0.998902,3.11794,1.869826,1.778632,-0.875182,0.058331
24,524757494,60.17731476,-15.68192005,111.1745148,2.61211586,8.149284363,4.784161091,4.089522362,-0.643147647,0.387961954,1.042437,3.253761,1.949562,1.846791,-0.885901,0.064797
25,524774161,60.24700165,-15.69038963,111.1762848,2.587257862,8.132043839,4.846695423,4.767028809,-0.46775189,0.675925493,1.085558,3.389295,2.03034,1.926241,-0.893697,0.076062
26,524790828,60.33938217,-15.70219898,111.1809616,2.582239151,8.134133339,4.823797226,6.222343922,-0.435377568,0.936432481,1.128595,3.524864,2.110737,2.029947,-0.900953,0.091669
27,524807495,60.44126511,-15.71195412,111.1871872,2.553711653,8.210272789,4.755666256,6.865774632,-0.256472856,0.91115278,1.171157,3.661702,2.189998,2.144377,-0.905228,0.106855
28,524824162,60.54350662,-15.72568607,111.1893387,2.547547817,8.211860657,4.697278976,6.799103737,-0.565438867,1.044082761,1.213616,3.798566,2.268286,2.257695,-0.914652,0.124256
29,524840829,60.62624359,-15.73815632,111.1934357,2.566501617,8.256464005,4.687456608,5.514484882,-0.746943176,0.883631647,1.256391,3.936174,2.34641,2.349603,-0.927101,0.138983
30,524857496,60.68976974,-15.74785805,111.1918259,2.586490631,8.26473999,4.749018192,4.309727192,-0.673690796,0.749254704,1.299499,4.07392,2.42556,2.421432,-0.938329,0.151471
31,524874163,60.74952698,-15.75451279,111.1896973,2.596404076,8.281172752,4.743414879,4.040370941,-0.688738286,0.540831327,1.342772,4.21194,2.504617,2.488772,-0.949808,0.160485
32,524890830,60.79780197,-15.76013756,111.1900635,2.616037846,8.30257225,4.775671482,3.372353554,-0.5602265,0.54489094,1.386373,4.350316,2.584212,2.544978,-0.959145,0.169567
33,524907497,60.83708191,-15.76547909,111.1875763,2.616879225,8.266607285,4.761688709,2.839456081,-0.530413449,0.539128125,1.429988,4.488093,2.663573,2.592302,-0.967985,0.178552
34,524924164,60.87503815,-15.77516937,111.185585,2.583290577,8.202033997,4.750184536,2.74032855,-0.731140077,0.717027545,1.473043,4.624794,2.742743,2.637974,-0.980171,0.190502
35,524940831,60.92353821,-15.79014206,111.1778793,2.586064816,8.140815735,4.691371441,3.340664625,-1.028023481,0.913643479,1.516144,4.760474,2.820933,2.693652,-0.997305,0.205729
36,524957498,60.97200012,-15.80755806,111.1666183,2.61271596,8.142877579,4.719555378,3.37789917,-0.994336307,1.088687181,1.559689,4.896189,2.899592,2.74995,-1.013877,0.223874
37,524974165,61.02246094,-15.82765198,111.1616058,2.593474865,8.220558167,4.720353603,3.569149494,-0.88651973,1.315141916,1.602914,5.033198,2.978265,2.809436,-1.028652,0.245793
38,524990832,61.07497025,-15.84818077,111.1557236,2.585236788,8.228574753,4.716471195,3.701618433,-0.875224411,1.349475622,1.646001,5.170341,3.056873,2.87113,-1.043239,0.268284
39,525007499,61.12601471,-15.86577511,111.1521988,2.596620321,8.288386345,4.652796745,3.648407459,-0.695679426,1.250341654,1.689278,5.308481,3.13442,2.931937,-1.054834,0.289123
40,525024166,61.161129,-15.87730122,111.1538544,2.607248783,8.263809204,4.689374924,2.77299118,-0.19089143,1.11332655,1.732732,5.446211,3.212576,2.978154,-1.058016,0.307678
41,525040833,61.19698715,-15.88732052,111.1604691,2.602607727,8.185096741,4.727020264,2.835076332,-0.079066403,1.069464684,1.776109,5.582629,3.29136,3.025405,-1.059334,0.325502
42,525057500,61.23696899,-15.89817429,111.1636887,2.589112997,8.237260818,4.729066372,3.06756258,-0.198856995,1.05613327,1.819261,5.719917,3.370178,3.076531,-1.062648,0.343104
43,525074167,61.27157211,-15.91047192,111.1681595,2.583161831,8.273222923,4.682525635,2.707224131,-0.380777627,1.059520602,1.862314,5.857804,3.44822,3.121651,-1.068994,0.360763
44,525090834,61.29882431,-15.92301559,111.159584,2.581115007,8.271889687,4.656578541,2.195604086,-0.592011929,0.965502739,1.905333,5.995669,3.52583,3.158244,-1.078861,0.376855
45,525107501,61.32590103,-15.93411732,111.146492,2.594637871,8.256955147,4.670736313,2.158427,-0.597954094,0.8685202,1.948577,6.133285,3.603676,3.194218,-1.088827,0.39133
46,525124168,61.34959412,-15.94730663,111.1393967,2.60861969,8.170953751,4.679024696,1.950324059,-0.673165798,0.970689297,1.992054,6.269468,3.68166,3.226723,-1.100046,0.407508
47,525140835,61.37422943,-15.95624733,111.1386185,2.60461998,8.194636345,4.730670929,2.128498793,-0.194951072,0.937559366,2.035464,6.406045,3.760505,3.262198,-1.103295,0.423134
48,525157502,61.40376282,-15.96891403,111.1406479,2.599859953,8.241184235,4.74385643,2.416820526,-0.365185827,1.092490435,2.078795,6.543398,3.839569,3.302478,-1.109381,0.441342
49,525174169,61.42951202,-15.98478794,111.1447601,2.572532415,8.291249275,4.734790325,2.202999353,-0.455208093,1.269890308,2.121671,6.681585,3.918482,3.339195,-1.116968,0.462507
50,525190836,61.44890594,-16.00289726,111.1309662,2.589129925,8.269594193,4.692124367,1.761884928,-0.723923743,1.282338262,2.164823,6.819412,3.996684,3.36856,-1.129033,0.483879
51,525207503,61.4618187,-16.0229702,111.1065674,2.560704708,8.234065056,4.761677742,1.375043511,-0.78503567,1.384776354,2.207501,6.956646,4.076045,3.391477,-1.142117,0.506959
52,525224170,61.48244095,-16.04661751,111.0936356,2.575330019,8.19319725,4.715197563,1.782426119,-1.103849769,1.470668316,2.250423,7.093199,4.154632,3.421184,-1.160514,0.53147
53,525240837,61.50952148,-16.07187653,111.0813751,2.57383585,8.194771767,4.710033894,2.221754313,-1.025519729,1.623608112,2.29332,7.229779,4.233133,3.458213,-1.177606,0.55853
54,525257504,61.54152679,-16.0978775,111.069252,2.583196402,8.208945274,4.678971291,2.536732912,-1.012585282,1.688184142,2.336373,7.366595,4.311116,3.500492,-1.194482,0.586666
55,525274171,61.57030487,-16.12080002,111.0626602,2.601480722,8.222318649,4.677720547,2.338810682,-0.954924583,1.510931611,2.379731,7.503634,4.389078,3.539472,-1.210397,0.611848
56,525290838,61.59437943,-16.14527702,111.0466614,2.603368521,8.218553543,4.699832916,2.015040636,-1.132606387,1.52313602,2.42312,7.64061,4.467409,3.573056,-1.229274,0.637234
57,525307505,61.6195755,-16.16940689,111.02388,2.614500761,8.208362579,4.736440182,2.046986103,-1.250386357,1.435444474,2.466695,7.777416,4.54635,3.607172,-1.250114,0.661158
58,525324172,61.64740372,-16.19439316,110.9973907,2.631738663,8.224309921,4.668895245,2.161052465,-1.446029067,1.389405847,2.510557,7.914488,4.624165,3.64319,-1.274214,0.684315
59,525340839,61.67040634,-16.21611595,110.9794846,2.65981245,8.238829613,4.692571163,1.921586394,-1.210840344,1.293934345,2.554887,8.051802,4.702375,3.675216,-1.294395,0.705881
60,525357506,61.69865036,-16.23768997,110.9577026,2.654471636,8.252678871,4.713615417,2.199657202,-1.323145628,1.218396187,2.599128,8.189347,4.780935,3.711877,-1.316447,0.726188
61,525374173,61.72441864,-16.25721931,110.9407043,2.659867764,8.248960495,4.677717209,2.064293861,-1.246077061,1.120133042,2.643459,8.32683,4.858897,3.746282,-1.337215,0.744857
62,525390840,61.7522583,-16.27379608,110.920639,2.649696112,8.187601089,4.680931568,2.18357873,-1.190350175,0.943565488,2.687621,8.46329,4.936913,3.782675,-1.357054,0.760583
63,525407507,61.77275085,-16.29207802,110.8906326,2.66020155,8.240773201,4.688218594,1.688241959,-1.425679684,0.929760277,2.731958,8.600636,5.01505,3.810812,-1.380815,0.776079
64,525424174,61.78977966,-16.31356049,110.8624191,2.625663996,8.22759819,4.705634117,1.447514534,-1.626233578,1.043346167,2.775719,8.737763,5.093477,3.834937,-1.407919,0.793468
65,525440841,61.80350876,-16.33572006,110.8333435,2.607853889,8.214009285,4.684385777,1.219081283,-1.767570853,1.017035604,2.819183,8.874663,5.17155,3.855255,-1.437379,0.810419
66,525457508,61.8146553,-16.35536575,110.8015823,2.615218878,8.225664139,4.66365242,1.0434165,-1.777316451,0.843637526,2.86277,9.011757,5.249278,3.872645,-1.467001,0.82448
67,525474175,61.82198334,-16.37812424,110.7660294,2.612511158,8.238329887,4.66244173,0.752129793,-2.070165634,0.906510293,2.906312,9.149062,5.326985,3.88518,-1.501504,0.839589
68,525490842,61.8244133,-16.39988899,110.7240677,2.61760354,8.252316475,4.68689394,0.417358935,-2.179570198,0.785029173,2.949939,9.286601,5.4051,3.892136,-1.53783,0.852673
69,525507509,61.82791901,-16.4213562,110.6790237,2.596185207,8.196688652,4.723797798,0.462962329,-2.240643501,0.73641634,2.993209,9.423212,5.48383,3.899852,-1.575174,0.864947
70,525524176,61.83934402,-16.44579697,110.6238632,2.618523121,8.236042023,4.690351009,0.863698602,-2.591986179,0.761081398,3.036851,9.560479,5.562003,3.914247,-1.618374,0.877632
71,525540843,61.84406281,-16.4682312,110.5821838,2.637813568,8.230998993,4.704251766,0.470646203,-2.526763439,0.670911908,3.080815,9.697662,5.640407,3.922091,-1.660487,0.888814
72,525557510,61.85422134,-16.48974419,110.539917,2.657934427,8.193367004,4.737962723,0.776391327,-2.583680868,0.583297253,3.125114,9.834218,5.719373,3.935031,-1.703548,0.898536
73,525574177,61.86802673,-16.50743866,110.4981766,2.654304266,8.212697983,4.720845699,1.013513803,-2.459318638,0.389498711,3.169352,9.971096,5.798054,3.951923,-1.744537,0.905028
74,525590844,61.88729477,-16.52390099,110.4617691,2.670450687,8.153442383,4.743836403,1.419699073,-2.222663641,0.438899219,3.21386,10.106987,5.877118,3.975585,-1.781581,0.912343
75,525607511,61.92806244,-16.53909874,110.423317,2.670376301,8.105348587,4.772058487,2.717558622,-2.218757629,0.35334,3.258366,10.242076,5.956652,4.020878,-1.81856,0.918232
76,525624178,61.97638702,-16.54676247,110.3875656,2.67283392,8.265215874,4.72288847,3.261041164,-1.79902339,0.068430729,3.302913,10.37983,6.035367,4.075229,-1.848544,0.919373
77,525640845,62.00855637,-16.55013657,110.344574,2.661635637,8.266218185,4.697005749,2.3574121,-1.515362501,-0.072880939,3.347274,10.5176,6.11365,4.114519,-1.8738,0.918158
78,525657512,62.02908707,-16.55067635,110.3117447,2.657600641,8.255371094,4.690327644,1.650905013,-1.478384256,-0.234183341,3.391567,10.65519,6.191822,4.142034,-1.89844,0.914255
79,525674179,62.04640198,-16.55222702,110.2802353,2.63403368,8.194999695,4.680291176,1.513121367,-1.369133115,-0.101074107,3.435468,10.791773,6.269827,4.167253,-1.921259,0.91257
80,525690846,62.07518387,-16.55383873,110.2496033,2.639831543,8.181617737,4.694096565,2.221748114,-1.343053222,-0.076953351,3.479465,10.928133,6.348062,4.204282,-1.943643,0.911287
81,525707513,62.11055756,-16.5597229,110.2233124,2.629332304,8.200746536,4.687328339,2.603947639,-1.538695931,0.11827305,3.523287,11.064812,6.426184,4.247681,-1.969288,0.913258
82,525724180,62.14485168,-16.56970215,110.1893158,2.619132996,8.273443222,4.673561573,2.492077589,-1.828234673,0.251183748,3.566939,11.202703,6.504077,4.289216,-1.999759,0.917444
83,525740847,62.17125702,-16.58032608,110.1448288,2.625141621,8.246154785,4.680798054,1.965179324,-2.035940886,0.189898968,3.610691,11.340139,6.58209,4.321969,-2.033691,0.920609
84,525757514,62.18755341,-16.59130096,110.1026688,2.647114038,8.20963192,4.678487301,1.281159997,-2.298188925,0.088146105,3.65481,11.476966,6.660065,4.343322,-2.071994,0.922078
85,525774181,62.19347763,-16.59739494,110.0608978,2.658686399,8.222575188,4.68445015,0.696659088,-2.088190794,-0.128767848,3.699121,11.614009,6.738139,4.354933,-2.106797,0.919932
86,525790848,62.19986343,-16.60351181,110.0236588,2.646199465,8.190187454,4.685265064,0.742300928,-2.069787979,-0.110736512,3.743224,11.750512,6.816227,4.367305,-2.141293,0.918086
87,525807515,62.21591568,-16.6036129,109.9881973,2.64300561,8.188500404,4.683286667,1.350769043,-1.853207111,-0.397675574,3.787274,11.886987,6.894282,4.389818,-2.17218,0.911458
88,525824182,62.24213409,-16.60385895,109.942131,2.631896257,8.188459396,4.749686241,1.982057929,-1.846572995,-0.384228915,3.831139,12.023461,6.973443,4.422852,-2.202956,0.905054
89,525840849,62.26882172,-16.60820198,109.9021912,2.634837627,8.294790268,4.724925041,1.989159226,-2.072022676,-0.210606843,3.875053,12.161708,7.052192,4.456005,-2.23749,0.901544
90,525857516,62.28565598,-16.61287498,109.8540878,2.640668154,8.311926842,4.731874943,1.321730614,-2.350086927,-0.3278234,3.919064,12.30024,7.131057,4.478034,-2.276658,0.89608
91,525874183,62.2938385,-16.61522484,109.8102493,2.635301352,8.214524269,4.715560436,0.810757279,-2.302844524,-0.447216958,3.962986,12.437149,7.20965,4.491547,-2.315039,0.888626
92,525890850,62.30826569,-16.61401939,109.7646408,2.617409229,8.216189384,4.740780354,1.151937604,-2.343216419,-0.699405968,4.006609,12.574085,7.288663,4.510746,-2.354093,0.876969
93,525907517,62.32582474,-16.61391068,109.7189484,2.6132195,8.193205833,4.694935322,1.33150816,-2.454170465,-0.672768712,4.050163,12.710638,7.366912,4.532938,-2.394996,0.865756
94,525924184,62.35693741,-16.61213684,109.6708145,2.636560678,8.146941185,4.719430923,2.165444613,-2.398091555,-0.749273896,4.094106,12.84642,7.445569,4.569029,-2.434964,0.853268
95,525940851,62.40355301,-16.61077118,109.6329803,2.623910427,8.236151695,4.69415617,3.148928165,-2.299937487,-0.654884815,4.137838,12.983689,7.523805,4.621511,-2.473296,0.842353
96,525957518,62.45143127,-16.6048317,109.597702,2.650826216,8.178896904,4.647293091,3.28042388,-2.051699162,-0.821649134,4.182018,13.120004,7.60126,4.676185,-2.507491,0.828659
97,525974185,62.50138855,-16.59513664,109.5604324,2.630083084,8.16925621,4.754268169,3.471200228,-1.798018336,-0.945896387,4.225853,13.256158,7.680498,4.734038,-2.537458,0.812894
98,525990852,62.56534576,-16.58519363,109.514389,2.655473709,8.169603348,4.677315235,4.20311451,-2.187311649,-1.15490222,4.270111,13.392318,7.758453,4.80409,-2.573913,0.793646
99,526007519,62.62156677,-16.56925964,109.4758148,2.631335258,8.320819855,4.679806709,3.863758564,-1.697468758,-1.299562573,4.313967,13.530998,7.83645,4.868486,-2.602204,0.771987
100,526024186,62.67063904,-16.55561638,109.433815,2.606763601,8.288063049,4.697134018,3.442847013,-1.785980105,-1.181853414,4.357413,13.669132,7.914736,4.925867,-2.63197,0.752289
101,526040853,62.71847153,-16.54091454,109.3962555,2.593966961,8.283226967,4.737247944,3.379519224,-1.772853732,-1.226790786,4.400646,13.807186,7.99369,4.982192,-2.661518,0.731842
102,526057520,62.76273727,-16.52396965,109.359169,2.612512589,8.204249382,4.677167416,3.172210217,-1.75187695,-1.352101088,4.444188,13.943923,8.071643,5.035062,-2.690716,0.709307
103,526074187,62.8202095,-16.50722504,109.3159103,2.612422705,8.107555389,4.671939373,3.998731852,-1.724125385,-1.327717543,4.487728,14.079049,8.149509,5.101708,-2.719451,0.687178
104,526090854,62.90403366,-16.48744774,109.2833557,2.587812185,8.150461197,4.691398621,5.664569855,-1.446675897,-1.36856997,4.530858,14.21489,8.227699,5.196117,-2.743562,0.664369
105,526107521,62.99993134,-16.46614838,109.2462387,2.577148914,8.259732246,4.614810467,6.418159008,-1.400829077,-1.44609952,4.57381,14.352552,8.304613,5.303086,-2.766909,0.640267
106,526124188,63.0880661,-16.44363785,109.2086487,2.560139656,8.321393013,4.644487858,5.945572853,-1.445580959,-1.53496933,4.616479,14.491242,8.382021,5.402179,-2.791002,0.614684
107,526140855,63.17130661,-16.41759109,109.1537933,2.528155088,8.352202415,4.577347279,5.384449005,-2.207084894,-2.145166159,4.658615,14.630445,8.45831,5.49192,-2.827787,0.578931
108,526157522,63.23980713,-16.39860725,109.1076355,2.523725271,8.317597389,4.503306866,4.508149624,-2.409335852,-1.738359928,4.700677,14.769072,8.533365,5.567056,-2.867943,0.549958
109,526174189,63.3192749,-16.39130592,109.0588608,2.506625891,8.16603756,4.647476673,5.25563097,-2.492064714,-0.990199983,4.742454,14.905173,8.610823,5.65465,-2.909477,0.533455
110,526190856,63.42167282,-16.39159775,109.0101242,2.53665781,8.16401577,4.700042248,6.735256672,-2.46384573,-0.456693679,4.784732,15.04124,8.689157,5.766904,-2.950541,0.525843
111,526207523,63.53485107,-16.39146423,108.9688644,2.580607176,8.35742569,4.571716785,7.4090271,-2.455855131,-0.453645915,4.827742,15.18053,8.765352,5.890388,-2.991472,0.518282
112,526224190,63.63171005,-16.38551903,108.9362564,2.621594906,8.401016235,4.560864449,6.626275539,-1.756852388,-0.485360771,4.871435,15.320547,8.841366,6.000826,-3.020753,0.510193
113,526240857,63.73192978,-16.38287544,108.9070511,2.623058319,8.260692596,4.702192307,6.959733486,-1.483833671,-0.126718849,4.915153,15.458225,8.919736,6.116822,-3.045484,0.508081
114,526257524,63.87817001,-16.37440109,108.8822098,2.676092625,8.195412636,4.670836926,9.780416489,-1.236664534,-0.380060524,4.959755,15.594815,8.997583,6.279829,-3.066095,0.501747
115,526274191,64.02526093,-16.35818672,108.8505859,2.624258041,8.428426743,4.4983778,9.742170334,-1.402141929,-0.97246325,5.003493,15.735289,9.072556,6.442199,-3.089464,0.485539
116,526290858,64.13795471,-16.33708954,108.8194351,2.627876043,8.429722786,4.397510529,7.621841431,-1.486836672,-1.317639112,5.047291,15.875784,9.145848,6.56923,-3.114245,0.463578
117,526307525,64.22455597,-16.30382347,108.7711639,2.641903162,8.499168396,4.430834293,6.004962921,-1.362512589,-2.09493351,5.091323,16.017437,9.219695,6.669313,-3.136954,0.428662
118,526324192,64.31167603,-16.25976753,108.7358856,2.689479589,8.44280529,4.450191975,6.04624939,-1.076853991,-2.634618521,5.136148,16.15815,9.293865,6.770084,-3.154902,0.384752
119,526340859,64.41381073,-16.1997509,108.70327,2.709068298,8.360621452,4.57908535,7.107007504,-0.229080036,-3.305742264,5.181299,16.297494,9.370183,6.888534,-3.15872,0.329656
120,526357526,64.56501007,-16.11907578,108.673378,2.775369883,8.277442932,4.612114429,10.2137785,0.729289949,-4.221474171,5.227555,16.435451,9.447052,7.058764,-3.146565,0.259298
121,526374193,64.72835541,-16.00383949,108.6699677,2.743840933,8.483858109,4.470320225,11.20268726,2.320851088,-5.742652416,5.273286,16.576849,9.521557,7.245475,-3.107884,0.163587
122,526390860,64.81187439,-15.86518097,108.6538544,2.652544737,8.701264381,4.278848648,6.399859905,2.818499088,-7.091511726,5.317495,16.72187,9.592871,7.352139,-3.060909,0.045395
123,526407527,64.81581879,-15.72049332,108.6463165,2.544509649,8.633499146,4.310083389,1.684304237,3.14686656,-7.318843365,5.359903,16.865762,9.664706,7.380211,-3.008461,-0.076586
124,526424194,64.80002594,-15.58464813,108.633194,2.476951599,8.398384094,4.362482071,0.551127791,3.0776546,-6.786355495,5.401186,17.005735,9.737414,7.389396,-2.957167,-0.189692
125,526440861,64.79897308,-15.44649315,108.6378098,2.500551224,8.468399048,4.402271748,1.616443157,3.67816329,-6.629034996,5.442862,17.146875,9.810785,7.416337,-2.895864,-0.300176
126,526457528,64.78663635,-15.3108511,108.6473694,2.459652662,8.491560936,4.488439083,1.042219162,3.904554129,-6.344247341,5.483856,17.288401,9.885592,7.433707,-2.830788,-0.405913
127,526474195,64.77262878,-15.1710186,108.6610413,2.373234749,8.447338104,4.409115314,1.04424274,4.306520462,-6.450592041,5.52341,17.42919,9.959077,7.451111,-2.759013,-0.513423
128,526490862,64.77509308,-15.03004646,108.6682892,2.304929972,8.510907173,4.363218307,1.980335951,4.121006966,-6.597006798,5.561825,17.571038,10.031797,7.484117,-2.69033,-0.623373
129,526507529,64.73989105,-14.87721634,108.6727753,2.328996897,8.628265381,4.343976498,-0.350260139,4.150167465,-7.355347157,5.600642,17.714842,10.104197,7.478279,-2.621161,-0.745962
130,526524196,64.67467499,-14.7030344,108.6767273,2.287210703,8.602813721,4.45923996,-2.172911882,4.617856026,-8.526502609,5.638762,17.858222,10.178518,7.442064,-2.544197,-0.88807
131,526540863,64.61812592,-14.52096176,108.6681137,2.223121405,8.378447533,4.546272278,-1.829586387,4.171362877,-9.24866581,5.675814,17.997863,10.254289,7.411571,-2.474674,-1.042214
132,526557530,64.59142303,-14.33672237,108.6537247,2.15319562,8.290898323,4.509887218,-0.076972589,4.013447285,-9.463108063,5.711701,18.136045,10.329454,7.410288,-2.407783,-1.199932
133,526574197,64.56827545,-14.17036438,108.6278458,2.125956297,8.294679642,4.477306366,-0.009194962,2.951864243,-8.760326385,5.747134,18.27429,10.404076,7.410135,-2.358585,-1.345937
134,526590864,64.54377747,-14.01559925,108.6037598,2.092292309,8.241745949,4.502968788,-0.027552867,2.790068626,-8.055932045,5.782006,18.411652,10.479125,7.409676,-2.312084,-1.480203
135,526607531,64.53951263,-13.86625099,108.5845337,2.059307337,8.374480247,4.538388252,1.235313654,2.705534458,-7.712248325,5.816328,18.551227,10.554765,7.430265,-2.266992,-1.60874
136,526624198,64.54030609,-13.72069836,108.5639114,2.047234535,8.493080139,4.516509056,1.538836837,2.52098155,-7.533047199,5.850449,18.692778,10.63004,7.455912,-2.224976,-1.734291
137,526640865,64.5451889,-13.57169342,108.5476151,2.027999163,8.504930496,4.502909184,1.878256559,2.888805866,-7.573542595,5.884249,18.834527,10.705088,7.487216,-2.176829,-1.860517
138,526657532,64.55086517,-13.43071175,108.5316849,2.051293612,8.528698921,4.586444378,1.951764822,2.701192617,-7.113115311,5.918437,18.976672,10.781529,7.519745,-2.131809,-1.979069
139,526674199,64.57282257,-13.30615807,108.5157318,2.027502775,8.340380669,4.552216053,2.942668915,2.245901108,-6.225749969,5.952229,19.115678,10.857399,7.568789,-2.094377,-2.082831
140,526690866,64.63076782,-13.18543053,108.5079041,2.044730902,8.258148193,4.563325405,5.243516445,2.592025042,-5.798755169,5.986308,19.253314,10.933454,7.656181,-2.051177,-2.179477
141,526707533,64.7137146,-13.0703516,108.5148239,2.067163229,8.404051781,4.602435589,6.952703476,3.14212203,-5.15474987,6.020761,19.393382,11.010161,7.772059,-1.998808,-2.265389
142,526724200,64.80706787,-12.96170521,108.5307465,2.099492788,8.489993095,4.539314747,7.730093956,3.482303143,-4.565477848,6.055753,19.534882,11.085816,7.900894,-1.94077,-2.34148
143,526740867,64.89527893,-12.86188507,108.5575943,2.071674585,8.432634354,4.4312644,7.59056282,3.848417997,-3.807495356,6.090281,19.675426,11.15967,8.027403,-1.87663,-2.404938
144,526757534,65.00205231,-12.77468014,108.5927124,2.003145218,8.315981865,4.420117378,8.826389313,3.966159821,-2.918017626,6.123667,19.814026,11.233339,8.174509,-1.810527,-2.453572
145,526774201,65.11319733,-12.69717216,108.6361923,1.985679507,8.513938904,4.48815012,9.211976051,4.149534225,-2.191538572,6.156762,19.955925,11.308142,8.328042,-1.741368,-2.490098
146,526790868,65.21641541,-12.62560081,108.6789017,1.933990717,8.662354469,4.463624001,8.733242035,3.922355652,-1.901084185,6.188995,20.100298,11.382536,8.473596,-1.675995,-2.521783
147,526807535,65.31531525,-12.55672073,108.7177124,1.905330062,8.668302536,4.385447502,8.437433243,3.658218145,-1.839082003,6.220751,20.24477,11.455627,8.61422,-1.615025,-2.552434
148,526824202,65.41740417,-12.48919296,108.7514114,1.862237692,8.700202942,4.391435623,8.557070732,3.297821522,-1.905483007,6.251788,20.389773,11.528818,8.756838,-1.560061,-2.584192
149,526840869,65.50495148,-12.42363739,108.7746429,1.849192619,8.662165642,4.31932354,7.560704231,2.712359905,-2.034231663,6.282608,20.534142,11.600807,8.88285,-1.514855,-2.618096
150,526857536,65.57650757,-12.35834503,108.7944717,1.851144791,8.608706474,4.315763474,6.567198753,2.520405054,-2.091962099,6.31346,20.67762,11.672736,8.992303,-1.472848,-2.652962
151,526874203,65.64437103,-12.29406166,108.8057022,1.859095573,8.577196121,4.325769424,6.248175144,2.057436466,-2.225885153,6.344445,20.820573,11.744832,9.096439,-1.438557,-2.69006
152,526890870,65.69734192,-12.2316885,108.8162231,1.846931934,8.602168083,4.318112373,5.353879929,1.954472899,-2.13939023,6.375227,20.963942,11.816801,9.18567,-1.405982,-2.725717
153,526907537,65.74250793,-12.16946602,108.8209686,1.826556087,8.659065247,4.327104092,4.813529968,1.601530194,-2.278915882,6.40567,21.10826,11.888919,9.265895,-1.37929,-2.763699
154,526924204,65.77700806,-12.10042286,108.8231888,1.794507146,8.692336082,4.359223366,4.139339447,1.569040537,-2.73025012,6.435578,21.253132,11.961573,9.334884,-1.353139,-2.809203
155,526940871,65.8079071,-12.03238964,108.8215027,1.793251038,8.67718029,4.384977818,3.900231838,1.394617915,-2.730967045,6.465466,21.397752,12.034656,9.399888,-1.329895,-2.854719
156,526957538,65.84208679,-11.95952415,108.8214188,1.800639391,8.653156281,4.392490387,4.133204937,1.60436058,-2.944820404,6.495477,21.541971,12.107864,9.468775,-1.303156,-2.903799
157,526974205,65.87936401,-11.88649368,108.8223419,1.813254118,8.600666046,4.382271767,4.341923237,1.637848973,-2.929644585,6.525698,21.685315,12.180902,9.54114,-1.275859,-2.952626
158,526990872,65.91444397,-11.81255531,108.8241959,1.803483725,8.596607208,4.345432281,4.231397629,1.681614876,-2.962653399,6.555756,21.828592,12.253326,9.611663,-1.247832,-3.002004
159,527007539,65.94062805,-11.74369335,108.8307571,1.799825907,8.642518044,4.373939991,3.733217001,1.619772673,-2.644901991,6.585753,21.972634,12.326225,9.673883,-1.220836,-3.046086
160,527024206,65.95769501,-11.67666245,108.8362656,1.794619918,8.675820351,4.373208046,3.185733557,1.509484529,-2.568537951,6.615663,22.117231,12.399112,9.726979,-1.195678,-3.088895
161,527040873,65.96849823,-11.61019611,108.8361206,1.761908531,8.692591667,4.296916962,2.779183388,1.308002353,-2.615870237,6.645028,22.262108,12.470727,9.773299,-1.173878,-3.132493
162,527057540,65.95851898,-11.54794312,108.8320847,1.785060048,8.693842888,4.282797337,1.475932121,0.898378313,-2.512945414,6.674779,22.407005,12.542107,9.797898,-1.158905,-3.174375
163,527074207,65.92575073,-11.48872375,108.8216171,1.764873624,8.67270565,4.306136131,0.054286115,0.557882965,-2.463493347,6.704194,22.55155,12.613876,9.798803,-1.149607,-3.215433
164,527090874,65.8790741,-11.43301868,108.8075638,1.754756689,8.68092823,4.361907959,-0.831682682,0.171022385,-2.397515059,6.73344,22.696232,12.686574,9.784942,-1.146757,-3.255392
165,527107541,65.83956146,-11.38292408,108.7913895,1.723520756,8.624207497,4.375694275,-0.416167974,-0.086404443,-2.138916731,6.762165,22.839969,12.759502,9.778006,-1.148197,-3.291041
166,527124208,65.80683136,-11.33775997,108.7742081,1.693771124,8.661627769,4.327341557,-0.006185467,-0.264041305,-1.889730453,6.790395,22.984329,12.831624,9.777903,-1.152598,-3.322537
167,527140875,65.75091553,-11.29934597,108.7528076,1.67320168,8.682482719,4.284759045,-1.435988903,-0.660321057,-1.616660833,6.818282,23.129037,12.903037,9.75397,-1.163603,-3.349481
168,527157542,65.65739441,-11.26619148,108.7300186,1.651854277,8.683080673,4.28201437,-3.681307316,-0.749357224,-1.308533788,6.845813,23.273755,12.974404,9.692615,-1.176092,-3.37129
169,527174209,65.54411316,-11.23888779,108.7024155,1.650356412,8.610861778,4.306046963,-4.929196358,-1.220157027,-1.128181934,6.873319,23.417269,13.046171,9.610462,-1.196428,-3.390093
170,527190876,65.43115997,-11.21277809,108.6766357,1.613585949,8.656447411,4.292867184,-4.894100666,-1.225234866,-1.045100689,6.900212,23.561543,13.117719,9.528894,-1.216849,-3.407511
171,527207543,65.32852173,-11.19758701,108.6493378,1.609589934,8.56835556,4.332846642,-4.284607887,-1.566537023,-0.474513739,6.927038,23.704349,13.189933,9.457484,-1.242958,-3.41542
172,527224210,65.22180176,-11.18645954,108.6229553,1.593922734,8.549890518,4.408611298,-4.510460854,-1.622129321,-0.227171883,6.953603,23.846847,13.26341,9.38231,-1.269993,-3.419206
173,527240877,65.13129425,-11.18571663,108.6022644,1.584913731,8.555833817,4.36032486,-3.463349819,-1.584030509,0.485379934,6.980018,23.989444,13.336082,9.324588,-1.296394,-3.411116
174,527257544,65.05335999,-11.19199848,108.5835037,1.597711802,8.553611755,4.427286625,-2.69078064,-1.730252981,0.892826736,7.006647,24.132004,13.40987,9.279742,-1.325232,-3.396236
175,527274211,64.99680328,-11.19789124,108.562912,1.604249358,8.590381622,4.423871517,-1.401021123,-1.720193863,0.875454903,7.033384,24.275177,13.483601,9.256392,-1.353902,-3.381645
176,527290878,64.9680481,-11.20178604,108.5458221,1.597722411,8.582660675,4.427737713,0.304996043,-1.544644475,0.836702943,7.060013,24.418221,13.557397,9.261475,-1.379646,-3.3677
177,527307545,64.94755554,-11.20279503,108.5308914,1.624312282,8.605353355,4.395496368,0.833373129,-1.357069492,0.744074523,7.087085,24.561644,13.630655,9.275365,-1.402264,-3.355299
178,527324212,64.92634583,-11.2085619,108.5182571,1.615687847,8.553136826,4.5037117,0.822359681,-1.348399639,1.070943832,7.114013,24.704196,13.705717,9.289071,-1.424737,-3.33745
179,527340879,64.91944122,-11.22428799,108.5112915,1.62240243,8.444514275,4.572191715,1.729074836,-1.483506918,1.68220377,7.141053,24.844938,13.78192,9.317889,-1.449462,-3.309413
180,527357546,64.93543243,-11.24846363,108.4989243,1.653838277,8.522231102,4.580320358,3.065353394,-1.934123635,2.036798477,7.168617,24.986975,13.858259,9.368978,-1.481697,-3.275466
181,527374213,64.96670532,-11.27828503,108.4866638,1.695210457,8.571414948,4.53708744,3.972869158,-2.217624664,2.291369677,7.196871,25.129832,13.933877,9.435192,-1.518657,-3.237277
182,527390880,65.0220871,-11.30220604,108.4728546,1.758624911,8.580599785,4.534245491,5.458828926,-1.896351457,2.046819687,7.226181,25.272842,14.009448,9.526172,-1.550263,-3.203163
183,527407547,65.0933609,-11.33588982,108.45755,1.725604415,8.518758774,4.491353035,6.402925491,-2.241418839,2.537085533,7.254941,25.414821,14.084304,9.632887,-1.58762,-3.160878
184,527424214,65.12702942,-11.37498569,108.4452133,1.797451615,8.671041489,4.444369793,4.188099384,-2.241719723,2.89978075,7.284899,25.559338,14.158377,9.702689,-1.624982,-3.112548
185,527440881,65.11289215,-11.42051983,108.434433,1.77661705,8.661397934,4.513355732,1.345652699,-2.308286905,3.29302454,7.314509,25.703695,14.2336,9.725117,-1.663453,-3.057664
186,527457548,65.09171295,-11.47276211,108.4134064,1.715930104,8.626195908,4.486632347,0.818338633,-2.996615648,3.419743776,7.343108,25.847465,14.308377,9.738756,-1.713397,-3.000668
187,527474215,65.0544281,-11.53715134,108.3884811,1.694188356,8.680228233,4.364753246,-0.197390676,-3.555907249,3.969379425,7.371344,25.992135,14.381123,9.735466,-1.772662,-2.934512
188,527490882,64.98851776,-11.61481094,108.3569336,1.686487794,8.704366684,4.312110424,-1.991394401,-4.244978905,4.531591415,7.399452,26.137208,14.452992,9.702276,-1.843412,-2.858985
189,527507549,64.86372375,-11.70586109,108.3117752,1.714619517,8.732683182,4.312114239,-5.704417706,-5.365356445,4.900376797,7.428029,26.282753,14.524861,9.607202,-1.932835,-2.777312
190,527524216,64.69416046,-11.81328487,108.2579498,1.735316396,8.611327171,4.326576233,-8.495339394,-6.215270519,5.583308697,7.456951,26.426275,14.596971,9.465613,-2.036423,-2.684257
191,527540883,64.48631287,-11.92484951,108.2098846,1.750700116,8.695101738,4.262242794,-10.79789066,-6.392004967,5.779700756,7.486129,26.571193,14.668008,9.285648,-2.142956,-2.587929
192,527557550,64.25226593,-12.05873966,108.153183,1.65652585,8.640307426,4.373807907,-12.48706436,-7.411737919,6.765522957,7.513738,26.715198,14.740905,9.07753,-2.266485,-2.47517
193,527574217,64.02783966,-12.24233055,108.0539169,1.651958704,8.619906425,4.591526985,-12.46740627,-11.02085018,8.326039314,7.541271,26.858863,14.81743,8.86974,-2.450166,-2.336403
194,527590884,63.79976654,-12.45892429,107.9196167,1.740881324,8.461057663,4.423686504,-13.15459919,-13.79488087,9.159473419,7.570286,26.999881,14.891158,8.650497,-2.680081,-2.183745
195,527607551,63.56385803,-12.69370461,107.7908401,1.738577247,8.421861649,4.47176218,-13.60640335,-14.16147041,10.17265129,7.599262,27.140245,14.965687,8.423724,-2.916106,-2.014201
196,527624218,63.31649017,-12.9417305,107.6645203,1.778037906,8.583442688,4.606500626,-14.2983036,-14.41733742,10.90102196,7.628896,27.283302,15.042462,8.185419,-3.156395,-1.832517
197,527640885,63.03781128,-13.19361019,107.5285645,1.806142807,8.725664139,4.720212936,-16.39072227,-15.34850121,10.6700058,7.658998,27.42873,15.121132,7.91224,-3.412203,-1.654684
198,527657552,62.73288345,-13.44044018,107.3572693,1.947654247,8.505526543,4.602390289,-18.42960548,-16.81656647,9.531251907,7.691459,27.570489,15.197839,7.60508,-3.692479,-1.49583
199,527674219,62.39558792,-13.65406704,107.20681,2.055252075,8.474684715,4.563462257,-20.18551254,-15.1478672,8.097858429,7.725713,27.711734,15.273897,7.268655,-3.944943,-1.360866
200,527690886,62.02477646,-13.85410786,107.062149,2.029291868,8.442615509,4.74715519,-22.14227486,-14.44410324,7.476129532,7.759535,27.852444,15.353016,6.899617,-4.185678,-1.236264
201,527707553,61.62492371,-14.05378819,106.9338379,1.979746819,8.365365982,4.930435658,-23.73514748,-13.9050827,7.678292274,7.792531,27.991867,15.43519,6.504031,-4.417429,-1.108292
202,527724220,61.22265244,-14.27493477,106.8201599,1.956632137,8.202588081,5.075751305,-23.64709473,-13.63817406,9.223319054,7.825142,28.128577,15.519786,6.109913,-4.644732,-0.95457
203,527740887,60.83143616,-14.53801346,106.7242126,1.960278511,8.105232239,5.223149776,-22.82369804,-14.32927227,11.67752457,7.857813,28.263664,15.606838,5.729518,-4.883553,-0.759945
204,527757554,60.47301483,-14.8295784,106.6018524,2.127282619,8.022900581,5.172188759,-21.26843262,-16.53294945,12.3623991,7.893268,28.397379,15.693041,5.375044,-5.159102,-0.553905
205,527774221,60.17200851,-15.12937641,106.4838943,2.265772104,7.723772049,4.793336391,-17.77606773,-16.56837463,12.86623478,7.931031,28.526109,15.77293,5.078776,-5.435242,-0.339468
206,527790888,59.91891479,-15.43235493,106.4069901,2.195967674,7.86981678,4.860612392,-14.30430126,-14.69663811,14.11747646,7.96763,28.657273,15.85394,4.840371,-5.680186,-0.104177
207,527807555,59.67206955,-15.77371597,106.3603592,2.093313932,7.940394878,4.915120602,-13.47539711,-14.40243721,16.93321609,8.002519,28.789613,15.935859,4.615781,-5.920227,0.178043
208,527824222,59.3866806,-16.1553154,106.3583145,2.151800632,7.949576855,4.85534811,-15.07409286,-13.47197342,20.27671814,8.038382,28.922106,16.016781,4.364546,-6.14476,0.515988
209,527840889,59.057827,-16.59461403,106.4182053,2.116528511,7.840386868,4.834523678,-16.65132523,-12.28538132,25.02314186,8.073657,29.052779,16.097356,4.087024,-6.349516,0.93304
210,527857556,58.7490387,-17.09888268,106.4770737,1.98924768,7.712564945,4.896678925,-15.45401478,-14.49459743,28.28049469,8.106811,29.181322,16.178967,3.829457,-6.591093,1.404382
211,527874223,58.5038681,-17.66621017,106.4866486,2.159401417,7.516536713,4.516088963,-12.51312065,-19.04911804,29.98085594,8.142801,29.306598,16.254235,3.620905,-6.908578,1.904063
212,527890890,58.26066589,-18.25973701,106.5190964,2.443776369,8.24998188,4.797491074,-12.00578499,-18.92228889,31.92409897,8.183531,29.444098,16.334193,3.420809,-7.223949,2.436131
213,527907557,57.97411346,-18.8891201,106.5533218,2.716852427,8.352855682,4.968871593,-14.61004829,-20.17373657,33.70828247,8.228812,29.583312,16.417008,3.177308,-7.560178,2.997936
214,527924224,57.63177872,-19.53069305,106.6011505,2.908761978,8.300053596,5.16102457,-17.70862389,-20.10972977,34.63541031,8.277291,29.721646,16.503025,2.882164,-7.89534,3.575193
215,527940891,57.25857925,-20.1905098,106.6713943,3.053525925,8.359941483,5.385464191,-19.10276222,-19.85074806,36.12626648,8.328183,29.860978,16.592783,2.563785,-8.226186,4.177297
216,527957558,56.89163208,-20.88216019,106.6789246,3.151731491,8.056264877,5.360597134,-20.03019905,-24.09793854,35.6905365,8.380712,29.995249,16.682126,2.229948,-8.627818,4.772139
217,527974225,56.54717636,-21.58190727,106.6722183,3.551593065,7.767093182,5.271294594,-19.02035141,-25.28285599,35.5001564,8.439905,30.124701,16.769981,1.912942,-9.049199,5.363808
218,527990892,56.25813675,-22.24348068,106.6678619,3.83536458,8.114722252,5.995593071,-15.67464447,-24.10138321,33.51560974,8.503828,30.259946,16.869908,1.651698,-9.450889,5.922401
219,528007559,56.07248688,-22.87302399,106.6615295,4.019462109,8.750254631,6.437292099,-9.12383461,-22.395504,32.31956863,8.570819,30.405784,16.977196,1.499634,-9.824147,6.46106
220,528024226,55.90936661,-23.48692703,106.7353287,3.957310915,9.209189415,6.198367119,-5.878722191,-18.3181572,33.95144272,8.636774,30.55927,17.080502,1.401655,-10.12945,7.026917
221,528040893,55.61366272,-24.07356262,106.9162827,3.841175318,9.167056084,5.624454975,-11.21935844,-12.69889832,35.8471489,8.700794,30.712054,17.174243,1.214666,-10.341098,7.624369
222,528057560,55.13367844,-24.5570755,107.1338196,3.461192131,8.304543495,5.027077675,-21.31954956,-7.818573952,31.81719398,8.758481,30.850463,17.258028,0.85934,-10.471408,8.154656
223,528074227,54.53600311,-24.96370506,107.3846588,3.582765579,8.08877182,5.049198151,-27.49581146,-4.011291027,29.02885818,8.818194,30.985276,17.342181,0.401076,-10.538263,8.63847
224,528090894,53.84772491,-25.30661201,107.6687164,3.647172213,7.591093063,5.677863598,-32.03784943,-0.668476403,26.9473362,8.87898,31.111794,17.436812,-0.132888,-10.549404,9.087592
225,528107561,53.28512192,-25.75572205,107.912117,4.304986,7.785406113,6.937063217,-25.4526329,-6.565770626,30.75328255,8.95073,31.241551,17.55243,-0.557099,-10.658834,9.600147
226,528124228,52.76976395,-26.31342888,108.1196518,5.139861584,9.012685776,7.9271698,-23.42230415,-12.38213158,34.70728683,9.036394,31.391762,17.684549,-0.947471,-10.865203,10.178602
227,528140895,52.17131424,-26.86589813,108.3818283,5.183946133,8.729453087,8.12887001,-26.8111496,-10.26590347,36.09702301,9.122793,31.537253,17.82003,-1.394323,-11.036301,10.780219
228,528157562,51.96567154,-27.33271599,108.7445068,4.917753696,6.556064129,6.702170849,-0.341790169,-3.200487137,35.24223328,9.204756,31.646521,17.931733,-1.40002,-11.089642,11.36759
229,528174229,52.28439331,-27.72758865,109.2195129,4.730110168,7.673063755,6.44157362,34.41146469,4.13262558,35.43837357,9.283591,31.774405,18.039093,-0.826496,-11.020765,11.95823
230,528190896,52.69246674,-28.14318275,109.7096481,4.685382843,8.272783279,6.499863625,40.36889267,4.145811558,36.8381691,9.361681,31.912285,18.147424,-0.153681,-10.951668,12.572199
231,528207563,53.36826324,-28.60699654,110.1097107,4.981720924,9.416880608,6.492627621,54.04812241,-1.149431825,36.21169662,9.44471,32.069233,18.255634,0.747121,-10.970825,13.175727
232,528224230,54.10918045,-29.06208038,110.3716202,6.014634132,11.4992075,7.04218483,54.08496475,-6.340839386,31.49070358,9.544954,32.260886,18.373004,1.648537,-11.076506,13.700572
233,528240897,54.56982803,-29.44616508,110.5200424,6.491629124,11.06409836,7.280858517,33.98051071,-8.407109261,24.64967918,9.653148,32.445288,18.494352,2.214879,-11.216624,14.1114
234,528257564,55.08602142,-29.70437622,110.5988464,6.631473541,10.41929054,7.33272171,35.26142502,-6.840158463,16.46881294,9.763673,32.618943,18.616564,2.802569,-11.330627,14.38588
235,528274231,55.57546616,-29.80604362,110.6520996,6.475445271,9.973091125,6.986386299,32.89860535,-2.458188295,8.051185608,9.871597,32.785161,18.733004,3.350879,-11.371597,14.520066
236,528290898,55.99007034,-29.75363541,110.6913757,6.229454041,9.644830704,6.615365505,27.98634911,2.198900938,0.022225479,9.975421,32.945908,18.84326,3.817318,-11.334949,14.520436
237,528307565,56.27685547,-29.57877922,110.7302322,5.901150703,9.395722389,6.535367489,20.29610634,6.276972294,-6.097227573,10.073774,33.102503,18.952183,4.155586,-11.230333,14.418816
238,528324232,56.48036575,-29.32668495,110.7669983,5.657982826,9.091054916,6.528715134,15.23065281,8.726041794,-10.03123474,10.168074,33.254021,19.060995,4.40943,-11.084899,14.251629
239,528340899,56.67480087,-29.01747131,110.8008957,5.468195438,8.917050362,6.507734299,14.6015377,10.4507618,-12.99119282,10.259211,33.402639,19.169457,4.652789,-10.91072,14.035109
240,528357566,56.92687607,-28.65719032,110.8068542,5.413086414,8.469614983,6.305621147,17.25474167,10.84487915,-16.38739204,10.349429,33.543799,19.274551,4.940368,-10.729972,13.761986
241,528374233,57.24858856,-28.22365189,110.8060913,5.327676773,8.128085136,6.061578751,21.26084328,12.85019302,-20.32515335,10.438224,33.679267,19.375577,5.294715,-10.515802,13.423233
242,528390900,57.63508987,-27.72904015,110.8040619,5.12609148,7.989352703,5.896522045,25.13405609,14.63884449,-23.53935814,10.523659,33.812423,19.473852,5.713616,-10.271821,13.03091
243,528407567,58.05713272,-27.19301796,110.8050613,4.925134659,7.831681252,5.595892429,27.37182236,15.92875481,-25.67114639,10.605745,33.942951,19.567117,6.169813,-10.006342,12.603058
244,528424234,58.51453018,-26.61901474,110.8190308,4.727065086,7.657648087,5.341704369,29.86170769,17.52398491,-27.37682724,10.684529,34.070578,19.656145,6.667508,-9.714276,12.146778
245,528440901,59.02066803,-26.00920105,110.8448105,4.566324234,7.667895317,5.168218136,33.10947037,18.95941353,-29.04147911,10.760634,34.198376,19.742282,7.219333,-9.398286,11.662753
246,528457568,59.55115128,-25.37166023,110.8640976,4.431019783,7.630391598,4.976355553,34.39823151,19.25619507,-30.83027267,10.834484,34.325549,19.825221,7.792637,-9.077349,11.148915
247,528474235,60.08584595,-24.69263268,110.8731689,4.310857773,7.341241837,4.715014458,34.38781738,19.75131416,-33.44773865,10.906332,34.447903,19.903805,8.365767,-8.74816,10.591453
248,528490902,60.65426636,-23.96285248,110.8955612,4.100921154,7.369423389,4.52300787,36.74514008,21.58261681,-35.94181824,10.974681,34.570727,19.979188,8.978186,-8.38845,9.992423
249,528507569,61.20175934,-23.19902802,110.905777,3.85763216,7.410817146,4.356850147,35.18824387,21.65659332,-38.2730751,11.038975,34.694241,20.051802,9.564657,-8.027507,9.354538
250,528524236,61.73272705,-22.4010334,110.9093399,3.591819286,7.252132416,4.115123272,34.03725433,21.96755219,-40.46392441,11.098839,34.81511,20.120387,10.131945,-7.661381,8.680139
251,528540903,62.23991394,-21.56892204,110.9006729,3.342178822,7.112327576,3.895252943,32.33182907,21.97193336,-42.79955673,11.154542,34.933649,20.185308,10.670809,-7.295182,7.966813
252,528557570,62.7371254,-20.69809151,110.8831253,3.09488678,6.974103451,3.728918791,31.55128098,22.24174309,-45.29135513,11.206123,35.049884,20.247457,11.196664,-6.924486,7.211957
253,528574237,63.24822998,-19.79334831,110.8548737,2.862129688,6.82008791,3.601574898,32.17278671,22.2342701,-47.58401489,11.253825,35.163552,20.307483,11.732877,-6.553915,6.41889
254,528590904,63.77043915,-18.85058403,110.8210602,2.651379585,6.785932064,3.527542353,32.7559433,22.54488945,-49.97735977,11.298015,35.276651,20.366275,12.278809,-6.178167,5.585934
255,528607571,64.31072235,-17.87551117,110.7655106,2.533914804,6.634423733,3.390884638,33.46224213,21.81688118,-52.48281097,11.340247,35.387225,20.42279,12.836513,-5.814552,4.71122
256,528624238,64.88301086,-16.87010956,110.703125,2.36908102,6.390433788,3.243397951,35.31501389,21.72848511,-54.52149582,11.379732,35.493732,20.476847,13.425097,-5.452411,3.802528
257,528640905,65.48430634,-15.84013939,110.6367569,2.178456545,6.259825706,3.207690716,37.05438232,21.5737133,-56.19719315,11.41604,35.598062,20.530309,14.04267,-5.092849,2.865908
258,528657572,66.11430359,-14.80105782,110.5932541,2.01463747,6.150526524,3.08817482,38.67963791,20.69201851,-57.17593765,11.449617,35.700571,20.581779,14.687331,-4.747982,1.912976
259,528674239,66.7999649,-13.76167583,110.5351791,1.818040013,6.0227952,2.96602726,41.93205261,19.3961544,-57.72559738,11.479918,35.800951,20.631213,15.386199,-4.424713,0.950883
260,528690906,67.52101135,-12.72020245,110.4712524,1.718962431,6.031868935,3.020520449,44.06551361,18.37179375,-58.24580383,11.508567,35.901482,20.681555,16.120624,-4.118516,-0.01988
261,528707573,68.23212433,-11.66956902,110.3987122,1.641769409,5.974031925,3.021453381,43.48180008,17.40532875,-59.1782074,11.53593,36.001049,20.731913,16.845321,-3.828427,-1.006183
262,528724240,68.91174316,-10.61053467,110.3254547,1.577892184,5.888533115,2.958543301,41.71460342,16.82700348,-59.89308167,11.562228,36.099191,20.781222,17.540564,-3.547977,-2.004401
263,528740907,69.57372284,-9.53621769,110.2543869,1.498245478,5.860017776,2.977664709,40.80923843,16.57332039,-60.92090988,11.587199,36.196858,20.83085,18.220718,-3.271755,-3.019749
264,528757574,70.20307159,-8.461826324,110.1838226,1.358210683,6.158369541,3.093565464,38.98226166,15.86072922,-61.14545822,11.609836,36.299497,20.882409,18.870422,-3.00741,-4.03884
265,528774241,70.76990509,-7.41473484,110.107254,1.420565128,6.646044254,3.322565794,35.32765579,14.40803814,-59.88189316,11.633512,36.410264,20.937785,19.459216,-2.767276,-5.036872
266,528790908,71.21289063,-6.406512737,110.0325623,1.424605608,6.801152229,3.534964561,28.05218315,13.23533249,-57.78945923,11.657255,36.523617,20.996701,19.926752,-2.546687,-6.00003
267,528807575,71.61865234,-5.455673218,109.9647903,1.399078131,6.768563271,3.704148054,25.99990273,12.0917387,-54.52782059,11.680573,36.636426,21.058437,20.360084,-2.345158,-6.908827
268,528824242,72.04029083,-4.555348396,109.9100952,1.434958696,6.961745739,3.740363121,27.16082382,11.53037834,-51.5152626,11.704489,36.752455,21.120776,20.812764,-2.152985,-7.767415
269,528840909,72.50741577,-3.713706255,109.8814774,1.463410735,7.256874561,3.799417973,30.11398697,11.45901299,-47.8424263,11.728879,36.873403,21.1841,21.314664,-1.962001,-8.564789
270,528857576,72.97803497,-2.925158262,109.8793793,1.472439647,7.743824959,3.661584377,30.50981331,11.7103281,-44.44475555,11.75342,37.002467,21.245126,21.823161,-1.766829,-9.305535
271,528874243,73.39176941,-2.197009325,109.8697433,1.393506289,8.155237198,3.305333138,27.21702385,11.46727848,-40.77468109,11.776645,37.138388,21.300215,22.276778,-1.575708,-9.985113
272,528890910,73.73553467,-1.530962348,109.8722992,1.252645612,8.278294563,2.944097281,23.065382,10.8588953,-37.1127243,11.797522,37.27636,21.349283,22.661201,-1.394726,-10.603658
273,528907577,74.03246307,-0.907546341,109.8761292,1.078150153,8.491313934,2.962879181,20.26203156,10.03237534,-34.73501587,11.815491,37.417882,21.398664,22.998902,-1.22752,-11.182575
274,528924244,74.27949524,-0.329104245,109.8644409,0.903443933,8.924093246,3.207920074,17.26008797,8.250405312,-32.47964859,11.830548,37.566617,21.452129,23.28657,-1.090013,-11.723902
275,528940911,74.47160339,0.183387473,109.8323135,0.809261858,9.196248055,3.275259733,13.98262691,5.892595291,-29.06486893,11.844036,37.719888,21.506717,23.519614,-0.991803,-12.208316
276,528957578,74.628479,0.640951455,109.7984314,0.738536,9.02285862,3.092278481,11.89735126,4.837484837,-25.96756935,11.856345,37.870269,21.558255,23.717903,-0.911178,-12.641109
277,528974245,74.80002594,1.061796427,109.7756348,0.670174181,8.841845512,2.844474316,12.79224491,4.836919785,-23.71568489,11.867515,38.017633,21.605663,23.931107,-0.830563,-13.03637
278,528990912,74.9895401,1.459166288,109.7688675,0.549924672,8.793130875,2.700469255,13.85999966,5.33495903,-22.15322685,11.87668,38.164185,21.650671,24.162107,-0.741647,-13.40559
279,529007579,75.18941498,1.817503929,109.7666855,0.334523588,8.733322144,2.629662752,14.47314072,4.932478905,-19.86871719,11.882255,38.30974,21.694499,24.403326,-0.659439,-13.736735
280,529024246,75.3476181,2.128493071,109.7616272,0.149316087,8.75909996,2.606498718,11.97766876,3.988684416,-17.20377731,11.884744,38.455725,21.737941,24.602954,-0.592961,-14.023465
281,529040913,75.4325943,2.374766827,109.750824,0.00855695,8.643120766,2.633119106,7.595939636,2.644360065,-13.56289005,11.884887,38.599777,21.781826,24.729553,-0.548888,-14.249513
282,529057580,75.5074234,2.555262804,109.731308,-0.054936711,8.426597595,2.600215912,7.011352062,1.134028435,-9.892224312,11.883971,38.74022,21.825163,24.846409,-0.529988,-14.414383
283,529074247,75.59573364,2.681105375,109.7026291,-0.074527912,8.440821648,2.409441948,7.850795269,-0.226525202,-6.870116234,11.882729,38.8809,21.86532,24.977256,-0.533763,-14.528885
284,529090914,75.66685486,2.779819965,109.6672668,-0.21424216,8.406544685,2.373722315,6.835595131,-1.026486754,-5.407117367,11.879158,39.021009,21.904882,25.091183,-0.550871,-14.619004
285,529107581,75.69968414,2.847125292,109.6070938,-0.413119733,8.621566772,2.496892691,4.609466553,-2.937194109,-3.958103657,11.872273,39.164702,21.946497,25.168007,-0.599824,-14.684972
286,529124248,75.6397934,2.872257471,109.5146408,-0.506503046,8.738521576,2.647348881,-0.857186675,-5.43758297,-1.989933848,11.863831,39.310344,21.990619,25.153721,-0.69045,-14.718138
287,529140915,75.48617554,2.856583118,109.3935089,-0.542250276,8.753599167,2.752822161,-6.394206524,-7.709623814,-0.058864411,11.854793,39.456237,22.036499,25.047151,-0.818944,-14.719119
288,529157582,75.26309204,2.804136992,109.2582932,-0.53451544,8.728672028,2.781574488,-10.51899529,-9.083850861,1.837443471,11.845884,39.601715,22.082859,24.871834,-0.970342,-14.688495
289,529174249,75.01457214,2.722101212,109.1193771,-0.456072956,8.831319809,2.90869379,-12.03954792,-9.760156631,3.45934391,11.838283,39.748904,22.131337,24.671175,-1.133011,-14.630839
290,529190916,74.73840332,2.613099813,108.9880447,-0.392305344,8.900856972,3.0686028,-13.72814465,-9.760810852,5.092526913,11.831745,39.897252,22.18248,24.442373,-1.295691,-14.545964
291,529207583,74.46611023,2.472470999,108.8635864,-0.282096326,8.971815109,3.154580355,-13.52114296,-9.891166687,6.980824947,11.827043,40.046782,22.235056,24.217021,-1.460544,-14.429617
292,529224250,74.20272827,2.303878307,108.7527542,-0.194273472,9.05241394,3.163862705,-13.03094864,-9.589968681,8.76345253,11.823805,40.197656,22.287787,23.999839,-1.620377,-14.283559
293,529240917,73.95028687,2.110383987,108.6553955,-0.138329804,9.035349846,3.196386099,-12.41825008,-9.261632919,10.36863518,11.8215,40.348245,22.34106,23.792868,-1.774738,-14.110748
294,529257584,73.69571686,1.891949415,108.5694427,-0.135190979,9.035429955,3.179965496,-12.58304119,-9.068347931,11.94602108,11.819247,40.498835,22.394059,23.583151,-1.925877,-13.911648
295,529274251,73.4205246,1.649739146,108.5010757,-0.135240555,8.950261116,3.215559483,-13.86986828,-8.516280174,13.56199551,11.816993,40.648006,22.447652,23.351987,-2.067815,-13.685615
296,529290918,73.12899017,1.379334569,108.4502335,-0.142229557,8.906935692,3.240384817,-14.8898344,-8.063910484,15.4358263,11.814623,40.796455,22.501658,23.103823,-2.202214,-13.428351
297,529307585,72.81938934,1.084913969,108.4154816,-0.129337922,8.827973366,3.284891367,-16.0043602,-7.64691782,17.04870796,11.812467,40.943588,22.556406,22.837084,-2.329663,-13.144206
298,529324252,72.49241638,0.765084207,108.3955688,-0.136052161,8.768685341,3.253691196,-17.06678009,-7.348275185,18.7233429,11.810199,41.089733,22.610634,22.552638,-2.452134,-12.83215
299,529340919,72.14946747,0.422118068,108.3984146,-0.172521144,8.796627998,3.303752422,-18.04415321,-6.580861568,20.41741371,11.807324,41.236343,22.665697,22.251902,-2.561815,-12.49186
300,529357586,71.79270935,0.067362756,108.4245987,-0.163495749,8.906560898,3.414358377,-18.87462234,-5.596665859,21.48518372,11.804599,41.384786,22.722603,21.937325,-2.655093,-12.133774
301,529374253,71.43744659,-0.290702611,108.4690704,-0.224127933,8.840473175,3.400532961,-18.76920128,-4.756631851,21.98996544,11.800864,41.532127,22.779279,21.624505,-2.73437,-11.767275
302,529390920,71.11772919,-0.640838861,108.5228806,-0.304993629,8.91127491,3.387428999,-16.61499596,-4.209105492,21.697752,11.795781,41.680648,22.835736,21.347588,-2.804522,-11.405646
303,529407587,70.81193542,-0.992240369,108.5676575,-0.429067612,9.163393974,3.605671644,-15.77035522,-4.87385273,21.58221054,11.78863,41.833371,22.895831,21.084749,-2.885753,-11.045942
304,529424254,70.50828552,-1.350031614,108.5956345,-0.506022096,9.257915497,3.792135,-15.64507771,-6.07676363,21.60156631,11.780196,41.98767,22.959033,20.823998,-2.987032,-10.685916
305,529440921,70.22057343,-1.711349964,108.6082306,-0.50225687,9.385256767,3.947220087,-14.69868374,-7.140191078,21.4809227,11.771825,42.144091,23.02482,20.57902,-3.106035,-10.327901
306,529457588,69.93783569,-2.065961599,108.6090546,-0.479440004,9.515069008,4.082352638,-14.41512489,-7.787656307,20.84782791,11.763834,42.302675,23.092859,20.338768,-3.235829,-9.980437
307,529474255,69.6543808,-2.401299238,108.6029739,-0.43332243,9.567712784,4.247664928,-14.46888161,-7.892168522,19.6041584,11.756612,42.462137,23.163653,20.09762,-3.367365,-9.653701
308,529490922,69.3817215,-2.709138155,108.5889969,-0.405784458,9.612114906,4.306098461,-13.83468342,-7.865618706,17.87726593,11.749849,42.622339,23.235421,19.867042,-3.498459,-9.355747
309,529507589,69.09211731,-2.972060204,108.5596008,-0.395833939,9.741314888,4.335370064,-14.89451027,-7.876475334,15.01535702,11.743252,42.784694,23.307677,19.6188,-3.629734,-9.105491
310,529524256,68.87876892,-3.203933716,108.5056992,-0.447480351,9.656242371,3.995454788,-10.39900494,-8.656378746,12.73996353,11.735794,42.945631,23.374268,19.445483,-3.774007,-8.893158
311,529540923,68.61962891,-3.392084122,108.4415588,-0.437836081,9.564977646,3.786011696,-13.19970608,-8.341932297,10.06315136,11.728497,43.105047,23.437368,19.225488,-3.913039,-8.725439
312,529557590,68.38508606,-3.537486553,108.3997574,-0.571500301,9.170406342,3.695900679,-11.76186752,-8.088952065,7.44747448,11.718972,43.257887,23.498966,19.029457,-4.047855,-8.601314
313,529574257,68.1796875,-3.655468225,108.3434143,-0.664869964,9.177652359,3.72852087,-10.0939064,-8.403416634,5.566712379,11.707891,43.410848,23.561108,18.861225,-4.187912,-8.508535
314,529590924,68.00976563,-3.755518913,108.2280121,-0.678617358,9.203794479,3.743917942,-8.111526489,-9.379727364,4.005443573,11.696581,43.564245,23.623507,18.726033,-4.344241,-8.441778
315,529607591,67.85738373,-3.838419914,108.0821228,-0.569179058,9.292159081,3.788356543,-7.200099468,-10.70875931,2.373094797,11.687095,43.719114,23.686646,18.606031,-4.52272,-8.402226
316,529624258,67.75778961,-3.895539045,107.8910065,-0.462803245,9.183421135,3.821143866,-4.238974094,-12.64738464,-0.075743191,11.679382,43.872171,23.750332,18.535381,-4.73351,-8.403488
317,529640925,67.69475555,-3.917107582,107.6572189,-0.338847488,9.194429398,3.843249321,-2.235766172,-14.21411705,-3.010973692,11.673735,44.025411,23.814386,18.498118,-4.970412,-8.453671
318,529657592,67.74409485,-3.933666945,107.4105148,-0.204665005,9.26708889,3.824596882,4.329211235,-16.67254448,-4.2954216,11.670324,44.179862,23.878129,18.570272,-5.248288,-8.525261
319,529674259,67.79132843,-3.97104001,107.1225967,-0.143355131,9.548282623,3.998211384,4.009199619,-19.46696472,-4.055513859,11.667935,44.339,23.944766,18.637092,-5.572737,-8.592853
320,529690926,67.80413818,-4.006464005,106.8217773,-0.147721216,9.140475273,4.013770103,1.872573018,-20.09727097,-4.413093567,11.665473,44.491341,24.011662,18.668302,-5.907692,-8.666405
321,529707593,67.8332901,-4.029722691,106.4659653,-0.081996627,9.330312729,4.016094685,2.724228859,-21.06724739,-5.595744133,11.664106,44.646846,24.078597,18.713706,-6.258813,-8.759667
322,529724260,67.88284302,-4.044258118,106.0851212,-0.052452236,9.1863451,3.858154297,3.831642151,-22.26832199,-6.618648529,11.663232,44.799952,24.1429,18.777567,-6.629952,-8.869978
323,529740927,67.98901367,-4.065397263,105.7301788,-0.068130061,9.179373741,3.777469873,7.218864441,-22.68304253,-6.295403004,11.662096,44.952942,24.205858,18.897881,-7.008003,-8.974901
324,529757594,68.12957001,-4.122062206,105.3774109,-0.076994732,9.441524506,3.96066761,9.268532753,-23.34152031,-4.198059082,11.660813,45.110301,24.271869,19.052357,-7.397028,-9.044869
325,529774261,68.30988312,-4.267467022,105.0142822,0.139180824,10.00116158,4.445669174,11.56236076,-25.91566467,0.589260221,11.663133,45.276987,24.345963,19.245063,-7.828956,-9.035048
326,529790928,68.53742981,-4.510262489,104.6300964,0.762130439,10.5930109,4.926157475,14.22878075,-29.15285301,5.688704967,11.675835,45.453537,24.428066,19.482209,-8.314837,-8.940236
327,529807595,68.7806778,-4.79315424,104.2239532,1.347239256,10.24746227,4.911918163,15.07887936,-29.66780853,8.15508461,11.698289,45.624328,24.509931,19.733524,-8.8093,-8.804318
328,529824262,69.12016296,-5.049609661,103.8926392,1.566089392,9.001735687,4.29092741,21.13897514,-24.87454605,8.4081707,11.72439,45.774357,24.581446,20.08584,-9.223876,-8.664182
329,529840929,69.60665131,-5.25631237,103.70504,1.520131111,8.494306564,3.595238447,30.53540611,-17.26214981,8.219345093,11.749726,45.915929,24.641367,20.594763,-9.511578,-8.527193
330,529857596,70.10575104,-5.442004681,103.6134491,1.540261149,8.690037727,3.175478458,31.78087425,-11.39401817,9.119133949,11.775397,46.060763,24.694292,21.124444,-9.701478,-8.375207
331,529874263,70.48460388,-5.645615101,103.5572052,1.546414018,9.11276722,2.991675854,24.87977219,-8.126797676,11.44888306,11.801171,46.212642,24.744153,21.539107,-9.836925,-8.184392
332,529890930,70.73040771,-5.896013737,103.5544815,1.543064713,9.121906281,3.059504986,17.0411644,-7.489231586,14.65852833,11.826889,46.364674,24.795145,21.823126,-9.961746,-7.940083
333,529907597,70.91952515,-6.20143795,103.5544815,1.566560388,8.784838676,3.029479742,13.62965965,-8.378206253,17.82939529,11.852998,46.511088,24.845636,22.050287,-10.101383,-7.642926
334,529924264,71.11505127,-6.525915623,103.5521927,1.562820911,8.462406158,2.834882975,13.97722626,-8.821398735,18.86909676,11.879045,46.652128,24.892884,22.283241,-10.248406,-7.328441
335,529940931,71.31713104,-6.859101295,103.5394287,1.530745745,8.365262985,2.804455757,14.27103806,-9.522400856,19.16744232,11.904557,46.791549,24.939625,22.521092,-10.407113,-7.008984
336,529957598,71.47216797,-7.192202091,103.5139389,1.535858154,8.488833427,2.883672714,11.33029461,-10.16165543,18.93490028,11.930155,46.93303,24.987686,22.70993,-10.576474,-6.693402
337,529974265,71.53570557,-7.528242111,103.4705048,1.555024266,8.635381699,2.9312644,5.678070068,-11.15271091,18.77799988,11.956072,47.076953,25.03654,22.804565,-10.762353,-6.380435
338,529990932,71.49978638,-7.879842281,103.4223099,1.611295938,8.717476845,3.034039974,-0.370680481,-11.7627182,19.54350471,11.982927,47.222244,25.087107,22.798387,-10.958398,-6.05471
339,530007599,71.39085388,-8.26015377,103.3724365,1.632319927,8.741532326,3.12704277,-4.588839054,-10.91563797,21.61429596,12.010132,47.367936,25.139224,22.721906,-11.140325,-5.694472
340,530024266,71.20987701,-8.665551186,103.3907471,1.669164658,8.671210289,3.148925543,-8.549776077,-9.06235218,23.81904793,12.037951,47.512456,25.191706,22.57941,-11.291364,-5.297488
341,530040933,70.97541809,-9.084949493,103.4480591,1.65497601,8.492683411,3.041587353,-11.18045616,-5.792770863,25.80389595,12.065534,47.654001,25.242399,22.393069,-11.38791,-4.867423
342,530057600,70.71308899,-9.503445625,103.5886536,1.609068394,8.277759552,2.96723485,-12.02788258,-1.232121944,27.339077,12.092352,47.791964,25.291853,22.192604,-11.408445,-4.411772
343,530074267,70.43102264,-9.905527115,103.838089,1.590325356,8.255379677,2.947508574,-12.32482624,3.506786823,28.01049805,12.118857,47.929554,25.340978,21.98719,-11.349999,-3.94493
344,530090934,70.09876251,-10.29171181,104.1566925,1.595015049,8.501914978,3.023024797,-14.52607918,7.539107323,28.51624298,12.145441,48.071253,25.391362,21.745089,-11.224347,-3.469659
345,530107601,69.69741058,-10.67924595,104.5174103,1.64854157,8.551525116,3.064154148,-18.13384056,9.509934425,29.44364548,12.172917,48.213778,25.442431,21.442858,-11.065848,-2.978932
346,530124268,69.24798584,-11.05446625,104.9275818,1.768386245,8.253026009,3.094426155,-20.34541702,12.24034595,29.83455276,12.20239,48.351328,25.494005,21.103768,-10.861842,-2.481689
347,530140935,68.81532288,-11.37682915,105.4065781,1.892024636,8.515011787,3.241345882,-18.42646599,16.83132744,28.38160133,12.233924,48.493245,25.548027,20.79666,-10.58132,-2.008662
348,530157602,68.37036896,-11.64652348,105.936409,2.008593082,8.839506149,3.461544037,-18.44616508,20.4603672,26.62840843,12.267401,48.64057,25.605719,20.489224,-10.240314,-1.564855
349,530174269,67.95948029,-11.85638332,106.5090561,2.124941349,8.816311836,3.515144825,-15.78217888,23.84448814,24.35292816,12.302817,48.787509,25.664305,20.226188,-9.842906,-1.158973
350,530190936,67.57216644,-11.99702168,107.1123123,2.247127295,8.985236168,3.546244144,-13.92419243,26.81154633,21.31669998,12.340269,48.937263,25.723409,19.994118,-9.396047,-0.803695
351,530207603,67.1583252,-12.08037281,107.7485199,2.372102261,9.199040413,3.589214563,-15.07548809,29.65821457,19.03066826,12.379804,49.09058,25.783229,19.74286,-8.901743,-0.486517
352,530224270,66.69542694,-12.15283394,108.4146957,2.447255135,9.709920883,4.04694891,-17.62187576,31.33570671,19.3228054,12.420592,49.252412,25.850678,19.449162,-8.379481,-0.16447
353,530240937,66.21090698,-12.26340866,109.0887375,2.635886908,10.19791985,4.610193253,-18.78404236,30.62665367,21.83935547,12.464523,49.422377,25.927515,19.136095,-7.869037,0.199519
354,530257604,65.77700043,-12.41836929,109.7305374,2.957392931,10.54210663,5.142640114,-16.08779716,27.60136986,23.73088455,12.513813,49.598079,26.013226,18.867965,-7.409014,0.595034
355,530274271,65.47475433,-12.55756664,110.3252106,3.162320852,10.05143642,5.112384796,-8.707695961,25.32782745,21.9043293,12.566518,49.765603,26.098432,18.722837,-6.986884,0.960106
356,530290938,65.3731842,-12.59973431,110.8806915,3.122153282,9.442911148,4.619324207,2.877941608,25.58732033,15.73187065,12.618554,49.922985,26.175421,18.770803,-6.560429,1.222304
357,530307605,65.3432312,-12.51200867,111.3979492,2.741950512,8.921622276,4.072432518,6.665045261,26.8086834,7.738015175,12.664253,50.071679,26.243295,18.881887,-6.113618,1.351271
358,530324272,65.29438019,-12.33929157,111.8490601,2.337374926,8.518982887,3.743252039,4.630466938,25.53781891,1.548317075,12.703209,50.213662,26.305683,18.959061,-5.687988,1.377076
359,530340939,65.18793488,-12.13582325,112.2171402,2.009823561,8.255870819,3.610326052,0.020413352,21.88297462,-2.138260603,12.736706,50.35126,26.365855,18.959401,-5.323272,1.341438
360,530357606,65.0572052,-11.93557358,112.4823151,1.972179651,8.316212654,3.692665339,-2.772109985,16.487463,-4.385826588,12.769576,50.489864,26.427399,18.913199,-5.048481,1.268341
361,530374273,64.91397858,-11.75988388,112.6534729,2.05901885,8.502409935,3.948199272,-4.744199276,10.85409355,-5.353627682,12.803893,50.631571,26.493202,18.834129,-4.867579,1.179114
362,530390940,64.80363464,-11.6222744,112.7373199,2.20068574,8.597632408,4.323306084,-3.810536146,5.480209351,-5.337155819,12.840571,50.774865,26.565257,18.77062,-4.776242,1.090161
363,530407607,64.74248505,-11.52520466,112.770607,2.375382662,8.585063934,4.561410427,-1.479472637,1.753330112,-4.406747818,12.880161,50.917949,26.641281,18.745962,-4.74702,1.016715
364,530424274,64.71954346,-11.45777512,112.7867737,2.479361534,8.689862251,4.729907513,0.607751012,0.064492784,-3.249387264,12.921484,51.06278,26.720113,18.756091,-4.745945,0.962559
365,530440941,64.70627594,-11.3965683,112.8198776,2.556348801,8.696030617,4.791131496,1.404183984,0.847914696,-2.482638597,12.96409,51.207714,26.799965,18.779494,-4.731813,0.921182
366,530457608,64.69300842,-11.3291111,112.8914566,2.443454027,8.629535675,4.638046265,1.869266391,3.072217941,-1.862779975,13.004814,51.35154,26.877266,18.810648,-4.680609,0.890136
367,530474275,64.65310669,-11.25895309,112.9997253,2.20868063,8.530838966,4.267688274,0.707806945,5.109964848,-1.08931458,13.041625,51.493721,26.948394,18.822445,-4.595443,0.871981
368,530490942,64.55902863,-11.17838383,113.1313934,2.064369678,8.466358185,3.803019285,-2.291331768,6.561309814,-1.095128894,13.076031,51.634827,27.011778,18.784256,-4.486088,0.853729
369,530507609,64.4515152,-11.07789993,113.2586899,1.908872724,8.778736115,3.682709694,-3.155850172,6.917901516,-2.243397474,13.107846,51.781139,27.073156,18.731658,-4.37079,0.816339
370,530524276,64.36116791,-10.97793007,113.3280869,1.696009874,8.978458405,3.731103182,-2.799500227,3.927899599,-3.632924795,13.136113,51.93078,27.135341,18.685,-4.305325,0.75579
371,530540943,64.34454346,-10.89263248,113.3116684,1.622470498,8.954296112,3.72671032,0.630469441,-0.978206694,-5.004331112,13.163154,52.080018,27.197453,18.695508,-4.321628,0.672384
372,530557610,64.39673615,-10.82284164,113.2180176,1.671405077,8.976653099,3.880542517,3.869759798,-5.483673573,-6.128614902,13.191011,52.229629,27.262129,18.760004,-4.413023,0.57024
373,530574277,64.47157288,-10.76447487,113.0727692,1.808083177,8.867754936,4.118513107,4.62817955,-8.602536201,-6.849396706,13.221146,52.377425,27.330771,18.83714,-4.556399,0.456083
374,530590944,64.5626297,-10.71267891,112.9059372,1.890514374,8.62355423,4.354010105,5.379977226,-9.838274002,-6.987244606,13.252655,52.521151,27.403338,18.926806,-4.72037,0.339629
375,530607611,64.66020966,-10.66832638,112.7461929,1.998265624,8.504654884,4.503659248,5.842630386,-9.753250122,-6.435584545,13.285959,52.662895,27.478399,19.024183,-4.882924,0.232369
376,530624278,64.75491333,-10.62451744,112.6133499,2.035025835,8.42346859,4.627433777,5.966442585,-8.405944824,-5.750226498,13.319876,52.803286,27.555523,19.123624,-5.023023,0.136532
377,530640945,64.83203888,-10.58258152,112.5050354,2.015056372,8.383187294,4.667906761,5.198316574,-7.150228024,-5.027294159,13.35346,52.943006,27.633321,19.210263,-5.142193,0.052744
378,530657612,64.91423798,-10.54784012,112.4210129,1.940071702,8.29950428,4.569546223,5.78194046,-6.061035156,-4.0364151,13.385795,53.081331,27.70948,19.306629,-5.24321,-0.01453
379,530674279,64.99235535,-10.52249241,112.353096,1.878462553,8.334369659,4.509767532,5.708136559,-5.515343189,-3.154595137,13.417103,53.220237,27.784643,19.401765,-5.335132,-0.067107
380,530690946,65.05215454,-10.5029192,112.290535,1.790305972,8.449048042,4.494505405,4.701429367,-5.279168606,-2.659501553,13.446941,53.361054,27.859551,19.480122,-5.423118,-0.111432
381,530707613,65.11650848,-10.49167728,112.229538,1.736084938,8.41778183,4.454033852,4.98561573,-5.461774349,-2.188906431,13.475876,53.50135,27.933785,19.563216,-5.514148,-0.147914
382,530724280,65.20043182,-10.48459816,112.1705322,1.692922711,8.463804245,4.439153194,6.184865952,-5.476770401,-1.914415121,13.504091,53.642413,28.007771,19.666297,-5.605428,-0.179821
383,530740947,65.29653168,-10.47812462,112.1066208,1.704725981,8.570711136,4.415743828,6.869570255,-5.751403332,-1.992175341,13.532503,53.785258,28.081367,19.78079,-5.701285,-0.213024
384,530757614,65.3770752,-10.4660387,112.0456619,1.702532411,8.702850342,4.436131477,5.964712143,-5.493431568,-2.233920813,13.560879,53.930306,28.155303,19.880202,-5.792842,-0.250256
385,530774281,65.42105865,-10.4561739,111.9864655,1.707883596,8.582502365,4.391381264,3.795687675,-5.451300144,-2.061726809,13.589344,54.073348,28.228493,19.943463,-5.883697,-0.284618
386,530790948,65.4779129,-10.43990135,111.9352112,1.682816267,8.566214561,4.317034721,4.643851757,-4.939390659,-2.244793415,13.617391,54.216118,28.300444,20.020861,-5.96602,-0.322031
387,530807615,65.54776764,-10.42068672,111.8848495,1.692508459,8.694467545,4.28261137,5.449179649,-4.770321369,-2.356055021,13.645599,54.361026,28.371821,20.111681,-6.045525,-0.361299
388,530824282,65.5975647,-10.39780807,111.8286514,1.71645844,8.76444912,4.276784897,4.180614948,-5.003827095,-2.696902752,13.674207,54.5071,28.443101,20.181358,-6.128922,-0.406247
389,530840949,65.64125824,-10.371521,111.7815475,1.707117915,8.634745598,4.230927944,3.932760715,-4.356285572,-2.623035669,13.702659,54.651012,28.513616,20.246904,-6.201527,-0.449964
390,530857616,65.69413757,-10.33636761,111.7481003,1.675026059,8.692765236,4.252809525,4.629534721,-3.416715622,-2.777691603,13.730576,54.795891,28.584496,20.324063,-6.258472,-0.496259
391,530874283,65.74420929,-10.30325222,111.7215958,1.645268798,8.64838028,4.175479889,4.530950546,-3.141621828,-2.514943361,13.757997,54.940031,28.654087,20.399579,-6.310832,-0.538175
392,530890950,65.8129425,-10.2722168,111.7053299,1.607683659,8.663869858,4.155344486,5.739230156,-2.749696493,-2.197870731,13.784792,55.084429,28.723343,20.495233,-6.35666,-0.574806
393,530907617,65.89582825,-10.25170994,111.6833038,1.58883512,8.690341949,4.097886562,6.547734737,-3.219805479,-1.709257603,13.811273,55.229268,28.791641,20.604362,-6.410323,-0.603294
394,530924284,65.96347809,-10.22513008,111.6731644,1.646790862,9.044551849,4.293508053,5.765162945,-2.408919334,-1.740056396,13.83872,55.380011,28.863199,20.700448,-6.450472,-0.632295
395,530940951,66.00630188,-10.19519234,111.6650925,1.699969649,8.81247139,4.21707058,4.281880379,-2.295506239,-1.905104756,13.867053,55.526886,28.933484,20.771813,-6.48873,-0.664047
396,530957618,66.09207153,-10.15436363,111.6626205,1.682573795,8.82229805,4.144926071,6.921078682,-1.723613262,-2.364020824,13.895096,55.673924,29.002566,20.887164,-6.517457,-0.703447
397,530974285,66.2134552,-10.1086483,111.6617126,1.675374746,8.872943878,4.095617771,9.091920853,-1.438941002,-2.552581549,13.923019,55.821806,29.070826,21.038696,-6.541439,-0.74599
398,530990952,66.35417175,-10.05051708,111.6718521,1.644921422,8.748472214,4.012457371,10.36138439,-0.575824857,-2.982971191,13.950434,55.967614,29.1377,21.211386,-6.551036,-0.795706
399,531007619,66.52172852,-9.991203308,111.6897507,1.686885357,8.813296318,4.09264946,12.05107594,-0.132923573,-2.863148928,13.978549,56.114502,29.205911,21.412237,-6.553251,-0.843425
400,531024286,66.70624542,-9.928409576,111.7171478,1.678183675,8.804780006,4.166540623,13.14918423,0.359628141,-2.877710104,14.006519,56.261248,29.275353,21.63139,-6.547257,-0.891387
401,531040953,66.92391205,-9.869336128,111.7431717,1.698958278,8.795300484,4.129425049,15.12933159,0.209845006,-2.696923256,14.034835,56.407836,29.344177,21.883546,-6.54376,-0.936336
402,531057620,67.16082764,-9.802503586,111.7754822,1.669817448,8.762208939,4.029268742,16.35648918,0.749300182,-2.974616766,14.062665,56.553873,29.411331,22.156154,-6.531272,-0.985913
403,531074287,67.42251587,-9.739063263,111.8124161,1.597874761,8.767320633,4.041903973,17.90264702,0.975460947,-2.660740137,14.089296,56.699995,29.478696,22.454531,-6.515014,-1.030259
404,531090954,67.70963287,-9.677145004,111.8556519,1.577377319,8.736079216,3.999279737,19.44960594,1.049968481,-2.534079313,14.115586,56.845596,29.545351,22.778691,-6.497515,-1.072494
405,531107621,68.00793457,-9.608317375,111.9051437,1.633331537,8.793931007,4.021075726,20.22457314,1.740526319,-2.703648567,14.142808,56.992162,29.612369,23.115767,-6.468506,-1.117555
406,531124288,68.3092804,-9.544405937,111.9575653,1.621273756,8.778898239,3.960967779,20.41875458,1.670475602,-2.422215939,14.169829,57.138477,29.678385,23.45608,-6.440665,-1.157925
407,531140955,68.61169434,-9.48500824,112.0207443,1.616116881,8.723171234,3.872824192,20.5941143,2.168643236,-1.941195726,14.196764,57.283863,29.742932,23.799315,-6.404521,-1.190278
408,531157622,68.9056015,-9.439339638,112.0901871,1.615520954,8.932382584,3.906272411,20.17802238,2.378424406,-0.990169108,14.223689,57.432736,29.808037,24.135615,-6.364881,-1.206781
409,531174289,69.16573334,-9.40255928,112.17659,1.562006593,8.882642746,3.818043232,18.29841232,3.010827303,-0.192332372,14.249722,57.58078,29.871671,24.440589,-6.314701,-1.209987
410,531190956,69.41578674,-9.377249718,112.2771454,1.582780361,8.884943008,3.745547295,17.8494339,3.641272545,0.767677546,14.276102,57.728862,29.934097,24.73808,-6.254013,-1.197192
411,531207623,69.65336609,-9.359002113,112.3877716,1.58014369,8.897777557,3.750213623,17.19922829,4.050729752,1.352813125,14.302438,57.877158,29.996601,25.024734,-6.186501,-1.174645
412,531224290,69.87981415,-9.343899727,112.5082474,1.632749915,8.904582977,3.67031312,16.62847519,4.53505373,1.708919644,14.32965,58.025568,30.057773,25.301875,-6.110917,-1.146163
413,531240957,70.12812805,-9.329174995,112.6352158,1.624951601,8.912258148,3.505547762,18.00042152,4.880928993,1.833884478,14.356733,58.174106,30.116199,25.601882,-6.029568,-1.115598
414,531257624,70.39142609,-9.314795494,112.779129,1.600418806,9.119578362,3.615950584,19.06711769,5.843788147,2.171114683,14.383407,58.326099,30.176465,25.919667,-5.932172,-1.079413
415,531274291,70.64013672,-9.308308601,112.9272461,1.576768756,9.028039932,3.566455603,18.27886581,6.209787369,2.765362024,14.409686,58.476566,30.235906,26.224315,-5.828676,-1.033324
416,531290958,70.87426758,-9.30241394,113.0877838,1.553381443,9.021368027,3.519659519,17.52507591,6.898046494,3.010994434,14.435576,58.626922,30.294567,26.5164,-5.713709,-0.983141
417,531307625,71.1193161,-9.30382061,113.2595673,1.527456284,8.913759232,3.270222425,18.25705147,7.225313187,3.544559002,14.461034,58.775485,30.349071,26.820684,-5.593287,-0.924065
418,531324292,71.35938263,-9.306305885,113.4345093,1.537173152,9.094344139,3.210211039,17.99377823,7.402119637,3.644820452,14.486654,58.927057,30.402575,27.12058,-5.469918,-0.863318
419,531340959,71.55541992,-9.30797863,113.5951614,1.547828555,9.244976997,3.150324345,15.20544052,6.606058598,3.289275169,14.512451,59.08114,30.45508,27.374004,-5.359817,-0.808497
420,531357626,71.73871613,-9.302327156,113.7398605,1.545217872,9.165377617,2.996949673,14.303092,5.983707905,2.591700077,14.538205,59.233896,30.505029,27.612389,-5.260089,-0.765302
421,531374293,71.92192078,-9.289187431,113.8629379,1.579258442,9.338315964,2.916741848,14.11829567,5.111287594,1.810563445,14.564526,59.389535,30.553641,27.847694,-5.174901,-0.735126
422,531390960,72.07846832,-9.273035049,113.9654541,1.574870229,9.423939705,2.840658665,12.28397274,3.859733582,1.200314283,14.590774,59.546601,30.600985,28.052427,-5.110572,-0.715121
423,531407627,72.17289734,-9.259659767,114.0401917,1.572139502,9.486605644,2.75480032,8.289194107,2.302146912,0.861816347,14.616976,59.704711,30.646898,28.19058,-5.072203,-0.700757
424,531424294,72.19690704,-9.244988441,114.0901108,1.589744687,9.377063751,2.734555483,3.824681044,0.996910393,0.3568362,14.643472,59.860995,30.692474,28.254325,-5.055588,-0.69481
425,531440961,72.1789093,-9.23140049,114.1209183,1.598659754,9.32953167,2.807652235,1.085914373,-0.238831997,0.029070413,14.670116,60.016487,30.739268,28.272424,-5.059569,-0.694325
426,531457628,72.16706848,-9.222071648,114.1339951,1.581862211,9.166098595,2.802295685,1.310128093,-1.119294286,0.012716706,14.69648,60.169255,30.785973,28.294259,-5.078224,-0.694113
427,531474295,72.16138458,-9.220901489,114.1403351,1.544709206,9.170624733,2.936012506,1.615687728,-1.615437984,0.365518868,14.722225,60.322099,30.834907,28.321187,-5.105148,-0.688021
428,531490962,72.14357758,-9.231598854,114.1472397,1.523196697,9.100326538,3.024545431,0.869499981,-1.903516769,1.020755768,14.747612,60.473771,30.885316,28.335679,-5.136873,-0.671008
429,531507629,72.13150024,-9.24779892,114.1579895,1.529889107,9.239309311,3.120177031,1.241165757,-1.819391608,1.393433094,14.77311,60.627759,30.937319,28.356365,-5.167196,-0.647784
430,531524296,72.12010193,-9.26414299,114.1633453,1.590204597,9.200362206,3.123851776,1.226316929,-2.138762951,1.301477313,14.799613,60.781098,30.989383,28.376804,-5.202842,-0.626093
431,531540963,72.11793518,-9.274240494,114.1751251,1.5725317,9.225130081,3.157649755,1.869310737,-1.502632976,1.108434439,14.825822,60.93485,31.04201,28.407959,-5.227886,-0.607619
432,531557630,72.12308502,-9.281007767,114.198555,1.571608663,9.221143723,3.212416172,2.403175354,-0.870415509,1.103395104,14.852015,61.088536,31.09555,28.448012,-5.242393,-0.589229
433,531574297,72.14041138,-9.284141541,114.2346725,1.483540535,9.160042763,3.217401028,3.250225782,-0.132603347,1.110835552,14.876741,61.241203,31.149173,28.502182,-5.244603,-0.570715
434,531590964,72.15830994,-9.288378716,114.2753143,1.522199154,9.176876068,3.162373304,3.337872744,0.160758108,1.275474072,14.902111,61.394151,31.201879,28.557813,-5.241924,-0.549457
435,531607631,72.17488861,-9.291913033,114.3210144,1.51182735,9.175506592,3.158416986,3.294369698,0.387430519,1.304403663,14.927308,61.547076,31.254519,28.612719,-5.235467,-0.527717
436,531624298,72.19152069,-9.295957565,114.3645935,1.534650445,9.205931664,3.076141119,3.270933628,0.225417346,1.285040379,14.952886,61.700508,31.305788,28.667235,-5.23171,-0.5063
437,531640965,72.20465088,-9.297682762,114.4020691,1.532302618,9.165247917,3.070307016,3.016100168,0.018633239,1.072288394,14.978424,61.853262,31.35696,28.717503,-5.231399,-0.488429
438,531657632,72.21652222,-9.292271614,114.4341965,1.540578842,9.219844818,3.087073326,2.890495539,-0.12531653,0.574877024,15.0041,62.006926,31.408411,28.765678,-5.233488,-0.478848
439,531674299,72.21913147,-9.28272438,114.458519,1.549093008,9.253474236,3.099465609,2.273869991,-0.404021144,0.223611683,15.029918,62.161151,31.460069,28.803576,-5.240222,-0.475121
440,531690966,72.2161026,-9.273281097,114.4792633,1.543663859,9.222577095,3.071492195,1.880099893,-0.713255942,0.132007837,15.055646,62.314861,31.511261,28.834911,-5.25211,-0.472921
441,531707633,72.21796417,-9.262495995,114.4956512,1.553268671,9.176463127,2.988653183,2.135779142,-0.901893616,-0.012633464,15.081534,62.467802,31.561072,28.870507,-5.267142,-0.473132
442,531724300,72.21285248,-9.252194405,114.5168762,1.571792841,9.17702961,2.988553762,1.712144852,-0.898499846,0.019849841,15.107731,62.620752,31.610881,28.899043,-5.282117,-0.472801
443,531740967,72.20550537,-9.24386692,114.5376053,1.537457585,9.175309181,3.098935843,1.623524904,-0.667358041,0.214403898,15.133355,62.773674,31.66253,28.926102,-5.29324,-0.469228
444,531757634,72.19248199,-9.237652779,114.5664215,1.552967191,9.185450554,3.092734098,1.346190572,-0.334905237,0.456059694,15.159238,62.926765,31.714076,28.948539,-5.298822,-0.461627
445,531774301,72.18619537,-9.232266426,114.6035004,1.540884256,9.178239822,3.096968174,1.840362072,0.198152632,0.677993715,15.184919,63.079736,31.765692,28.979212,-5.295519,-0.450327
446,531790968,72.18350983,-9.227941513,114.6444931,1.533144832,9.204116821,3.112006664,2.107361794,0.478406847,0.832694471,15.210471,63.233138,31.817559,29.014335,-5.287546,-0.436449
447,531807635,72.18588257,-9.2219944,114.6943665,1.527095675,9.165919304,3.04558444,2.483638048,0.940754533,0.883343637,15.235923,63.385903,31.868319,29.055729,-5.271867,-0.421727
448,531824302,72.19468689,-9.211972237,114.7459335,1.519146562,9.191951752,3.066688776,2.897155046,1.191221118,0.704413295,15.261242,63.539102,31.91943,29.104015,-5.252013,-0.409987
449,531840969,72.19374084,-9.200369835,114.8016739,1.511748195,9.19124794,3.046554565,2.3600564,1.503759861,0.704041898,15.286438,63.692289,31.970206,29.143349,-5.22695,-0.398253
450,531857636,72.18994904,-9.187367439,114.8602753,1.504667401,9.219432831,3.096974134,2.200233221,1.622269988,0.65743953,15.311516,63.845946,32.021822,29.18002,-5.199912,-0.387296
451,531874303,72.18517303,-9.170024872,114.9236679,1.532502174,9.194814682,3.111040354,2.185864449,1.971307039,0.498948157,15.337058,63.999193,32.073673,29.216451,-5.167057,-0.37898
452,531890970,72.18208313,-9.146286011,114.9899902,1.556948185,9.246308327,3.079966307,2.341910124,2.41874814,0.2309113,15.363007,64.153298,32.125006,29.255483,-5.126745,-0.375131
453,531907637,72.17766571,-9.109026909,115.0800934,1.522119284,9.263804436,3.105025291,2.452736378,3.836488247,-0.158433765,15.388376,64.307695,32.176756,29.296362,-5.062804,-0.377772
454,531924304,72.17818451,-9.068451881,115.1809082,1.468211532,9.314545631,3.186147928,2.86507535,4.603627205,-0.122819304,15.412846,64.462937,32.229858,29.344113,-4.986077,-0.379819
455,531940971,72.18508148,-9.027807236,115.2885513,1.459549069,9.202750206,3.068998337,3.283843279,4.847921371,-0.041153211,15.437172,64.616316,32.281008,29.398844,-4.905278,-0.380505
456,531957638,72.21546173,-8.985147476,115.3968964,1.457010031,9.232308388,3.01286602,4.726325989,5.116201878,-0.091110803,15.461456,64.770188,32.331222,29.477616,-4.820008,-0.382024
457,531974305,72.25219727,-8.94332695,115.503006,1.480598569,9.293365479,2.886268854,5.043641567,4.773772717,-0.144935906,15.486133,64.925077,32.379326,29.561677,-4.740445,-0.38444
458,531990972,72.27062225,-8.901445389,115.5991745,1.469137073,9.258504868,2.881174088,3.874253988,4.386559486,-0.279351324,15.510619,65.079385,32.427346,29.626248,-4.667336,-0.389096
459,532007639,72.2899704,-8.860870361,115.6819992,1.468114376,9.265188217,2.928480625,3.815587997,3.707246542,-0.418313056,15.535088,65.233805,32.476154,29.689841,-4.605549,-0.396068
460,532024306,72.30299377,-8.817770958,115.7594528,1.53819263,9.28495121,2.989387989,3.369055986,3.401801825,-0.673274577,15.560725,65.388554,32.525977,29.745992,-4.548852,-0.407289
461,532040973,72.30364227,-8.778364182,115.8308334,1.571185827,9.26409626,2.898244381,2.561283112,2.961750746,-0.580684841,15.586911,65.542956,32.574281,29.78868,-4.499489,-0.416967
462,532057640,72.30780792,-8.740344048,115.8997192,1.547878504,9.163079262,2.85441947,2.769552231,2.952939272,-0.5012725,15.612709,65.695674,32.621855,29.834839,-4.450273,-0.425322
463,532074307,72.30918121,-8.708250046,115.9658508,1.527979136,9.186084747,2.903918266,2.55489254,2.60198164,-0.241303653,15.638175,65.848775,32.670254,29.877421,-4.406907,-0.429344
464,532090974,72.31045532,-8.682153702,116.0217438,1.520114183,9.181859016,2.877980471,2.46504283,1.989555955,-0.059632767,15.66351,66.001806,32.71822,29.918505,-4.373748,-0.430338
465,532107641,72.31700897,-8.655866623,116.0778122,1.493911862,9.255648613,2.991544962,2.789683819,2.070440769,-0.045059137,15.688409,66.156067,32.768079,29.965,-4.339241,-0.431089
466,532124308,72.33070374,-8.627129555,116.1434174,1.481302381,9.33468914,3.078378916,3.234602928,2.263996363,-0.135132641,15.713097,66.311645,32.819385,30.01891,-4.301508,-0.433341
467,532140975,72.33553314,-8.593273163,116.2069168,1.461183429,9.297143936,3.047816038,2.733989239,2.556582928,-0.368022501,15.73745,66.466597,32.870182,30.064476,-4.258898,-0.439475
468,532157642,72.34838104,-8.555464745,116.2820969,1.433011889,9.238740921,3.059829712,3.314117193,3.278362036,-0.388269335,15.761334,66.620576,32.921179,30.119711,-4.204259,-0.445946
469,532174309,72.37973785,-8.517329216,116.3669891,1.422246218,9.214012146,3.028931141,4.515301704,3.883641243,-0.218598038,15.785038,66.774143,32.971661,30.194966,-4.139532,-0.449589
470,532190976,72.41958618,-8.48188591,116.4567184,1.400469661,9.212186813,2.97503829,5.062657833,4.106574059,0.019555299,15.808379,66.927679,33.021245,30.279344,-4.071089,-0.449263
471,532207643,72.45596313,-8.448319435,116.5495453,1.376864433,9.24845314,2.877579451,4.871446609,4.203633785,0.166149601,15.831327,67.08182,33.069205,30.360535,-4.001028,-0.446494
472,532224310,72.49188232,-8.417131424,116.6391144,1.393869281,9.22894001,2.874772549,4.813126564,4.010014534,0.252195477,15.854558,67.235636,33.117118,30.440754,-3.934194,-0.442291
473,532240977,72.53482056,-8.385375023,116.7246857,1.451351404,9.285363197,2.941639423,5.16756773,3.632022619,0.097840533,15.878747,67.390392,33.166145,30.52688,-3.87366,-0.44066
474,532257644,72.5745697,-8.349713326,116.8060684,1.431259751,9.246377945,2.983619452,4.953713417,3.590502739,-0.169600889,15.902601,67.544498,33.215872,30.609442,-3.813818,-0.443487
475,532274311,72.60292053,-8.317703247,116.8827744,1.403391957,9.239383698,2.984948874,4.226377487,3.265747547,-0.044226732,15.925991,67.698488,33.265621,30.679882,-3.759389,-0.444224
476,532290978,72.61436462,-8.284156799,116.9585342,1.429237604,9.238034248,2.966178894,3.204993963,3.268141985,-0.142092869,15.949812,67.852455,33.315057,30.733299,-3.70492,-0.446592
477,532307645,72.61978912,-8.252404213,117.0342712,1.411226988,9.104002953,2.920650244,2.853690147,3.32694912,-0.014656868,15.973332,68.004188,33.363735,30.780861,-3.649471,-0.446836
478,532324312,72.64039612,-8.226471901,117.115509,1.349303722,9.124229431,2.933083296,3.786236525,3.392492056,0.374496162,15.99582,68.156258,33.41262,30.843965,-3.592929,-0.440594
479,532340979,72.6683197,-8.208226204,117.2008438,1.34571743,9.209917068,2.902560949,4.249851227,3.435444593,0.868795633,16.018249,68.309757,33.460996,30.914796,-3.535672,-0.426114
480,532357646,72.69177246,-8.196613312,117.2833481,1.336640954,9.177026749,2.806330204,3.96845746,3.259279966,1.229217649,16.040526,68.462707,33.507768,30.980937,-3.481351,-0.405627
481,532374313,72.75456238,-8.188455582,117.3555069,1.317487717,9.155182838,2.648714542,6.233837605,2.590904236,1.234378695,16.062484,68.615293,33.551913,31.084834,-3.438169,-0.385054
482,532390980,72.81364441,-8.180068016,117.4151459,1.292101383,9.220962524,2.649372578,5.904035568,1.923578143,1.00862813,16.084019,68.768976,33.596069,31.183235,-3.406109,-0.368244
483,532407647,72.84513855,-8.171058655,117.4607315,1.358361244,9.268454552,2.775315046,4.132302284,1.197278619,0.74330622,16.106658,68.92345,33.642324,31.252107,-3.386154,-0.355856
484,532424314,72.79895782,-8.158965111,117.507164,1.404964209,9.245124817,3.000946999,-0.543431103,1.182346225,0.546267688,16.130074,69.077535,33.69234,31.24305,-3.366448,-0.346752
485,532440981,72.68626404,-8.147591591,117.5488281,1.375006318,9.108466148,3.11540699,-4.552100658,1.038953781,0.548777819,16.152991,69.229343,33.744263,31.167182,-3.349132,-0.337606
486,532457648,72.61998749,-8.136611938,117.596199,1.348520756,8.856134415,3.028264046,-1.671491146,1.631413698,0.766460061,16.175466,69.376945,33.794734,31.139324,-3.321942,-0.324832
487,532474315,72.6794281,-8.132575035,117.6433868,1.343770862,8.965738297,2.752437592,5.79424715,1.034727693,1.010254622,16.197862,69.526374,33.840608,31.235895,-3.304697,-0.307994
488,532490982,72.80908203,-8.135723114,117.6713638,1.307242155,9.22107029,2.616346121,9.860892296,-0.057763059,1.117520928,16.219649,69.680059,33.884214,31.400243,-3.30566,-0.289369
489,532507649,72.92784119,-8.145505905,117.66465,1.356168985,9.468641281,2.437495232,8.895945549,-2.209396839,0.869243979,16.242252,69.83787,33.924839,31.548509,-3.342483,-0.274882
490,532524316,72.95307159,-8.149497032,117.6201096,1.482819915,9.670388222,2.382300138,2.95078826,-4.274010658,-0.126814887,16.266966,69.999043,33.964544,31.597689,-3.413717,-0.276996
491,532540983,72.92740631,-8.151451111,117.5387497,1.603454947,9.533618927,2.242927551,-0.449970424,-6.468456268,-0.929376245,16.29369,70.157937,34.001926,31.590189,-3.521525,-0.292486
492,532557650,73.02878571,-8.156695366,117.3897781,1.726498485,9.214962006,1.839452267,6.61249733,-10.19889927,-1.866468787,16.322465,70.31152,34.032584,31.700397,-3.691507,-0.323594
493,532574317,73.29956818,-8.188856125,117.1967163,1.867527962,8.996500969,1.677746654,16.37343025,-13.23433876,-1.072731972,16.35359,70.461462,34.060546,31.973288,-3.912079,-0.341473
494,532590984,73.6974411,-8.246074677,116.9456787,2.02335906,8.790007591,1.593859315,23.46791458,-17.00621033,-0.5578143,16.387313,70.607962,34.08711,32.36442,-4.195516,-0.35077
495,532607651,74.25270081,-8.353786469,116.6265488,2.062514305,9.020498276,1.618380427,32.26735687,-21.82919884,1.329818487,16.421688,70.758304,34.114083,32.902209,-4.559336,-0.328606
496,532624318,74.79100037,-8.51159668,116.2521973,2.115040064,9.112854958,1.612751603,30.70951843,-25.73693085,3.553973913,16.456939,70.910185,34.140962,33.414034,-4.988285,-0.269373
497,532640985,75.3207016,-8.70825386,115.8376465,2.12817359,9.153164864,1.589952111,29.68454933,-28.96958542,5.312132359,16.492409,71.062738,34.167461,33.908776,-5.471111,-0.180837
498,532657652,75.84827423,-8.942036629,115.3745193,2.167743444,9.035396576,1.482687473,29.05479431,-31.93190575,7.087260723,16.528538,71.213328,34.192172,34.393023,-6.003309,-0.062716
499,532674319,76.36679077,-9.205746651,114.885849,2.195515156,9.199026108,1.604144096,28.05850983,-34.16001511,8.62865448,16.56513,71.366645,34.218908,34.860665,-6.572643,0.081095
500,532690986,76.82798767,-9.488106728,114.358345,2.237476349,9.421010017,1.798426509,24.11425781,-36.40945816,9.496308327,16.602421,71.523662,34.248882,35.262569,-7.179467,0.239367
501,532707653,77.18251801,-9.779513359,113.7948151,2.310982227,9.839137077,2.066017151,17.19800186,-38.44698334,9.808460236,16.640937,71.687648,34.283316,35.549202,-7.82025,0.402841
502,532724320,77.40131378,-10.08494663,113.2194977,2.343401909,9.700118065,2.029158592,8.749389648,-39.23472595,10.65973759,16.679994,71.849317,34.317135,35.695025,-8.474162,0.580503
503,532740987,77.56681824,-10.38458538,112.6542664,2.289509296,9.60428524,2.049274206,5.488371372,-38.42572784,10.59508705,16.718152,72.009388,34.35129,35.786498,-9.114591,0.757088
504,532757654,77.71780396,-10.6753912,112.0760117,2.220826864,9.679288864,2.170889854,4.30836916,-38.93876266,10.03030396,16.755166,72.170709,34.387471,35.858304,-9.76357,0.92426
505,532774321,77.85900879,-10.94212246,111.491272,2.155541182,9.711493492,2.221369743,3.4882195,-38.9019928,8.645698547,16.791092,72.332567,34.424494,35.916441,-10.411937,1.068355
506,532790988,78.00762177,-11.18121815,110.9075623,2.07996583,9.830488205,2.329093218,3.792351961,-38.43642426,7.137504101,16.825758,72.496408,34.463312,35.979647,-11.052544,1.187313
507,532807655,78.11715698,-11.40067101,110.3274918,2.0074687,9.804247856,2.376672029,1.366534352,-37.87306595,6.131084919,16.859216,72.659812,34.502923,36.002423,-11.683762,1.289498
508,532824322,78.18282318,-11.5891695,109.7580643,1.922313809,9.669252396,2.419534445,-1.13173449,-36.28678894,4.625303745,16.891255,72.820966,34.543249,35.983561,-12.288542,1.366586
509,532840989,78.22622681,-11.74886799,109.200386,1.893428683,9.652956009,2.483512402,-2.421057701,-35.2324028,3.114326239,16.922812,72.981849,34.584641,35.94321,-12.875749,1.418491
510,532857656,78.26689148,-11.88238335,108.6596756,1.842222691,9.623171806,2.563564062,-2.456581593,-33.92155075,1.809365153,16.953516,73.142235,34.627367,35.902267,-13.441108,1.448647
511,532874323,78.30743408,-11.98237705,108.1442413,1.772101402,9.612721443,2.685088873,-2.209545374,-32.04686356,0.170376316,16.983051,73.302447,34.672118,35.865441,-13.975222,1.451487
512,532890990,78.33234406,-12.05207348,107.6501541,1.657230973,9.575791359,2.668832779,-2.917161465,-30.44630623,-1.334035397,17.010672,73.462044,34.716599,35.816822,-14.48266,1.429253
513,532907657,78.32562256,-12.08908081,107.196228,1.549143672,9.407026291,2.602292299,-4.330127239,-27.73855019,-2.766851902,17.036491,73.618828,34.759971,35.744653,-14.944969,1.383139
514,532924324,78.28353119,-12.10547447,106.7887115,1.381483912,9.333724022,2.65813446,-5.876354218,-24.82276535,-3.430092573,17.059516,73.77439,34.804273,35.646714,-15.358682,1.325971
515,532940991,78.19903564,-12.11083412,106.4245758,1.301306009,9.320464134,2.75677824,-7.868089676,-22.19421005,-3.578184366,17.081204,73.929731,34.850219,35.515579,-15.728586,1.266335
516,532957658,78.10289001,-12.1114397,106.1181641,1.196191072,9.270466805,2.846571922,-7.831037521,-18.81725121,-3.186231136,17.101141,74.084239,34.897662,35.385062,-16.042207,1.213231
517,532974325,78.02114868,-12.11375237,105.8649673,1.165891528,9.404477119,2.931746483,-6.289505482,-15.78514099,-2.457534552,17.120573,74.24098,34.946524,35.280237,-16.305293,1.172272
518,532990992,77.98317719,-12.10686588,105.671608,1.148910522,9.327290535,2.933437824,-2.896560907,-12.23801708,-2.271418571,17.139722,74.396435,34.995415,35.231961,-16.50926,1.134415
519,533007659,78.01716614,-12.08653927,105.5425949,1.168154597,9.428609848,2.945570707,2.243468285,-8.382277489,-2.265847445,17.159191,74.553578,35.044508,35.269352,-16.648965,1.096651
520,533024326,78.07828522,-12.04458523,105.471344,1.147193789,9.452464104,2.915866375,4.608979702,-4.806037426,-2.815905094,17.178311,74.711119,35.093106,35.346168,-16.729066,1.049719
521,533040993,78.13005829,-11.97305775,105.4648666,1.05768609,9.406955719,2.839736462,4.873520374,-0.730621517,-3.755672932,17.195939,74.867902,35.140435,35.427393,-16.741243,0.987124
522,533057660,78.15057373,-11.8821497,105.5154419,0.995245337,9.259149551,2.682502985,3.712868214,2.777774334,-4.193074703,17.212526,75.022221,35.185143,35.489274,-16.694947,0.917239
523,533074327,78.16068268,-11.78585148,105.6118317,0.928717077,9.076425552,2.586111784,3.657404661,5.473690987,-3.94552803,17.228005,75.173495,35.228245,35.550231,-16.603719,0.85148
524,533090994,78.18518066,-11.69928932,105.7363968,0.8748945,8.917224884,2.491064548,4.862591267,6.971221924,-3.023605585,17.242587,75.322115,35.269763,35.631274,-16.487532,0.801087
525,533107661,78.24567413,-11.63888264,105.8747177,0.887214184,8.889672279,2.398385763,7.183968067,7.435279846,-1.315961838,17.257374,75.470276,35.309736,35.751007,-16.363611,0.779154
526,533124328,78.33738708,-11.62437916,106.0100479,0.896539629,8.840854645,2.287208796,9.024395943,6.702219486,1.346562624,17.272316,75.617624,35.347856,35.901414,-16.251907,0.801597
527,533140995,78.46782684,-11.66342354,106.1329346,0.91275996,8.77575779,2.141463757,11.19890881,5.335723877,4.342577934,17.287529,75.763887,35.383547,36.088062,-16.162978,0.873973
528,533157662,78.62654114,-11.77099323,106.2396393,0.915869355,8.619945526,1.982527614,12.71226025,3.593989611,8.177348137,17.302793,75.907553,35.416589,36.299933,-16.103078,1.010262
529,533174329,78.80058289,-11.95449924,106.3334961,0.97322911,8.56122303,1.840882301,13.48962212,1.977469087,12.49360752,17.319013,76.05024,35.44727,36.52476,-16.07012,1.218489
530,533190996,78.94955444,-12.23446178,106.4068909,0.976899147,8.441449165,1.772041917,11.74974346,-0.292196572,17.93995667,17.335295,76.190931,35.476804,36.720589,-16.07499,1.517488
531,533207663,79.08665466,-12.605299,106.4633865,1.040168285,8.318997383,1.712845922,10.84190559,-2.268285036,23.11040306,17.352631,76.329581,35.505351,36.901287,-16.112795,1.902661
532,533224330,79.22179413,-13.05631447,106.5103149,1.250447392,8.43991375,1.913700938,10.62204266,-3.676157713,27.74014091,17.373472,76.470246,35.537246,37.078321,-16.174064,2.364997
533,533240997,79.34264374,-13.55861187,106.5742874,1.571322799,8.546355247,2.110705376,10.02336311,-3.219483852,30.95905876,17.399661,76.612685,35.572424,37.245377,-16.227722,2.880981
534,533257664,79.51086426,-14.08732128,106.6640625,1.861897349,8.636834145,2.047522545,13.27132988,-1.968491912,32.80092239,17.430693,76.756632,35.606549,37.466566,-16.26053,3.427663
535,533274331,79.80433655,-14.60366535,106.7684631,2.208666801,9.042662621,1.824094415,21.05515862,-0.882163525,32.22670746,17.467504,76.907343,35.636951,37.817485,-16.275233,3.964775
536,533290998,80.19080353,-15.09851456,106.8501511,2.448478222,9.717352867,1.4236691,26.3386364,-1.782225013,30.72294998,17.508312,77.069299,35.660679,38.256462,-16.304937,4.476824
537,533307665,80.61736298,-15.56344986,106.8894272,2.631519079,10.21229076,1.082149267,28.10570717,-3.69906497,28.54674911,17.552171,77.239504,35.678715,38.72489,-16.366588,4.952603
538,533324332,81.04407501,-15.99801731,106.8768921,2.704128981,10.27593231,0.802248299,27.27370644,-6.159405231,26.28979111,17.59724,77.41077,35.692086,39.179452,-16.469245,5.390766
539,533340999,81.40779877,-16.40387154,106.8104553,2.726627588,10.33205223,0.797839522,22.57785416,-8.783686638,24.14863396,17.642684,77.582971,35.705383,39.55575,-16.61564,5.793243
540,533357666,81.63526917,-16.80232048,106.7038498,2.643078566,10.05954266,0.762245357,13.67512417,-10.8731308,23.41015625,17.686735,77.75063,35.718087,39.783669,-16.796859,6.183412
541,533374333,81.72877502,-17.21431732,106.5672226,2.541583061,9.680734634,0.648943245,5.058661461,-12.61539364,23.99704742,17.729095,77.911976,35.728903,39.86798,-17.007116,6.583363
542,533391000,81.74365234,-17.65757942,106.4108276,2.425791502,9.300377846,0.521768868,-0.081980079,-13.96283627,25.70719528,17.769525,78.066982,35.737599,39.866614,-17.23983,7.011816
543,533407667,81.75405884,-18.15405655,106.245018,2.30594492,8.948976517,0.366800636,-0.609322011,-14.9243269,28.80078316,17.807957,78.216132,35.743712,39.856459,-17.488569,7.491829
544,533424334,81.82767487,-18.71571159,106.0796814,2.308851719,8.742306709,0.260819644,3.094796419,-15.40350246,32.69496536,17.846438,78.361837,35.748059,39.908039,-17.745294,8.036745
545,533441001,81.99688721,-19.35067749,105.9136658,2.359055758,8.637479782,0.132878259,8.705154419,-15.9588995,37.08394623,17.885756,78.505795,35.750274,40.053125,-18.011276,8.654811
546,533457668,82.28236389,-20.06866646,105.7511063,2.427139044,8.380464554,-0.061296966,15.62663651,-16.26066589,42.11388779,17.926208,78.645469,35.749252,40.313569,-18.282287,9.356709
547,533474335,82.68254089,-20.88594437,105.5889359,2.472616673,8.13525486,-0.171513781,22.37904167,-16.72237206,48.12389755,17.967418,78.781057,35.746393,40.686553,-18.560993,10.158774
548,533491002,83.21185303,-21.8205471,105.4213333,2.583475113,7.843271255,-0.279359013,29.85531044,-17.44352722,55.20762634,18.010476,78.911778,35.741737,41.184142,-18.851718,11.078901
549,533507669,83.91383362,-22.88894653,105.2261276,2.731813669,7.54120779,-0.262497783,39.40801239,-19.20945549,63.19529343,18.056006,79.037465,35.737362,41.840942,-19.171876,12.132156
550,533524336,84.78894806,-24.1121769,105.0047455,2.925756693,7.159990311,-0.374543726,48.93963242,-20.59790421,72.55206299,18.104769,79.156798,35.73112,42.656603,-19.515174,13.341357
551,533541003,85.84402466,-25.5019207,104.7569885,3.317622662,6.998597622,-0.425663114,58.78356552,-21.50421906,82.71897888,18.160063,79.273441,35.724026,43.636329,-19.873578,14.720007
552,533557670,87.09731293,-27.06450081,104.4637451,3.860293388,6.956053734,-0.469794601,69.10956573,-22.75458145,93.31871796,18.224401,79.389375,35.716196,44.788155,-20.252821,16.275319
553,533574337,88.60903931,-28.79078484,104.0992279,4.496252537,7.105278492,-0.452421665,82.15311432,-24.41853142,103.4886475,18.299339,79.507796,35.708656,46.157374,-20.659797,18.00013
554,533591004,90.33927917,-30.69028473,103.6572723,5.114332199,6.920951843,-0.709476829,92.34126282,-25.29093361,114.4532776,18.384578,79.623145,35.696831,47.696395,-21.081313,19.907685
555,533607671,92.2529068,-32.76212311,103.1386795,5.807548046,6.694360256,-1.021327376,100.1264038,-24.86061287,125.5653229,18.48137,79.734718,35.679809,49.365168,-21.495657,22.00044
556,533624338,94.18541718,-35.03181458,102.5363388,6.671261311,6.684266567,-1.168313622,97.45722198,-23.50653267,138.3200226,18.592558,79.846122,35.660337,50.989455,-21.887433,24.305774
557,533641005,95.99543762,-37.53165054,101.8085098,7.545103073,6.536950588,-1.220310688,84.41267395,-22.94992638,153.166748,18.71831,79.955071,35.639998,52.396333,-22.269932,26.858553
558,533657672,97.5745163,-40.28352737,100.8993454,8.470028877,6.66108942,-1.157535911,62.12953949,-23.83492661,169.5865173,18.859477,80.066089,35.620706,53.431825,-22.667181,29.684995
559,533674339,98.89594269,-43.26848221,99.74445343,9.270482063,6.742121696,-1.128900647,34.7653656,-26.67923164,185.2350159,19.013985,80.178458,35.601891,54.011248,-23.111835,32.772245
560,533691006,99.99764252,-46.42589951,98.31075287,9.844186783,6.873761654,-1.032305717,7.080385685,-30.26062775,197.435257,19.178055,80.293021,35.584686,54.129254,-23.616179,36.062833
561,533707673,101.0196991,-49.67506027,96.56153107,10.0856514,6.707198143,-1.045275569,-15.09013176,-34.62605667,204.9957886,19.346149,80.404808,35.567265,53.877752,-24.19328,39.479429
562,533724340,102.1817245,-52.90839386,94.50590515,10.06797886,6.409215927,-1.302651644,-24.88535309,-37.74693298,206.0427856,19.513949,80.511628,35.545554,53.462996,-24.822396,42.913475
563,533741007,103.6750031,-56.02170563,92.17502594,9.910799026,5.997232437,-1.584349036,-22.57087517,-38.63559723,200.7226715,19.679129,80.611582,35.519148,53.086815,-25.466323,46.258853
564,533757674,105.6532211,-58.91061401,89.59471893,9.832242966,5.708333015,-1.605940461,-10.19942951,-37.87388229,189.2268066,19.843,80.706721,35.492382,52.916825,-26.097554,49.412633
565,533774341,108.1350861,-61.4915657,86.78160858,9.899320602,5.626123905,-1.292299151,4.074404716,-36.46190643,173.0036011,20.007989,80.80049,35.470844,52.984732,-26.705252,52.296026
566,533791008,110.9951553,-63.72241974,83.71594238,10.18859673,5.803229809,-0.729553342,9.926398277,-36.12551117,154.9190369,20.177799,80.89721,35.458685,53.150172,-27.307344,54.87801
567,533807675,114.0812302,-65.59941864,80.38262939,10.60532188,5.818069458,-0.280131042,6.058694363,-37.10655594,137.2900696,20.354554,80.994178,35.454016,53.25115,-27.925787,57.166178
568,533824342,117.1978912,-67.12247467,76.82459259,10.98132706,6.004930019,-0.108036056,-6.901127815,-38.86042786,119.9027176,20.537576,81.09426,35.452215,53.136131,-28.573461,59.164557
569,533841009,120.098526,-68.30557251,73.19526672,11.18461323,6.252107143,-0.216489702,-25.76943398,-39.68757248,102.3871765,20.723986,81.198462,35.448607,52.70664,-29.234921,60.87101
570,533857676,122.6022644,-69.1955719,69.68366241,10.9230032,6.516347885,-0.306115329,-44.43832779,-38.69961166,85.8627243,20.906036,81.307068,35.443505,51.966001,-29.879915,62.302055
571,533874343,124.4823685,-69.82989502,66.54234314,10.60886765,6.532392025,-0.446930707,-62.03395081,-35.24043655,68.7447052,21.08285,81.415941,35.436056,50.932102,-30.467256,63.4478
572,533891010,125.7111053,-70.24976349,63.96057129,9.994613647,6.317293644,-0.647037983,-70.14428711,-30.08744049,51.6254425,21.249427,81.521229,35.425272,49.763031,-30.968713,64.308224
573,533907677,126.2240448,-70.48501587,62.13343811,9.406729698,5.920046806,-0.706638873,-70.72850037,-22.84681511,33.70088196,21.406206,81.619896,35.413495,48.584223,-31.349493,64.869905
574,533924344,126.0957947,-70.56575012,61.07497025,8.733108521,5.570910931,-0.477291048,-65.80800629,-15.57849407,17.0759964,21.551758,81.712745,35.40554,47.487423,-31.609135,65.154505
575,533941011,125.4364014,-70.51931,60.69573975,8.268014908,5.206467152,-0.384783268,-59.25270462,-9.137824059,2.871860266,21.689558,81.799519,35.399127,46.499878,-31.761432,65.202369
576,533957678,124.4080963,-70.37195587,60.87081909,7.998308659,4.858920574,-0.482492,-50.0241127,-3.553979635,-8.534209251,21.822863,81.880501,35.391085,45.666143,-31.820665,65.060132
577,533974345,123.1623001,-70.14450073,61.44048309,7.81888628,4.721286774,-0.540530145,-40.79475403,0.617904246,-17.01340294,21.953178,81.959189,35.382076,44.98623,-31.810367,64.776575
578,533991012,121.8336258,-69.86326599,62.24543381,7.707841396,4.643285275,-0.701861441,-32.5496254,3.463342667,-22.33262444,22.081642,82.036577,35.370378,44.443736,-31.752645,64.404365
579,534007679,120.496315,-69.54800415,63.17035675,7.60865736,4.685891628,-0.821181536,-26.38630676,5.272821426,-25.35886002,22.208453,82.114675,35.356692,44.003964,-31.664765,63.981717
580,534024346,119.1585388,-69.22354126,64.14357758,7.55220747,4.761142254,-0.906112432,-23.80783463,6.73669529,-26.30542946,22.334323,82.194027,35.34159,43.607167,-31.552487,63.543293
581,534041013,117.8253708,-68.90795135,65.14595032,7.540296078,4.720926285,-1.073377132,-22.00422859,8.431519508,-26.06772423,22.459995,82.272709,35.3237,43.24043,-31.411962,63.108831
582,534057680,116.5136337,-68.61180878,66.17470551,7.571024418,4.673321724,-1.349805355,-19.36493492,10.35613918,-25.16809273,22.586179,82.350598,35.301203,42.917681,-31.23936,62.689363
583,534074347,115.2330933,-68.34284973,67.25888824,7.60351181,4.518242836,-1.674252033,-14.49980068,13.00681305,-24.07164192,22.712904,82.425902,35.273299,42.676018,-31.02258,62.288169
584,534091014,114.0073166,-68.10354614,68.42670441,7.590146542,4.366368771,-1.966617465,-6.664756775,16.22992897,-23.00306702,22.839406,82.498675,35.240522,42.564939,-30.752081,61.904785
585,534107681,112.8530045,-67.89144897,69.68701172,7.49207449,4.270697594,-2.15302515,2.669312477,19.52148247,-22.05224991,22.964274,82.569853,35.204638,42.609428,-30.426723,61.537248
586,534124348,111.7831573,-67.70024109,71.04039764,7.340183258,4.194386005,-2.394087315,12.79801464,22.63076782,-21.35934448,23.08661,82.639759,35.164737,42.822728,-30.049544,61.181259
587,534141015,110.8166199,-67.52664185,72.46757507,7.219024181,4.18035984,-2.576829433,22.98180771,25.2134819,-20.63138962,23.206927,82.709432,35.12179,43.205758,-29.629319,60.837403
588,534157682,109.9395065,-67.36461639,73.94137573,7.11948061,4.198865414,-2.631344795,30.83702469,27.0421524,-19.99556923,23.325585,82.779413,35.077934,43.719708,-29.178616,60.504144
589,534174349,109.1406555,-67.22079468,75.41986847,7.120354652,4.199980259,-2.681796312,35.68441391,28.0361042,-18.64116478,23.444258,82.849413,35.033237,44.314448,-28.711348,60.193458
590,534191016,108.4333191,-67.10942078,76.83821869,7.222045898,4.230979443,-2.70757699,37.76756668,27.78683853,-16.00729752,23.564625,82.919929,34.988111,44.943907,-28.248234,59.92667
591,534207683,107.8286591,-67.0390625,78.13967896,7.44148159,4.30771637,-2.728052378,37.40534973,26.2856636,-12.51252365,23.68865,82.991724,34.942643,45.567329,-27.81014,59.718128
592,534224350,107.3806,-67.01368713,79.24490356,7.66824913,4.443233967,-2.690335274,35.9265976,22.92286491,-8.304980278,23.816454,83.065778,34.897804,46.166106,-27.428092,59.579712
593,534241017,107.1254501,-67.0320816,80.11197662,7.988848686,4.647954941,-2.565345049,34.33140945,18.45415115,-3.981842279,23.949601,83.143244,34.855048,46.738296,-27.120523,59.513348
594,534257684,107.0535126,-67.08802795,80.75052643,8.55967617,4.739235401,-2.43889761,32.70516586,14.01080894,-0.185468763,24.092262,83.222231,34.8144,47.283382,-26.88701,59.510257
595,534274351,107.1334152,-67.2067337,81.16927338,9.640601158,4.636719227,-2.264562368,29.67783546,10.18520737,4.942781925,24.252939,83.29951,34.776657,47.778013,-26.717257,59.592637
596,534291018,107.4603348,-67.40621185,81.31723022,10.87300777,4.702010155,-2.207453251,29.52620888,5.606537342,11.41882229,24.434156,83.377877,34.739866,48.270116,-26.623815,59.782951
597,534307685,108.1385498,-67.6680069,81.12674713,11.75093651,5.178404808,-2.09680891,31.8517437,-0.56712544,17.29768181,24.630005,83.464184,34.704919,48.800978,-26.633267,60.071246
598,534324352,109.144371,-67.9671936,80.61834717,12.42400742,5.59706974,-1.920550108,33.82039642,-6.377912998,21.69757843,24.837072,83.557468,34.67291,49.364651,-26.739566,60.432872
599,534341019,110.4053879,-68.21898651,79.90702057,12.1564312,5.77109766,-1.816605687,37.7787056,-11.06903553,20.61812401,25.039679,83.653653,34.642633,49.994296,-26.92405,60.776507
600,534357686,111.7111435,-68.3186264,79.21521759,11.12048626,5.862232208,-1.384710789,41.50354385,-13.3850069,12.11964703,25.22502,83.751357,34.619554,50.686022,-27.147133,60.978501
601,534374353,112.728035,-68.21328735,78.84829712,10.06648254,5.443431377,-1.021802664,42.28739548,-11.12558556,-1.737148285,25.392795,83.842081,34.602524,51.390812,-27.332559,60.949549
602,534391020,113.2639923,-67.87242126,79.02783203,9.079232216,4.752437115,-0.914678216,43.87728882,-5.471160412,-19.35845375,25.544116,83.921288,34.587279,52.1221,-27.423745,60.626908
603,534407687,113.2355118,-67.30440521,79.84457397,8.256715775,4.145397186,-0.862888038,45.32166672,2.526083708,-37.63483429,25.681728,83.990378,34.572898,52.877461,-27.381644,59.999661
604,534424354,112.6631775,-66.55162811,81.22296143,7.86340332,3.872158527,-0.773157656,43.48084641,11.04672718,-53.16923523,25.812785,84.054914,34.560012,53.602142,-27.197532,59.113507
605,534441021,111.706749,-65.67432404,82.91506195,7.939649105,3.994580746,-0.537217736,37.17233658,17.00504303,-63.19695282,25.945112,84.12149,34.551058,54.221681,-26.914115,58.060224
606,534457688,110.6920166,-64.73838806,84.6085968,8.192333221,3.871222973,-0.548123062,33.10010529,18.23426247,-66.6971817,26.081651,84.18601,34.541923,54.773349,-26.610211,56.948604
607,534474355,109.9043274,-63.79870224,86.08758545,8.649469376,3.952412367,-0.612496138,34.40988922,15.38406181,-65.17714691,26.225809,84.251884,34.531715,55.346847,-26.35381,55.862318
608,534491022,109.5188828,-62.87548447,87.21035767,9.154165268,4.296592712,-0.49881202,38.81138611,8.582875252,-61.28369522,26.378378,84.323494,34.523401,55.993703,-26.210762,54.840923
609,534507689,109.606842,-61.96739578,87.87746429,9.626616478,4.708534241,-0.154770836,42.49182129,-1.977130651,-56.48960495,26.538822,84.40197,34.520821,56.7019,-26.243714,53.89943
610,534524356,110.1095657,-61.04692078,88.08363342,9.916311264,4.942155838,0.216754287,42.7752533,-14.41273403,-52.89844131,26.704094,84.484339,34.524434,57.414821,-26.483926,53.017789
611,534541023,110.8090286,-60.08083725,87.95922089,9.916503906,4.822716713,0.469733983,37.21918869,-24.91096878,-51.98169708,26.869369,84.564718,34.532263,58.035141,-26.899109,52.151427
612,534557690,111.3845825,-59.05691147,87.72811127,9.577736855,4.50752449,0.761078477,24.34643555,-29.89225578,-53.75337601,27.028998,84.639843,34.544948,58.440915,-27.397313,51.255537
613,534574357,111.6360016,-57.98367691,87.54225922,9.269846916,4.204277039,0.981275141,7.360198975,-30.27426338,-56.74751282,27.183495,84.709914,34.561303,58.563585,-27.901884,50.309745
614,534591024,111.4670715,-56.89017868,87.50178528,9.016461372,3.779209375,1.046471,-10.37768841,-26.58232498,-59.52971649,27.333769,84.772901,34.578744,58.390624,-28.344923,49.317583
615,534607691,110.8770599,-55.81871796,87.65466309,8.821831703,3.478168726,1.040592432,-25.9393177,-19.76960373,-60.79068375,27.4808,84.83087,34.596087,57.958302,-28.674416,48.304405
616,534624358,109.9671555,-54.81606293,87.97866058,8.635692596,3.442059994,1.090273499,-36.76691818,-11.93844986,-59.26609802,27.624728,84.888238,34.614258,57.34552,-28.87339,47.316637
617,534641025,108.8577423,-53.91410828,88.41855621,8.580355644,3.455543995,1.01218605,-43.2559967,-4.820374489,-55.20246124,27.767734,84.94583,34.631128,56.624587,-28.95373,46.396596
618,534657692,107.7462997,-53.12809753,88.91786194,8.704193115,3.477269173,0.91508925,-40.72735596,0.740947545,-49.44121552,27.912804,85.003784,34.646379,55.945798,-28.941381,45.572576
619,534674359,106.8129959,-52.46350479,89.41107178,8.888373375,3.46189189,0.824503303,-30.54291916,3.862259865,-42.49040985,28.060944,85.061482,34.660121,55.436749,-28.87701,44.864403
620,534691026,106.1669235,-51.92180634,89.87663269,9.182267189,3.449767113,0.769442737,-14.79904938,5.796094418,-35.15133667,28.213982,85.118978,34.672945,55.190098,-28.780408,44.278547
621,534707693,105.8469238,-51.49993134,90.30573273,9.451871872,3.406498432,0.802541614,2.91377306,6.942367554,-27.88386345,28.371513,85.175753,34.686321,55.238661,-28.664702,43.813816
622,534724360,105.7812271,-51.18992615,90.71604919,9.580920219,3.382481813,0.845974505,17.20205116,8.301433563,-21.27304077,28.531195,85.232128,34.700421,55.525362,-28.526345,43.459265
623,534741027,105.8404083,-50.98846054,91.13632202,9.569092751,3.420973063,0.847695589,25.10087967,10.50592995,-15.16187954,28.69068,85.289144,34.714549,55.94371,-28.351246,43.206567
624,534757694,105.9254837,-50.89022446,91.58429718,9.378731728,3.558169127,0.737957716,27.91484833,13.22441101,-9.548840523,28.846992,85.348447,34.726848,56.408957,-28.130839,43.04742
625,534774361,105.9409714,-50.88637161,92.08057404,9.123214722,3.787585258,0.540131032,25.97997284,16.53004456,-4.650200367,28.999046,85.411573,34.73585,56.841957,-27.855338,42.969917
626,534791028,105.8386917,-50.96692276,92.63790131,8.779430389,3.840780258,0.220630139,21.78666687,20.11581421,-0.420094371,29.14537,85.475586,34.739527,57.205068,-27.520074,42.962915
627,534807695,105.6616516,-51.12860107,93.2532959,8.504413605,3.821723223,-0.175301567,20.05579376,23.48374367,3.719731808,29.28711,85.539281,34.736605,57.539331,-27.128678,43.024911
628,534824362,105.4930115,-51.3636055,93.88698578,8.20106411,3.870434284,-0.474624991,21.50069046,25.21422768,7.855600357,29.423794,85.603788,34.728695,57.897676,-26.708441,43.155838
629,534841029,105.4108582,-51.68072128,94.49620819,8.018322945,3.896762609,-0.77262944,25.65240479,25.4860611,12.93039417,29.557433,85.668734,34.715818,58.325216,-26.283673,43.371345
630,534857696,105.4693069,-52.0856514,95.05284119,7.867823601,3.924983025,-1.051844001,31.75231743,24.83268166,18.56565857,29.688563,85.73415,34.698287,58.854421,-25.869795,43.680773
631,534874363,105.6868744,-52.59005356,95.52076721,7.852035999,4.057011127,-1.296999574,37.24511719,23.14215088,25.16869926,29.81943,85.801767,34.67667,59.475173,-25.484092,44.100251
632,534891030,106.0579071,-53.205616,95.86286926,7.743354797,4.298485279,-1.445892215,40.59341812,20.50138664,32.75341797,29.948486,85.873408,34.652572,60.15173,-25.142402,44.646141
633,534907697,106.5501862,-53.94374466,96.04656982,7.65670681,4.444231033,-1.523766756,40.35765839,17.20447731,41.27926636,30.076098,85.947479,34.627176,60.824358,-24.855661,45.334129
634,534924364,107.1585312,-54.81315994,96.0328064,7.678404808,4.576541901,-1.643324971,37.77480316,13.15534401,50.66874313,30.204071,86.023755,34.599787,61.453938,-24.636405,46.178608
635,534941031,107.8777313,-55.80567169,95.79888153,7.788383961,4.732580662,-1.67224133,33.55212784,8.797253609,59.79427719,30.333877,86.102631,34.571916,62.01314,-24.489784,47.175179
636,534957698,108.7313232,-56.91468811,95.31197357,7.980280876,4.827367306,-1.759810328,28.82282066,4.021529198,68.85823059,30.466882,86.183087,34.542586,62.49352,-24.422759,48.322816
637,534974365,109.7597809,-58.12456894,94.5568924,8.321836472,4.853541374,-1.893433452,25.41229057,-0.553599298,77.15509033,30.605579,86.263979,34.511029,62.917058,-24.431986,49.608734
638,534991032,111.0248642,-59.43035126,93.52478027,8.935343742,4.881048679,-2.111874342,24.85809898,-4.303802967,85.22014618,30.754501,86.34533,34.475831,63.33136,-24.503716,51.02907
639,535007699,112.6020432,-60.84026718,92.17903137,10.02831841,4.892420292,-2.153686047,26.5068264,-7.410049438,94.07476044,30.92164,86.42687,34.439936,63.77314,-24.627217,52.596983
640,535024366,114.6381683,-62.34705353,90.42037201,11.32715511,5.103264809,-2.382493019,31.23647308,-11.28888988,103.5356522,31.110426,86.511924,34.400228,64.293748,-24.815365,54.322577
641,535041033,117.2626114,-63.91491699,88.14434052,12.47301579,5.431922436,-2.558898687,37.51576233,-15.85659885,112.1737518,31.31831,86.602456,34.35758,64.919011,-25.079642,56.19214
642,535057700,120.450386,-65.4871521,85.3289032,13.11018753,5.724600315,-2.471185923,40.38982773,-19.23098373,118.0325928,31.536813,86.697866,34.316394,65.592175,-25.400158,58.15935
643,535074367,124.1079941,-66.99343109,82.04129791,13.08308792,5.759799957,-2.517115593,40.76330948,-20.46988297,119.4173889,31.754864,86.793863,34.274442,66.271563,-25.741323,60.14964
644,535091034,128.061615,-68.33963776,78.53091431,12.10457611,5.640372753,-2.918105841,44.22590637,-18.65858269,112.9932785,31.956607,86.887869,34.225807,67.008661,-26.052299,62.032861
645,535107701,131.9857635,-69.45790863,75.24949646,10.56950188,5.279983044,-3.48437047,53.59876633,-12.6786871,97.57057953,32.132765,86.975869,34.167734,67.901974,-26.26361,63.659037
646,535124368,135.4501343,-70.34915924,72.68703461,9.21163559,4.677169323,-3.974547863,65.31911469,-2.763253212,75.79751587,32.286292,87.053822,34.101492,68.990626,-26.309664,64.922329
647,535141035,138.1295776,-71.02967072,71.14506531,8.426650047,3.942532539,-4.115076065,75.28794861,7.293570518,50.93124771,32.426736,87.119531,34.032907,70.245425,-26.188104,65.771183
648,535157702,140.0371857,-71.49671936,70.46923065,8.246756554,3.377144814,-4.018131256,77.89091492,11.14771652,28.89758873,32.564182,87.175817,33.965938,71.543607,-26.002309,66.252809
649,535174369,141.2166901,-71.73814392,70.29760742,8.397627831,3.133147001,-3.357541561,62.82758331,7.660385132,12.42115211,32.704142,87.228036,33.909979,72.590733,-25.874636,66.459828
650,535191036,141.8807526,-71.74369812,70.13253021,8.537103653,3.025260448,-2.750478745,32.26719284,-3.132297754,3.372321844,32.846427,87.278457,33.864138,73.12852,-25.926841,66.516033
651,535207703,142.1996765,-71.52746582,69.68367767,8.329216957,3.114053965,-2.301312923,-4.59007597,-16.90570068,-0.54477632,32.985247,87.330358,33.825783,73.052019,-26.208603,66.506953
652,535224370,142.3019562,-71.16351318,68.95362091,8.051730156,2.822689056,-2.373311996,-33.52885437,-27.29912758,-1.535081625,33.119443,87.377403,33.786228,72.493205,-26.663588,66.481368
653,535241037,142.2627563,-70.73200989,68.16300964,7.843225002,2.531319857,-2.726291418,-45.35333252,-31.40444946,-2.826565027,33.250163,87.419592,33.74079,71.737316,-27.186995,66.434259
654,535257704,142.1027832,-70.28378296,67.54864502,7.695896626,2.204385042,-3.029694796,-42.50247955,-30.23875427,-6.012108326,33.378428,87.456332,33.690295,71.028941,-27.690974,66.334057
655,535274371,141.9516144,-69.84602356,67.22525787,7.596512318,1.694420338,-3.143931627,-25.46842766,-26.21982002,-10.18309021,33.505037,87.484572,33.637896,70.604467,-28.127971,66.164339
656,535291038,141.8787994,-69.43247223,67.24847412,7.577300549,1.380195618,-2.935091972,-1.223847985,-20.66526222,-14.92531395,33.631325,87.507575,33.588978,70.58407,-28.472392,65.915584
657,535307705,141.925705,-69.04597473,67.56467438,7.608422756,1.375103116,-2.547379017,22.39390945,-15.52610111,-18.84435272,33.758132,87.530493,33.546522,70.957302,-28.73116,65.601511
658,535324372,142.0667267,-68.67941284,68.08065033,7.709208488,1.592230082,-2.175770283,39.17590332,-11.87670422,-21.58669281,33.886619,87.55703,33.510259,71.610234,-28.929105,65.241733
659,535341039,142.193222,-68.31795502,68.74038696,7.8569417,1.74173677,-2.036317587,46.25505447,-9.629516602,-24.01496887,34.017568,87.586059,33.47632,72.381152,-29.089597,64.841484
