PacketCounter,SampleTimeFine,Euler_X,Euler_Y,Euler_Z,Acc_X,Acc_Y,Acc_Z,Gyr_X,Gyr_Y,Gyr_Z,
0,4133193785,179.1999512,-37.73007965,170.0154572,0,0,0,0,0,0, 
1,4133210452,179.2261658,-37.85891342,170.0161591,6.958437443,0.577646792,-8.811752319,3.621181965,8.168589592,-0.246419802, 
2,4133227119,179.2497864,-38.00811386,170.0477295,7.100733757,0.596342504,-8.830771446,4.605798721,9.411780357,-1.693448424, 
3,4133243786,179.2674255,-38.24133301,170.1110077,7.118699074,0.531929314,-8.941139221,5.4373703,14.47147751,-3.128427744, 
4,4133260453,179.2744751,-38.60547256,170.1731567,7.150596142,0.486657143,-8.913200378,4.778717041,22.32664871,-2.963612318, 
5,4133277120,179.2650452,-39.07036209,170.2233582,7.157361984,0.513450563,-8.620613098,3.364999533,28.36435699,-2.314741373, 
6,4133293787,179.2477875,-39.55442047,170.2626343,7.190777302,0.566274464,-8.318080902,2.504462004,29.50875282,-1.764848351, 
7,4133310454,179.2030334,-40.03673172,170.3012695,7.281077385,0.641458631,-8.255756378,0.854179561,29.40503311,-1.711138129, 
8,4133327121,179.1575775,-40.48960114,170.3502197,7.212051392,0.602434576,-8.018655777,1.229598641,27.64696884,-2.172116518, 
9,4133343788,179.0740967,-40.98690796,170.4198608,7.359800339,0.497651458,-8.244579315,-0.21381551,30.33004951,-3.025343418, 
10,4133360455,179.0121613,-41.58650208,170.4898071,7.033044815,0.391768694,-7.988369942,1.14181304,36.47062683,-2.891559124, 
11,4133377122,178.9795532,-42.24116898,170.5691223,7.13670063,0.3383331,-7.909762383,3.289463997,39.78490067,-3.157256842, 
12,4133393789,178.9254303,-42.97357559,170.6511383,7.009097099,0.427621961,-7.506142616,2.257909536,44.45508194,-3.225301266, 
13,4133410456,178.8184662,-43.65139771,170.7715149,6.486938953,0.584065497,-6.908033848,0.524391174,41.21445847,-4.662999153, 
14,4133427123,178.6551514,-44.18032455,170.9612122,6.376389027,0.567054808,-6.325331688,0.190770552,32.36281586,-7.804181099, 
15,4133443790,178.4499359,-44.54694366,171.2671204,5.999827385,0.616593778,-5.699018478,2.591710567,22.77763939,-12.84036827, 
16,4133460457,178.1544495,-44.9429512,171.5625,5.232042789,0.637702584,-5.626032829,-3.148987293,24.58189774,-12.18152237, 
17,4133477124,177.9747925,-45.39972305,171.7218933,4.262056828,0.537664831,-4.710498333,-1.886726618,28.07973671,-6.116227627, 
18,4133493791,177.806076,-45.58514786,171.7849274,3.870308161,0.630343378,-4.196929932,-5.303163528,11.68095398,-2.54855442, 
19,4133510458,177.5611115,-45.52841187,171.8479919,4.273140907,0.643371642,-4.209742069,-9.873329163,-2.825133085,-3.091543913, 
20,4133527125,177.3043823,-45.29920197,171.8602295,4.597623825,0.68113482,-4.63880682,-12.75557518,-13.24342155,-1.443136573, 
21,4133543792,177.0635376,-44.97375488,171.8019562,5.054143906,0.720998406,-5.085562229,-14.79939461,-19.14983559,1.187977195, 
22,4133560459,176.8634491,-44.64455414,171.705307,5.511435986,0.569889307,-5.381711006,-13.96130371,-19.46330643,2.738867044, 
23,4133577126,176.7091064,-44.27741241,171.5958557,5.93326664,0.35643959,-5.559769154,-11.72563457,-21.77820396,3.115234375, 
24,4133593793,176.52771,-43.73555756,171.5256195,6.51563549,0.22682938,-5.748209,-11.68136024,-32.15211105,0.774371147, 
25,4133610460,176.2267303,-43.12674332,171.5105896,6.176080704,-0.139133304,-5.81469202,-16.54798317,-36.01717758,-1.996521115, 
26,4133627127,175.8017578,-42.56616211,171.6074524,6.128290176,-0.115845278,-5.971099377,-19.423172,-32.77418137,-6.934955597, 
27,4133643794,175.3519745,-42.0382309,171.8469238,6.137935638,0.531558931,-6.629547596,-15.20246315,-30.27833176,-13.38365746, 
28,4133660461,174.9161072,-41.39846039,172.1147919,5.648591995,1.045390129,-7.253821373,-13.34321117,-36.74041367,-15.56344891, 
29,4133677128,174.4442902,-40.53524017,172.3073578,5.788433075,1.049895287,-7.081913948,-18.62054825,-50.26603317,-13.85035896, 
30,4133693795,173.8778687,-39.48130035,172.4303741,6.2380023,1.091207266,-6.840039253,-27.12539673,-61.83055496,-12.4298172, 
31,4133710462,173.2980499,-38.30582047,172.523819,6.620168209,1.132625699,-7.126335621,-29.15517807,-69.09356689,-12.59914112, 
32,4133727129,172.8669281,-37.12096405,172.5853271,6.594936371,1.007245421,-7.385911465,-21.50168419,-69.71018982,-11.85363197, 
33,4133743796,172.6651917,-35.96030426,172.5914307,6.314657211,0.863747001,-7.460126877,-9.782183647,-68.53659821,-9.468640327, 
34,4133760463,172.5765533,-34.75727463,172.5280609,6.09398365,1.147466421,-7.379983425,-5.422986507,-71.46748352,-6.614024639, 
35,4133777130,172.4566498,-33.5306778,172.405777,6.197284698,1.452935934,-7.304414749,-9.223937988,-73.24588013,-3.990150928, 
36,4133793797,172.2364655,-32.2972374,172.25914,6.136133671,1.349094152,-7.407092571,-15.90287304,-73.81520844,-2.977408171, 
37,4133810464,172.0390015,-31.08186531,172.0887756,6.076721668,1.088331342,-7.667524815,-15.133008,-72.9101181,-1.818178415, 
38,4133827131,171.9347076,-29.8300724,171.8942871,6.049687386,1.234003067,-7.958516121,-10.09593678,-75.26122284,-0.97711879, 
39,4133843798,171.8428192,-28.56396675,171.7237701,6.1285882,1.716449976,-8.554477692,-8.4342556,-75.95245361,-2.356980324, 
40,4133860465,171.6794434,-27.50704575,171.583786,6.492674828,1.880047679,-8.597078323,-11.68547821,-63.30834961,-2.2456007, 
41,4133877132,171.5170135,-26.81794357,171.4690247,6.017064571,1.542690992,-8.399353027,-10.82357502,-41.28407288,-0.492535412, 
42,4133893799,171.4986115,-26.30660629,171.3545685,5.047938824,1.220467806,-8.0418787,-2.111050844,-30.73949814,1.023333311, 
43,4133910466,171.5984192,-25.71577263,171.2062378,4.74801445,1.432542324,-7.99196291,4.14422369,-35.73101425,2.176263094, 
44,4133927133,171.6255341,-25.0048275,171.0429535,5.033978939,1.985283256,-7.953141689,-0.51162976,-42.98241425,2.002394915, 
45,4133943800,171.4576416,-24.2691021,170.893219,5.274305344,2.12144208,-8.521296501,-11.75963402,-44.35530472,1.035004139, 
46,4133960467,171.2205963,-23.71578979,170.7513733,5.224995613,1.720389247,-8.99765873,-15.62674236,-33.48188782,2.126741409, 
47,4133977134,171.114212,-23.36935043,170.6078186,4.927920341,1.365615129,-8.96618557,-7.763262272,-21.24166489,4.035832882, 
48,4133993801,171.1076508,-23.07773018,170.4997253,4.998376369,1.758180857,-8.921956062,-0.893961012,-17.69935608,2.609431028, 
49,4134010468,171.0259705,-22.71097755,170.4181824,5.127418518,2.14055562,-9.032008171,-4.747168541,-21.92921066,0.44890815, 
50,4134027135,170.7494965,-22.31880569,170.3553772,5.458087444,2.190392494,-9.561003685,-15.97224236,-23.27526283,-0.886214733, 
51,4134043802,170.4008026,-22.15944481,170.3344727,5.757354736,1.919200063,-10.68078709,-19.33396912,-9.112155914,-1.028774142, 
52,4134060469,170.1122894,-22.34234428,170.3924255,5.701422215,1.96317029,-11.4794569,-13.93003464,11.87281322,-1.928151965, 
53,4134077136,169.9223328,-22.7300396,170.5147247,5.457256794,2.138263464,-11.65664291,-6.516283035,24.59704208,-3.258890867, 
54,4134093803,169.7090302,-23.29913521,170.6841278,5.606118679,2.681689978,-11.52675724,-6.752038479,35.77554321,-3.779350758, 
55,4134110470,169.4322205,-24.05431747,170.8904724,5.71551609,2.989952326,-11.22822571,-9.551310539,47.1322403,-3.567686081, 
56,4134127137,169.1377869,-24.89677429,171.1407318,5.565654755,2.852361679,-10.94399261,-9.343250275,52.72717285,-4.654130936, 
57,4134143804,168.8664551,-25.71780777,171.4325256,5.640703201,2.416225195,-10.54403496,-6.677501202,51.90101242,-6.765264511, 
58,4134160471,168.6473999,-26.52454185,171.7661743,5.921414375,2.207291365,-10.51119709,-2.200267315,51.50662994,-8.816321373, 
59,4134177138,168.4779205,-27.41963768,172.1655884,6.200375557,2.274894476,-10.42058182,2.839759111,57.4024353,-10.90370178, 
60,4134193805,168.391922,-28.49437523,172.635788,6.674408436,2.191305876,-9.987250328,10.2191267,68.6999054,-12.10401821, 
61,4134210472,168.3761292,-29.7445488,173.1613922,6.86485815,2.077486038,-8.980873108,16.56354523,79.5476532,-12.48920345, 
62,4134227139,168.3669586,-31.07183838,173.7168274,7.042149067,1.902106404,-8.078809738,18.50120926,84.31829834,-12.7011137, 
63,4134243806,168.4773254,-32.43647385,174.2731323,7.478179455,1.733940959,-7.942408562,26.38524055,86.42502594,-11.96474743, 
64,4134260473,168.6791992,-33.95606613,174.8847656,7.822417736,1.589891195,-7.896591663,34.42106247,95.96242523,-12.63180733, 
65,4134277140,168.9994659,-35.77570343,175.552063,7.919940948,1.372309685,-7.455667019,44.33588791,113.9721527,-11.66800022, 
66,4134293807,169.5400543,-37.94101334,176.1771851,7.659427166,1.093608022,-6.869017601,57.18267059,133.7256622,-5.848877907, 
67,4134310474,170.3126984,-40.2591362,176.6725159,6.73842001,1.241025209,-5.923017979,67.36528015,141.4543304,1.092380285, 
68,4134327141,171.2359009,-42.4854126,177.0049133,6.151251793,1.43294549,-5.208946228,70.85482788,134.7155609,6.141793728, 
69,4134343808,172.2540131,-44.44749832,177.276535,6.452991962,1.37763536,-4.837163448,74.6033783,118.6602631,4.717333794, 
70,4134360475,173.269928,-46.26700592,177.7657471,7.419538975,1.254990816,-4.835654259,84.16759491,111.3444519,-7.170282364, 
71,4134377142,174.2162628,-48.15341568,178.4889679,8.016844749,1.21257329,-5.259492397,90.97303009,116.1569595,-17.40703773, 
72,4134393809,175.1276398,-50.1624527,179.3168335,8.234270096,1.04679513,-5.533764362,94.63026428,123.4638824,-21.5648365, 
73,4134410476,176.0938568,-52.19018173,-179.7420654,7.868793011,0.528375268,-5.751511574,104.3580322,124.434639,-26.37516785, 
74,4134427143,177.1161194,-54.21321487,-178.5445557,7.583324432,0.227633953,-5.796876431,121.2765808,124.1333237,-36.13062286, 
75,4134443810,178.268631,-56.37084961,-177.1273651,7.116782665,0.072615504,-5.489703178,141.4678192,131.7156372,-43.48428726, 
76,4134460477,179.6522064,-58.57242584,-175.6735535,6.507459641,-0.417120695,-4.686686516,158.9818115,133.3433685,-44.78236771, 
77,4134477144,-178.5461884,-60.65266037,-174.2589264,5.850248337,-1.051159739,-3.656342506,183.7384033,124.818634,-44.37939072, 
78,4134493811,-176.2237549,-62.53600311,-173.0583344,4.450800419,-0.787579298,-3.040038824,205.1223297,111.7522354,-39.58536148, 
79,4134510478,-173.523819,-64.01325989,-172.22995,3.438377619,-0.557539642,-3.080842495,208.8012695,86.72005463,-30.34022331, 
80,4134527145,-170.6492767,-65.23326874,-171.6791229,3.492851734,0.361074448,-3.146043539,204.7533264,70.99751282,-24.23547935, 
81,4134543812,-167.4902649,-66.40991974,-171.5531311,2.988952637,1.337949753,-3.191594601,198.8680115,69.17857361,-16.52820587, 
82,4134560479,-164.1024323,-67.49829865,-171.9607697,2.312833309,1.618998289,-3.438904762,183.2281952,66.11105347,-6.81978178, 
83,4134577146,-161.9258118,-68.11960602,-171.7768707,3.954702377,2.007665157,-3.479762793,143.3227234,34.8927536,-14.94227505, 
84,4134593813,-161.7335815,-68.36730194,-170.4023895,8.101675987,2.275453329,-5.558209419,90.68609619,5.051152229,-33.73876572, 
85,4134610480,-162.0870667,-68.95771027,-168.9520721,11.38742542,0.881966829,-6.109639645,62.46952057,24.31360626,-41.15944672, 
86,4134627147,-161.3981476,-70.26703644,-168.5019073,13.09692192,-0.410962522,-5.478843212,69.31906891,72.14536285,-33.6013298, 
87,4134643814,-158.9582977,-71.85349274,-169.7639923,11.97264481,-2.011389017,-4.010894299,77.44402313,98.37637329,-9.186293602, 
88,4134660481,-155.5575104,-73.2911911,-172.0896759,10.02030945,-4.483306408,-2.832064152,73.57611847,96.19554138,5.199897289, 
89,4134677148,-151.4660797,-74.64662933,-174.9604492,7.192369938,-5.035936832,-1.480799317,82.5455246,94.48664093,6.337146282, 
90,4134693815,-147.1558838,-75.67216492,-177.6809692,5.094164371,-4.87967968,-0.921558261,103.3825607,74.74449921,4.607527733, 
91,4134710482,-143.5802002,-76.11789703,-179.2254486,5.396540165,-4.165732384,-1.253120542,127.1784897,35.36380386,3.446592093, 
92,4134727149,-140.8874359,-76.18384552,-179.6789703,7.104029655,-3.760783672,-1.9858042,137.6095123,7.642931461,2.799502134, 
93,4134743816,-139.0525513,-76.12223816,-179.2243042,9.015163422,-3.624237299,-2.163311481,139.0161896,-6.489900112,-2.548964024, 
94,4134760483,-137.8477325,-76.01242065,-178.2022858,9.464788437,-3.004927158,-2.557530165,134.2155457,-14.17532063,-6.606382847, 
95,4134777150,-137.2880707,-75.88859558,-176.8292084,9.295170784,-2.197062254,-2.611053944,115.9098434,-18.41571045,-9.680633545, 
96,4134793817,-137.4641571,-75.66625214,-175.0653381,9.260424614,-1.471928716,-2.29944396,94.43354034,-26.85731506,-10.03115463, 
97,4134810484,-138.2220764,-75.34078217,-173.015686,9.367199898,-0.856442094,-2.667491436,76.0129776,-34.55882263,-9.657367706, 
98,4134827151,-138.8384857,-75.04476929,-171.259552,9.804493904,-0.947272837,-3.277674675,67.32673645,-30.55720711,-8.366660118, 
99,4134843818,-138.6643677,-74.96377563,-170.3194122,9.774908066,-1.24935019,-3.552239418,67.39670563,-12.69578075,-7.718868732, 
100,4134860485,-137.9463654,-75.03895569,-169.9329071,9.197518349,-2.006295919,-2.901141405,67.97079468,-0.035480577,-7.437378407, 
101,4134877152,-137.348175,-75.05318451,-169.4203033,8.759355545,-2.557430029,-1.987670064,68.1122818,-4.120300293,-6.401814938, 
102,4134893819,-137.4408875,-74.85328674,-168.2834167,8.64621067,-2.714473009,-1.784362912,62.80344009,-20.2142334,-4.878814697, 
103,4134910486,-138.3348541,-74.48985291,-166.4007874,8.619908333,-2.935615301,-2.159721613,57.780056,-35.59655762,-7.497389317, 
104,4134927153,-139.7866974,-74.0450058,-163.9346619,8.411426544,-3.078317881,-2.687131166,57.7887764,-45.83241653,-12.80280399, 
105,4134943820,-141.5396729,-73.57203674,-161.1465454,8.296916962,-2.791082382,-3.189911366,57.94964218,-50.88954163,-18.0911808, 
106,4134960487,-143.345871,-73.1444931,-158.3930054,8.526719093,-2.216587067,-3.424036741,52.39948273,-48.5417099,-21.88525772, 
107,4134977154,-145.2450409,-72.70185852,-155.7029877,9.082185745,-1.458627582,-3.743531227,42.82888794,-48.58380508,-23.01740837, 
108,4134993821,-146.7433319,-72.36766815,-153.4904175,9.349617004,-1.181245089,-4.055013657,39.25548172,-38.26081848,-21.85947227, 
109,4135010488,-148.1136627,-72.11354828,-151.5363159,9.11950016,-0.972721875,-3.749896288,31.98276329,-31.45131111,-21.98930931, 
110,4135027155,-149.3833618,-71.94859314,-149.8199615,9.026356697,-0.571238995,-3.389624119,24.33553505,-24.28801918,-22.09177971, 
111,4135043822,-150.778183,-71.81305695,-148.1997833,9.050103188,-0.189368546,-2.999727964,11.28753281,-21.46655083,-22.22465134, 
112,4135060489,-152.4000702,-71.67721558,-146.5228882,9.078191757,-0.090083964,-2.806445837,0.84391582,-21.49646378,-23.9280014, 
113,4135077156,-154.2143097,-71.42861938,-144.7197113,9.193359375,-0.08508198,-3.111894608,-3.608750582,-28.03238106,-23.9767437, 
114,4135093823,-155.9677887,-71.17715454,-143.0351563,9.60012722,-0.009752157,-3.415635824,-6.839447498,-26.65538979,-23.12937546, 
115,4135110490,-157.4167938,-71.08440399,-141.7282562,9.949142456,0.272234797,-3.538091183,-10.09807014,-14.46231937,-21.19279099, 
116,4135127157,-158.6815948,-71.19346619,-140.7481995,10.18967056,0.619464993,-3.333795071,-17.57581902,-0.352066636,-20.18650055, 
117,4135143824,-159.8463287,-71.42710114,-139.9809875,10.60598183,0.816915214,-3.169222832,-23.59298134,8.576455116,-18.86761665, 
118,4135160491,-160.7952881,-71.8480835,-139.5187531,11.21405029,0.654474318,-3.078104019,-27.91651154,21.53366852,-16.83522034, 
119,4135177158,-161.3205872,-72.52140808,-139.5042877,10.90822887,0.400676459,-2.098928452,-27.98219681,38.81931305,-13.45675373, 
120,4135193825,-161.7816162,-73.14684296,-139.6068726,9.951684952,0.166272864,-1.018247247,-30.8316555,36.87091446,-10.23040676, 
121,4135210492,-162.5962982,-73.47758484,-139.4240417,9.366808891,-0.223832279,-0.454461217,-35.68875122,18.6222477,-9.128326416, 
122,4135227159,-163.6878967,-73.51061249,-138.914856,9.646728516,-0.838122606,-0.316173226,-33.54614639,0.067765079,-8.930418015, 
123,4135243826,-164.8191376,-73.36875916,-138.2480621,10.56197166,-1.342673659,-0.928904116,-26.89818001,-10.60220051,-8.708109856, 
124,4135260493,-165.7940063,-73.24081421,-137.5959167,11.10620213,-1.412730217,-1.61049974,-18.42882538,-9.598153114,-8.96352005, 
125,4135277160,-166.4453583,-73.26217651,-137.146286,11.1010952,-1.137387276,-1.863025546,-10.68913364,0.059415095,-7.89015007, 
126,4135293827,-166.4223938,-73.53985596,-137.1290741,10.96853161,-0.901435077,-1.218123317,4.90100193,16.7985611,-4.221809864, 
127,4135310494,-166.0814667,-73.84952545,-137.2012329,10.63042641,-1.45568049,-0.110392287,18.80787277,19.01575851,-3.255203485, 
128,4135327161,-165.7993927,-73.99944305,-136.9764557,9.891716003,-2.20753026,0.334014237,32.33638382,8.482948303,-5.812473774, 
129,4135343828,-165.3276062,-74.01002502,-136.750351,8.91737175,-1.904628396,-0.059439398,43.73835373,0.339530647,-3.773467779, 
130,4135360495,-164.1374969,-73.99182129,-137.0655975,8.58386898,-1.086996436,-0.624014974,55.5653801,0.973908067,5.329498291, 
131,4135377162,-161.9180756,-74.09644318,-138.2681885,8.695631027,-0.098346569,-0.734240532,66.09838867,12.44178581,17.15886688, 
132,4135393829,-159.3281708,-74.14431,-139.8945465,8.783593178,0.24457173,-0.772253513,63.83216095,12.21218967,24.26057053, 
133,4135410496,-156.499115,-74.20491791,-141.8309631,9.824298859,-0.019279463,-1.556785464,60.23688889,15.91988659,28.02881241, 
134,4135427163,-153.9136505,-74.23730469,-143.6004944,10.93264389,0.429626346,-2.757016897,55.2245903,14.49988365,25.44107437, 
135,4135443830,-152.6735077,-74.37760925,-144.4774017,13.18762684,-0.178140745,-4.505013466,26.03523254,14.54427147,8.979818344, 
136,4135460497,-152.5843658,-74.65772247,-144.6374512,13.14713287,-0.426817596,-5.547396183,-1.591888666,16.7311821,-5.399668694, 
137,4135477164,-152.8733521,-75.0519104,-144.6855316,11.53169918,-0.57840836,-4.777335167,-17.76273537,22.0015564,-10.12140846, 
138,4135493831,-152.2858734,-75.58623505,-145.2842407,9.356668472,-1.570707798,-3.517085552,2.896385193,33.28747559,-6.638114929, 
139,4135510498,-150.0178528,-76.32870483,-147.0181274,7.364606857,-1.883291602,-2.600892067,37.56437302,51.8357048,0.664947271, 
140,4135527165,-146.556839,-77.04253387,-149.5372314,6.259741306,-1.31081903,-0.83327198,62.99339294,55.36885452,7.15148735, 
141,4135543832,-143.290863,-77.44120789,-151.8363037,6.600797653,-1.743810654,0.004344564,63.81835175,37.72283936,11.24618435, 
142,4135560499,-141.865921,-77.42428589,-152.3639832,7.633796215,-1.780037284,-0.457998693,56.96481323,4.021598816,6.159413338, 
143,4135577166,-141.7711182,-77.31748199,-151.6852875,9.600809097,-1.244714975,-1.787834883,47.77859497,-9.894287109,-2.969580173, 
144,4135593833,-141.2498627,-77.35505676,-151.5070038,10.9813776,-0.686428428,-3.1776793,44.0649147,0.949328303,-3.169689417, 
145,4135610500,-139.2964478,-77.67314911,-152.8785706,11.59514141,-0.452809334,-3.369561672,39.2328949,26.70100212,1.552244425, 
146,4135627167,-137.2350769,-78.01927948,-154.5035706,10.68311024,-0.661967993,-2.378067493,30.77837563,29.81036377,1.566918254, 
147,4135643834,-135.5065308,-78.32463837,-155.9580688,9.545477867,-0.821522176,-2.094157934,20.72471428,26.2575779,0.380887955, 
148,4135660501,-134.0769196,-78.52850342,-157.0989227,8.25185585,-1.12112844,-1.532948375,21.14770889,19.01614952,1.077900529, 
149,4135677168,-133.2510681,-78.65802002,-157.4604492,8.157411575,-0.434164703,-0.949195027,30.72086525,9.124056816,-2.574386358, 
150,4135693835,-133.3323975,-78.58033752,-157.0466614,8.951097488,-0.987714648,-1.0499717,21.90060997,-6.104983807,0.118049137, 
151,4135710502,-133.4367371,-78.50787354,-156.6864166,9.609313965,-1.498185515,-1.548725605,17.3629837,-5.450356483,0.297645479, 
152,4135727169,-133.1375732,-78.46821594,-156.6377563,10.41395664,-1.888581514,-1.384289861,23.25212097,-1.400267959,1.417422175, 
153,4135743836,-132.0766754,-78.57390594,-157.3576355,10.96682072,-2.125594139,-1.336761951,23.75981903,11.27613354,1.233766794, 
154,4135760503,-130.6830597,-78.76770782,-158.517868,10.32425499,-2.02897501,-0.559093356,17.79014587,18.60546684,0.397676468, 
155,4135777170,-130.052124,-78.88237,-158.9854431,9.302942276,-1.618536472,0.110282749,12.74909019,9.25634861,-1.635788441, 
156,4135793837,-130.3954163,-78.83359528,-158.5367584,9.321683884,-0.95949465,-0.530529857,8.198283195,-5.206327915,-1.034362912, 
157,4135810504,-130.6456909,-78.81628418,-158.2955627,9.553904533,-0.554956555,-0.94573313,1.550848961,-2.150026083,-0.943437397, 
158,4135827171,-130.6999054,-78.83531952,-158.3120728,9.299183846,-0.695870221,-0.890831351,-1.854878068,1.542934775,-0.646675885, 
159,4135843838,-131.0288696,-78.77777863,-158.1009827,9.219923019,-0.841549456,-1.215111017,-4.944460869,-3.464943409,1.09563446, 
160,4135860505,-131.2978821,-78.73734283,-158.0427246,9.31962204,-2.155841827,-1.630811214,-10.34170055,-1.45712626,1.470835328, 
161,4135877172,-131.4348297,-78.68060303,-158.076828,8.847169876,-3.16673255,-1.367019057,-7.850197792,-1.29643178,2.908834696, 
162,4135893839,-133.2444,-78.3988266,-156.3744354,8.344296455,-3.45546031,-0.431996167,-6.109622955,-25.73578644,-1.086717367, 
163,4135910506,-136.2683105,-77.7939682,-153.2427063,9.106385231,-3.566414356,-0.850724995,4.771705627,-52.4056778,-1.457011938, 
164,4135927173,-139.0062561,-77.229599,-150.1550903,11.19789028,-1.07096374,-3.09960866,18.90704918,-51.347332,-6.727919579, 
165,4135943840,-138.3143158,-77.38542938,-150.4902954,11.58732605,0.661045671,-2.534703016,24.23589516,10.60075092,-2.810827494, 
166,4135960507,-138.6621552,-77.46837616,-149.9862518,10.20767689,-1.268950701,-1.349770427,11.00240231,0.021194523,-8.171474457, 
167,4135977174,-139.5067749,-77.43913269,-148.9269867,10.53291225,-1.581139326,-2.359969616,13.72173882,-9.706746101,-9.230630875, 
168,4135993841,-140.1612701,-77.45956421,-148.2393951,10.30147076,-2.094344378,-2.33774209,3.36480546,-4.182112694,-7.590806007, 
169,4136010508,-140.6525421,-77.41223145,-147.8002777,10.27410793,-1.498739958,-1.98900044,-1.390840173,-5.176884174,-2.559675694, 
170,4136027175,-140.2798309,-77.49180603,-148.1021271,9.502759933,-1.552954078,-1.474334121,7.058413029,6.854420662,0.038508702, 
171,4136043842,-139.990036,-77.55447388,-148.2279205,9.862689972,-0.980584741,-1.198457599,12.38310909,4.595498085,-1.111764789, 
172,4136060509,-139.3167267,-77.68689728,-148.776001,10.09905052,-1.236766338,-1.328522801,10.63493824,11.28527069,0.277257681, 
173,4136077176,-138.894104,-77.73522949,-149.1240692,9.698302269,-1.816692233,-1.269376159,7.305743694,5.767649174,1.510419965, 
174,4136093843,-138.601593,-77.76020813,-149.3477936,9.525319099,-1.894762754,-1.775272608,6.772946835,3.668520212,1.204347849, 
175,4136110510,-138.0225067,-77.87567902,-149.8842163,9.080997467,-1.603301644,-1.391860366,5.627624512,10.35494995,0.513329983, 
176,4136127177,-137.9210205,-77.94393158,-149.9752808,9.007733345,-1.326467037,-0.663287342,3.078787565,4.472515583,-1.842007756, 
177,4136143844,-138.0622864,-77.94497681,-149.7877045,9.495111465,-1.119361401,-0.721871674,4.848997116,-0.862475693,-1.736778021, 
178,4136160511,-138.2903595,-77.97647858,-149.6008148,9.795319557,-0.979987562,-1.221425056,-0.415879816,0.510486722,-2.94791317, 
179,4136177178,-138.3779907,-78.04693604,-149.6121063,9.703142166,-1.203499317,-1.370211482,-3.626176119,3.9131217,-2.647937298, 
180,4136193845,-138.6143341,-78.09558868,-149.4942322,9.719254494,-1.301998258,-1.542309642,-4.959739208,1.883686185,-2.976675987, 
181,4136210512,-138.6235504,-78.1989975,-149.6434174,9.927979469,-1.148599267,-1.761177421,-7.030553818,6.528678894,-2.660667181, 
182,4136227179,-138.622345,-78.32956696,-149.8916626,9.754308701,-1.198233247,-1.346828341,-12.20993614,8.544506073,-2.850138903, 
183,4136243846,-139.0864105,-78.36978149,-149.7447205,9.827720642,-1.060346484,-1.390028834,-16.91422653,1.310423732,-2.87327981, 
184,4136260513,-139.4758453,-78.36955261,-149.6318665,9.909440041,-1.245230556,-1.649806857,-14.44751167,-0.241303787,-0.965119064, 
185,4136277180,-139.7081604,-78.39467621,-149.6488495,9.908341408,-1.507694125,-1.920402646,-12.64860153,1.940649748,-0.761766911, 
186,4136293847,-139.5437012,-78.47542572,-150.0089874,9.835065842,-1.837702394,-1.895712256,-9.006749153,7.160437584,0.216164932, 
187,4136310514,-139.3351288,-78.57023621,-150.3869629,9.358161926,-2.034247875,-1.677060723,-7.413143158,7.916798115,-0.215998352, 
188,4136327181,-139.472641,-78.5990448,-150.3672028,9.349967003,-2.03740263,-1.444878578,-4.796842575,1.823790789,-1.252326727, 
189,4136343848,-139.7890778,-78.57802582,-150.1169434,9.761996269,-1.669341207,-1.72828114,-1.980866909,-2.224392414,-1.395975351, 
190,4136360515,-139.8825531,-78.58668518,-150.0428772,9.817048073,-1.37292099,-1.640378237,1.032755375,0.49531123,-0.96132791, 
191,4136377182,-140.0036011,-78.58440399,-149.9229431,9.772809982,-1.199926257,-1.547183037,2.075140953,-0.358443379,-0.95544976, 
192,4136393849,-140.0714722,-78.58216858,-149.8478394,9.7651577,-1.208857059,-1.525269151,2.634163618,-0.01201876,-0.552254558, 
193,4136410516,-140.1417694,-78.55438995,-149.7538147,9.677038193,-1.326043606,-1.445747852,3.595459938,-1.332635403,0.257151544, 
194,4136427183,-140.3676758,-78.47626495,-149.4957123,9.516757011,-1.412053347,-1.462753654,3.903734446,-4.911946297,0.670745492, 
195,4136443850,-140.8111877,-78.37252808,-149.0349426,9.612397194,-1.331552267,-1.590609431,2.753442764,-7.666581154,-0.293130994, 
196,4136460517,-141.2302856,-78.31459808,-148.6441345,9.792662621,-1.072747231,-1.714234471,0.099057123,-5.019519806,-1.455601931, 
197,4136477184,-141.4917755,-78.31529236,-148.4490814,9.873330116,-0.936136127,-1.582054734,-1.953359008,-0.78280735,-1.836321592, 
198,4136493851,-141.6979523,-78.32939911,-148.3356018,10.02989674,-0.927703857,-1.471899271,-3.41875124,0.473988712,-1.569770455, 
199,4136510518,-141.8228302,-78.35108185,-148.3136597,10.02982521,-1.015902996,-1.543550491,-3.928366661,1.51718092,-0.970561147, 
200,4136527185,-141.8605957,-78.38127899,-148.3682709,9.760816574,-1.113715291,-1.47012794,-3.194691181,2.498467684,-0.561065376, 
201,4136543852,-141.9864807,-78.380867,-148.3034515,9.529342651,-1.139471173,-1.497168899,-1.470175385,0.159477472,-0.559899986, 
202,4136560519,-142.2347107,-78.37613678,-148.1067047,9.556773186,-1.222584367,-1.562664986,-1.056632757,-1.019020438,-1.662667751, 
203,4136577186,-142.5273285,-78.40245819,-147.877533,9.658971786,-1.139185905,-1.438475013,-1.820922256,0.221389785,-3.112429857, 
204,4136593853,-142.9157715,-78.44444275,-147.6083984,9.825758934,-1.008490205,-1.305750132,-5.222090244,0.704605401,-4.064012527, 
205,4136610520,-143.2279816,-78.52500153,-147.4567261,10.16718197,-0.882192373,-1.477764487,-7.55145216,3.437289238,-4.31673336, 
206,4136627187,-143.2390747,-78.6526413,-147.5970306,10.20185661,-0.898543656,-1.518055797,-6.663044453,7.792775631,-3.205277205, 
207,4136643854,-142.9844055,-78.81033325,-147.9747314,9.83316803,-1.045077324,-1.353342414,-4.685582638,10.89071751,-2.094319344, 
208,4136660521,-142.812149,-78.90033722,-148.2164001,9.561914444,-1.287082791,-1.091346383,-1.643752813,6.659020901,-0.974249661, 
209,4136677188,-142.8554382,-78.93863678,-148.2340546,9.61119175,-1.425200105,-1.178889751,-1.388675928,2.615748405,-1.179688931, 
210,4136693855,-143.0185699,-78.96620178,-148.1229706,9.740716934,-1.455148339,-1.177964091,-1.015216947,1.210763574,-1.968252659, 
211,4136710522,-143.2385406,-78.9855957,-147.9448242,9.853163719,-1.393950582,-1.254490733,-0.489638031,0.364283025,-2.285562038, 
212,4136727189,-143.4304962,-78.99937439,-147.7687988,9.791047096,-1.323181868,-1.347728729,1.065539479,0.119521655,-2.064633131, 
213,4136743856,-143.5904236,-79.01355743,-147.608963,9.76382637,-1.270797849,-1.426806569,2.019932747,0.257407606,-1.930064201, 
214,4136760523,-143.6578674,-79.03581238,-147.5271912,9.749655724,-1.209980488,-1.384036303,2.968985558,1.180335522,-1.497472048, 
215,4136777190,-143.6813507,-79.05876923,-147.480957,9.833964348,-1.115625143,-1.393693924,3.517520666,1.460372329,-1.197157025, 
216,4136793857,-143.665802,-79.0850296,-147.4775238,9.831115723,-1.066995502,-1.318811774,3.322544098,1.905892611,-0.918465137, 
217,4136810524,-143.6874084,-79.10290527,-147.4507904,9.832620621,-1.020446777,-1.214032292,2.475518703,1.346728563,-0.837093472, 
218,4136827191,-143.7262573,-79.11016846,-147.4216309,9.851387024,-1.024840593,-1.252247691,1.573503375,0.816315114,-0.47847721, 
219,4136843858,-143.7422333,-79.12207031,-147.4229279,9.812045097,-1.084683418,-1.36024785,1.136614799,1.241934299,-0.36196512, 
220,4136860525,-143.7507782,-79.13588715,-147.430603,9.786681175,-1.154937625,-1.365094185,1.205218315,1.379333258,-0.372568667, 
221,4136877192,-143.7631989,-79.14835358,-147.4251251,9.76683712,-1.25072062,-1.371013761,1.746517062,1.228013635,-0.447332233, 
222,4136893859,-143.7502899,-79.16101074,-147.4287872,9.841686249,-1.291759491,-1.342015386,2.714959145,1.294965386,-0.367510259, 
223,4136910526,-143.6735992,-79.17705536,-147.4772034,9.878247261,-1.26302731,-1.426079392,3.89699769,1.755494356,-0.081301108, 
224,4136927193,-143.5165863,-79.20317078,-147.5912018,9.851122856,-1.205599189,-1.432296395,4.850245476,2.681656122,0.149277225, 
225,4136943860,-143.3164215,-79.24051666,-147.7453003,9.739230156,-1.169102073,-1.400392532,5.070175171,3.488232374,0.09894187, 
226,4136960527,-143.1578979,-79.26953125,-147.853714,9.70489502,-1.177035093,-1.344249606,5.259683609,2.778260946,-0.023634123, 
227,4136977194,-143.0315857,-79.28676605,-147.9289703,9.796247482,-1.148559451,-1.378137469,5.279930592,1.988992691,0.096931264, 
228,4136993861,-142.8921814,-79.30215454,-148.017807,9.890733719,-1.11444211,-1.415258646,5.254541874,1.990766406,0.282245576, 
229,4137010528,-142.7004089,-79.32402802,-148.1598969,9.853731155,-1.100450277,-1.441944361,5.255725861,2.657637835,0.512727857, 
230,4137027195,-142.4724274,-79.35009003,-148.3352203,9.776213646,-1.120230079,-1.478767753,5.471885204,3.086740494,0.638281345, 
231,4137043862,-142.2212372,-79.3815918,-148.5296173,9.690890312,-1.147873521,-1.423826098,5.733057499,3.469842196,0.595648944, 
232,4137060529,-142.008667,-79.40965271,-148.6830292,9.747666359,-1.175569892,-1.409175634,5.825493336,3.023950338,0.350535393, 
233,4137077196,-141.8353577,-79.436203,-148.8144836,9.859947205,-1.146064401,-1.467105269,4.768354416,2.806921244,0.202109814, 
234,4137093863,-141.6259613,-79.47589874,-148.9898834,9.826187134,-1.137743592,-1.384553194,4.33423233,3.717875719,0.084201753, 
235,4137110530,-141.4898224,-79.49842834,-149.0915375,9.74178791,-1.065343857,-1.450416684,4.287156105,2.410603285,0.076005682, 
236,4137127197,-141.3922882,-79.51373291,-149.1564941,9.731781006,-1.093253374,-1.486272931,4.139268875,1.820154071,0.026560375, 
237,4137143864,-141.2909546,-79.52383423,-149.1958923,9.813054085,-1.128744721,-1.589190722,5.865642071,1.395380259,0.006710528, 
238,4137160531,-140.9852753,-79.5745697,-149.4463959,9.766283989,-1.107712865,-1.411299586,5.682486534,4.742346287,0.254667163, 
239,4137177198,-140.8077087,-79.60183716,-149.5934143,9.726542473,-1.070664763,-1.263867855,4.096764088,2.934638977,0.249467701, 
240,4137193865,-140.7283936,-79.60679626,-149.642746,9.787489891,-1.088584423,-1.345883489,3.960414886,1.22473526,0.271264046, 
241,4137210532,-140.6340942,-79.61474609,-149.704071,9.850229263,-1.111360312,-1.459466338,4.1538167,1.450050235,0.254231691, 
242,4137227199,-140.5511627,-79.6254425,-149.7623749,9.806200981,-1.139251113,-1.400855303,3.65111661,1.553961158,0.123081848, 
243,4137243866,-140.5374908,-79.62794495,-149.7619171,9.785416603,-1.166740537,-1.400131106,2.959739685,0.773426771,-0.05690502, 
244,4137260533,-140.5658875,-79.62358856,-149.7206726,9.77737236,-1.16788137,-1.400669336,2.839884996,0.174179167,-0.134690791, 
245,4137277200,-140.5780792,-79.62149811,-149.6898804,9.771679878,-1.138586283,-1.415454626,3.201933146,0.351956904,-0.137405738, 
246,4137293867,-140.5603485,-79.6224823,-149.6848297,9.798267365,-1.126552463,-1.405573606,3.471532345,0.670758128,-0.037733912, 
247,4137310534,-140.5390625,-79.6257019,-149.6886444,9.829277039,-1.080040097,-1.351947308,3.159275532,0.834910035,-0.050373781, 
248,4137327201,-140.5106354,-79.63526917,-149.7063293,9.824519157,-1.085365295,-1.332323551,2.771294355,1.224889159,-0.177092642, 
249,4137343868,-140.4841766,-79.64643097,-149.7297058,9.788063049,-1.08298111,-1.292792082,2.31234026,1.337917805,-0.19167906, 
250,4137360535,-140.4712677,-79.65635681,-149.7505188,9.801745415,-1.063334107,-1.261066079,1.643848538,1.258108616,-0.161263958, 
251,4137377202,-140.4817505,-79.65933228,-149.7558136,9.848526955,-1.07787323,-1.223889351,1.158193469,0.83147794,-0.027937053, 
252,4137393869,-140.4620819,-79.67116547,-149.79599,9.930056572,-1.119169474,-1.264404893,0.903065503,1.479581714,-0.07612735, 
253,4137410536,-140.3811798,-79.69046021,-149.8908997,9.849775314,-1.143523932,-1.232231021,1.344128728,2.202653646,0.088658355, 
254,4137427203,-140.3368988,-79.69989014,-149.9501343,9.794933319,-1.166855574,-1.204782844,1.24543035,1.500084519,0.169363976, 
255,4137443870,-140.3329315,-79.70218658,-149.9691467,9.795722961,-1.200086594,-1.190150857,1.200121403,0.894677281,0.109494299, 
256,4137460537,-140.3358154,-79.70044708,-149.9742737,9.833626747,-1.205744624,-1.274315953,1.601421356,0.611131847,0.150781959, 
257,4137477204,-140.266098,-79.70749664,-150.0457001,9.851246834,-1.206117272,-1.277691722,2.032482862,1.47083497,0.361459225, 
258,4137493871,-140.1702423,-79.72134399,-150.1397858,9.802026749,-1.204088211,-1.250380158,2.26877284,1.939944267,0.283839941, 
259,4137510538,-140.0800018,-79.73364258,-150.224762,9.782447815,-1.201361418,-1.215270877,2.461393595,1.806707144,0.265053034, 
260,4137527205,-139.9842072,-79.74629211,-150.3191528,9.757144928,-1.189304233,-1.200673342,2.236821175,1.889909744,0.322387069, 
261,4137543872,-139.9462585,-79.74559784,-150.3593292,9.783428192,-1.164405227,-1.201287508,1.954249024,0.900709033,0.396945655, 
262,4137560539,-139.9270782,-79.73996735,-150.3852386,9.845684052,-1.150544763,-1.274227262,1.676107645,0.5761832,0.467918336, 
263,4137577206,-139.8481903,-79.74460602,-150.4737091,9.83754158,-1.145441651,-1.308787227,1.550285459,1.473536968,0.588106036, 
264,4137593873,-139.7289429,-79.75251007,-150.6133118,9.760931969,-1.180992246,-1.307320237,0.9585554,1.981142521,0.870345175, 
265,4137610540,-139.6083527,-79.75587463,-150.753952,9.738262177,-1.171918631,-1.351087928,0.979314446,1.782439113,1.051964879, 
266,4137627207,-139.4548035,-79.76976776,-150.9371338,9.785546303,-1.15322578,-1.364218593,0.434365809,2.554674864,0.986152947, 
267,4137643874,-139.3481293,-79.78157806,-151.0921936,9.813755035,-1.178107858,-1.404775262,-0.711565673,2.273319006,0.826547444, 
268,4137660541,-139.2199554,-79.80049896,-151.2735901,9.816106796,-1.205519915,-1.342193127,-0.977604747,2.775174618,0.759083629, 
269,4137677208,-139.1392212,-79.80871582,-151.4289093,9.75754261,-1.095284224,-1.343726754,-2.295365334,2.105850697,0.964932859, 
270,4137693875,-139.1309052,-79.80825806,-151.5393372,9.715026855,-1.039723516,-1.161081314,-3.988684416,1.400681615,0.942598581, 
271,4137710542,-139.3316345,-79.76957703,-151.4464111,9.763938904,-1.042867661,-0.95646584,-4.519892693,-1.750314355,0.806505561, 
272,4137727209,-139.6350555,-79.70111847,-151.2680969,9.709008217,-1.265016198,-0.758861184,-5.651129723,-3.704640865,1.254074693, 
273,4137743876,-140.0376282,-79.59638977,-150.9496765,9.711601257,-1.486554742,-0.790584803,-3.344372034,-6.362534046,1.466596127, 
274,4137760543,-140.4617615,-79.49187469,-150.5662689,9.725432396,-1.534567833,-0.960015893,-0.826618075,-6.840904713,0.838470399, 
275,4137777210,-140.9403992,-79.39609528,-150.1172638,9.738202095,-1.43910408,-0.956749022,-0.256031007,-6.92227602,-0.140325621, 
276,4137793877,-141.5007172,-79.29035187,-149.5836639,9.779867172,-1.474892497,-0.887712061,-0.180307031,-8.001722336,-0.608448923, 
277,4137810544,-142.0589142,-79.17115021,-149.0097656,9.877526283,-1.538327694,-0.956434608,2.289775848,-8.947254181,-0.594157159, 
278,4137827211,-142.44841,-79.08203888,-148.5427704,9.958159447,-1.54925406,-1.141368508,6.092110157,-6.811038971,-0.873297274, 
279,4137843878,-142.6854248,-79.0403595,-148.2020264,9.948803902,-1.383376598,-1.244143486,7.778821468,-3.69547081,-1.52523005, 
280,4137860545,-142.8612061,-79.02632141,-147.9393616,9.932806015,-1.186140656,-1.292679787,6.854931831,-1.835079551,-1.844581842, 
281,4137877212,-142.9638214,-79.02682495,-147.7657471,9.906848907,-1.110873342,-1.250665665,5.982601643,-0.524324,-1.564750195, 
282,4137893879,-142.9848328,-79.03533173,-147.6690979,10.00508022,-1.163536191,-1.349481702,6.340961456,0.389697254,-1.15223217, 
283,4137910546,-142.8167572,-79.08275604,-147.7503052,10.002244,-1.174868584,-1.403895378,7.208528996,3.480420589,-0.946780026, 
284,4137927213,-142.562439,-79.14794159,-147.9167786,9.819900513,-1.133311749,-1.261656046,7.347964764,4.903053284,-0.835287988, 
285,4137943880,-142.3648529,-79.1907959,-148.0386353,9.752165794,-1.095566273,-1.27940011,6.570799351,3.525794029,-0.443439215, 
286,4137960547,-142.2027435,-79.22395325,-148.1557312,9.78973484,-1.087456942,-1.305331111,4.714670658,3.025820255,-0.138891265, 
287,4137977214,-142.0239105,-79.26206207,-148.311203,9.85858345,-1.110286474,-1.328982234,3.45835495,3.525088787,0.003944356, 
288,4137993881,-141.7649536,-79.31938171,-148.5589142,9.849827766,-1.116898656,-1.328136563,2.819599867,5.056958675,0.088197336, 
289,4138010548,-141.4721375,-79.38336945,-148.8532257,9.79132843,-1.13164854,-1.318247557,2.087409258,5.681408405,0.213558659, 
290,4138027215,-141.2408752,-79.44012451,-149.0960693,9.807151794,-1.18973875,-1.483603954,1.429944277,4.980851173,7.81E-04, 
291,4138043882,-140.9784241,-79.51219177,-149.402298,9.956233025,-1.1858989,-1.58923471,-0.433770239,6.123816967,-0.070185199, 
292,4138060549,-140.4985199,-79.63188934,-149.9645386,9.997213364,-1.163797379,-1.43494451,-2.505787373,10.0733881,0.217503101, 
293,4138077216,-139.9295654,-79.7699585,-150.6414948,9.839575768,-1.145834804,-1.216655135,-3.947860003,11.65873909,0.31588158, 
294,4138093883,-139.446701,-79.89380646,-151.2540894,9.707716942,-1.127609134,-1.165711999,-5.321790218,10.51295471,0.174217671, 
295,4138110550,-138.9328766,-80.02827454,-151.9215698,9.812296867,-1.151429772,-1.192348957,-6.733883858,11.31895161,0.043797746, 
296,4138127217,-138.2905884,-80.18289948,-152.7139893,9.898812294,-1.274319172,-1.144764781,-6.440246582,13.00604725,0.033757556, 
297,4138143884,-137.344696,-80.35791779,-153.7756805,9.983846664,-1.44715488,-1.00558722,-4.164916515,15.65858078,0.960003257, 
298,4138160551,-136.0820923,-80.55055237,-155.1170197,9.823848724,-1.506619215,-0.696578622,-1.753607392,18.20993233,1.825675488, 
299,4138177218,-134.9571381,-80.69826508,-156.3010559,9.723315239,-1.469526649,-0.484731317,-0.761062682,15.07444096,2.086501598, 
300,4138193885,-134.1355591,-80.78928375,-157.1491547,9.744996071,-1.459317565,-0.475926697,0.900453091,10.31344318,1.879921436, 
301,4138210552,-133.7645721,-80.82523346,-157.523941,9.890384674,-1.468602538,-0.768357992,1.862670898,4.726786137,0.978725374, 
302,4138227219,-133.529007,-80.86068726,-157.7542419,9.901203156,-1.443138838,-0.847385108,2.28384614,3.703814507,0.013933309, 
303,4138243886,-133.5740814,-80.86197662,-157.7120819,9.750470161,-1.303946376,-0.952513933,1.584529757,0.408650637,-0.300635487, 
304,4138260553,-133.8309937,-80.84165192,-157.4706879,9.750499725,-1.233763814,-1.094910502,0.664982498,-1.862779617,-0.675976753, 
305,4138277220,-134.0614014,-80.81318665,-157.228775,9.871928215,-1.122061968,-1.388638496,2.289980173,-2.206130743,-0.343395859, 
306,4138293887,-134.1079712,-80.81316376,-157.1832123,9.841387749,-1.014575839,-1.312339783,1.688440323,0.328009039,-0.266544968, 
307,4138310554,-134.2557373,-80.81060028,-157.0630188,9.736691475,-0.947591186,-1.269643068,0.046551082,-0.285844117,-0.662440419, 
308,4138327221,-134.5912628,-80.78460693,-156.7669983,9.618499756,-0.98490721,-1.358449697,-0.799891114,-2.474257469,-0.843022764, 
309,4138343888,-135.0219879,-80.74269104,-156.3734131,9.679552078,-1.050149679,-1.48473525,-0.731172264,-3.817246675,-0.853652179, 
310,4138360555,-135.3084564,-80.70743561,-156.1157074,9.699290276,-1.076354623,-1.500434279,-0.113624334,-2.607494354,-0.248103797, 
311,4138377222,-135.5558777,-80.67001343,-155.9012146,9.626350403,-1.052749276,-1.469216466,-0.323597252,-2.413427114,0.121788397, 
312,4138393889,-135.789856,-80.6336441,-155.7001648,9.643909454,-1.046661258,-1.456821084,-0.306884974,-2.282763958,0.151243001, 
313,4138410556,-136.0219421,-80.60154724,-155.5018311,9.760778427,-1.069367528,-1.448721766,-0.350029588,-2.08190918,-0.028487725, 
314,4138427223,-136.223877,-80.58174133,-155.3214722,9.885863304,-1.078564286,-1.466265917,0.405410618,-1.431692243,-0.426995724, 
315,4138443890,-136.3803711,-80.56664276,-155.1516266,9.899516106,-1.050130367,-1.413954973,2.510467291,-1.157239437,-0.555481851, 
316,4138460557,-136.5402374,-80.54312897,-154.9536896,9.823096275,-1.035298944,-1.371488094,3.978702307,-1.715391517,-0.416968316, 
317,4138477224,-136.7618103,-80.50626373,-154.696167,9.759140015,-1.01125598,-1.337797642,3.803781033,-2.704349518,-0.307166725, 
318,4138493891,-137.0145874,-80.46620178,-154.4073181,9.756304741,-0.963854313,-1.31824851,3.790103197,-3.059635162,-0.426726758, 
319,4138510558,-137.3041077,-80.42816925,-154.0942841,9.688958168,-0.811726391,-1.293967724,3.023233414,-3.138496876,-0.714831233, 
320,4138527225,-137.661911,-80.39250183,-153.722229,9.588237762,-0.624220252,-1.232187152,2.409591675,-3.441264868,-1.270421982, 
321,4138543892,-138.0911102,-80.35806274,-153.2886047,9.555211067,-0.576970577,-1.119031429,1.770081043,-3.797563076,-1.81720221, 
322,4138560559,-138.5733185,-80.3119278,-152.8356781,9.499901772,-0.589663267,-1.154617906,-0.263317764,-4.449202061,-1.544119477, 
323,4138577226,-139.0331573,-80.24820709,-152.4366455,9.515946388,-0.524547577,-1.184192777,-2.109763384,-4.886487484,-0.500978053, 
324,4138593893,-139.4062958,-80.17657471,-152.1628571,9.601588249,-0.394179821,-1.190237761,-4.313581944,-4.427649021,0.717603862, 
325,4138610560,-139.7280579,-80.09009552,-151.9568176,9.701601982,-0.431753904,-1.191025615,-5.239340305,-4.673671246,1.779865026, 
326,4138627227,-139.9947357,-79.99884033,-151.7720947,9.720096588,-0.631651342,-1.285160065,-3.18596983,-4.772164345,2.091174364, 
327,4138643894,-140.2842865,-79.91312408,-151.4894409,9.649333,-1.063649654,-1.394192815,1.219933033,-5.196452141,1.055717111, 
328,4138660561,-140.7393646,-79.82096863,-150.9750214,9.594171524,-1.458090901,-1.814807177,4.982145786,-7.072724819,-0.647521198, 
329,4138677228,-141.3449249,-79.73958588,-150.238266,9.639415741,-1.877138138,-2.106650829,9.076171875,-8.075796127,-3.006196022, 
330,4138693895,-141.7479858,-79.72003937,-149.6290894,9.837785721,-2.005035639,-1.905742884,13.69638729,-4.316902637,-4.354578495, 
331,4138710562,-141.9656525,-79.76226807,-149.1496277,9.740468025,-1.835465193,-1.603881955,17.15973473,-0.518228769,-5.576512814, 
332,4138727229,-142.2936707,-79.77472687,-148.4854431,9.47614193,-1.528353095,-1.714595079,21.44488716,-3.100263119,-6.032640457, 
333,4138743896,-142.7306213,-79.74840546,-147.590271,9.596926689,-1.492015004,-1.883723736,28.55927086,-6.399794102,-6.606899261, 
334,4138760563,-142.9200287,-79.75700378,-146.811554,9.694295883,-1.780900002,-1.537189484,36.53018188,-3.95179677,-6.925061226, 
335,4138777230,-142.8209534,-79.82297516,-146.2198334,9.977107048,-2.149764538,-0.759962618,42.7936821,0.016379431,-7.397567272, 
336,4138793897,-142.5708618,-79.93190002,-145.7815094,10.4803257,-1.650574684,-0.042031091,42.79957199,3.069049597,-7.642414093, 
337,4138810564,-142.2589874,-80.11123657,-145.6083984,10.73542118,-1.119208336,0.649995625,30.78907585,8.085947037,-7.977547646, 
338,4138827231,-142.2610016,-80.27619934,-145.3370361,10.64999199,-0.61558491,1.15772903,17.73559189,6.788488865,-8.239034653, 
339,4138843898,-142.5856934,-80.33203888,-144.9409332,10.58479595,-0.376804084,1.601828575,5.70540905,0.870870352,-5.198181152, 
340,4138860565,-143.1990662,-80.26742554,-144.5749054,10.76960182,-0.426023155,1.432910323,-13.45952702,-4.680051804,-0.57975018, 
341,4138877232,-143.6115723,-80.08194733,-144.503891,10.5855875,-1.170530081,0.621541321,-18.90040207,-8.725511551,6.086317062, 
342,4138893899,-143.3888092,-79.81607819,-144.9100189,10.04629803,-2.151315451,0.185399368,-9.031233788,-9.658694267,12.95076847, 
343,4138910566,-142.6996307,-79.51568604,-145.5805054,9.329600334,-2.751680613,0.077473216,3.339490652,-9.425966263,16.64256477, 
344,4138927233,-142.0783386,-79.1830368,-146.0743408,8.71717453,-2.823297262,0.03616577,9.666481018,-11.8369751,16.56469727, 
345,4138943900,-142.0452576,-78.83666229,-145.9779205,8.474874496,-2.374424458,0.095865756,9.134719849,-16.43114471,11.94945812, 
346,4138960567,-142.4659271,-78.51758575,-145.5062866,8.664494514,-1.78653276,0.239860401,3.940275908,-17.90633011,7.372907639, 
347,4138977234,-143.1210022,-78.24707794,-144.9243011,9.080513,-1.385537386,0.365395814,-3.706385612,-16.54682732,4.26419878, 
348,4138993901,-143.8094635,-78.04628754,-144.3906097,9.507221222,-1.256935239,0.383850604,-8.605817795,-12.96096516,1.940240502, 
349,4139010568,-144.2926331,-77.94900513,-144.0964508,9.637381554,-1.282974839,0.486692637,-10.40980721,-6.251082897,0.518426895, 
350,4139027235,-144.7297516,-77.9132309,-143.8595428,9.290488243,-1.582790136,0.603535891,-11.05761623,-2.853339434,-1.101391554, 
351,4139043902,-145.3313446,-77.88722992,-143.4488373,9.120970726,-1.988474131,0.560677886,-10.76548958,-3.611949205,-3.268085957, 
352,4139060569,-146.0630951,-77.86781311,-142.9023285,9.143052101,-2.326858044,0.637102902,-10.66691971,-4.225834846,-4.952518463, 
353,4139077236,-146.8428192,-77.83029938,-142.255722,9.392956734,-2.587699652,0.657194316,-7.73268795,-5.774071693,-5.47768116, 
354,4139093903,-147.6048584,-77.78006744,-141.5626068,9.645856857,-2.680330992,0.49008137,-4.013709545,-6.682784081,-5.661951065, 
355,4139110570,-148.3351746,-77.71831512,-140.870285,9.802022934,-2.719783068,0.180040821,-2.208590031,-7.20502758,-5.415710449, 
356,4139127237,-148.9362335,-77.65844727,-140.3079681,9.772374153,-2.590640545,0.091021307,-2.137924433,-6.205413818,-4.1766572, 
357,4139143904,-149.4762115,-77.57862091,-139.8326111,9.656071663,-2.253465414,0.043511786,-3.630043745,-6.644210339,-2.69966197, 
358,4139160571,-150.1479034,-77.43451691,-139.2919769,9.717644691,-1.825241089,0.07333158,-7.770954609,-10.40691376,-1.606653571, 
359,4139177238,-150.8646088,-77.25079346,-138.8379059,9.880195618,-1.373032928,0.345176607,-15.58721256,-11.9354763,0.342531919, 
360,4139193905,-151.5177307,-77.07614136,-138.6364899,9.99737072,-0.771414578,0.718121946,-26.62308502,-9.885985374,2.820875406, 
361,4139210572,-152.2758789,-76.9413147,-138.5974426,10.01577663,-0.325924367,0.387763023,-42.46397781,-6.795228958,3.478713989, 
362,4139227239,-153.7158203,-76.78434753,-138.1854706,10.13995361,-0.603878796,-1.037425876,-61.62849045,-10.36921215,-0.58149308, 
363,4139243906,-156.001358,-76.60017395,-136.9708405,11.5945425,-2.242604256,-3.18786931,-65.51587677,-16.55706978,-10.3407526, 
364,4139260573,-158.6522522,-76.44778442,-135.0904083,14.71050739,-4.323024273,-4.996152878,-48.63015747,-18.00757027,-20.58527565, 
365,4139277240,-159.8793182,-76.51036072,-134.1234131,17.58666611,-4.944032669,-4.680474758,-16.49789238,-0.723118126,-13.87861633, 
366,4139293907,-159.3881836,-76.7119751,-134.4838104,17.07519913,-3.819708109,-3.354175329,9.127030373,13.64830303,0.610709786, 
367,4139310574,-158.0460358,-76.95603943,-135.5189209,13.65311718,-2.07620883,-2.981714725,20.72321701,19.35187149,7.983360767, 
368,4139327241,-157.1238098,-77.24615479,-136.1279144,9.271389961,-1.598677278,-1.986842632,20.37483025,19.77588844,1.015328526, 
369,4139343908,-157.7084656,-77.14835358,-135.3687439,7.795369148,-1.028322697,-2.415675879,9.98828125,-8.720944405,-6.955267429, 
370,4139360575,-159.0864105,-76.86256409,-133.9717255,8.187502861,-0.533661008,-2.304187775,-0.326709896,-22.30465698,-11.1014328, 
371,4139377242,-160.3630829,-76.65858459,-132.6832886,9.498102188,0.330695122,-1.818209887,-0.658343554,-17.04121399,-12.25271988, 
372,4139393909,-160.900528,-76.69203949,-131.9716797,9.761821747,0.35453105,-1.569200277,10.01458549,-0.797714531,-9.833804131, 
373,4139410576,-160.7747345,-76.84735107,-131.754425,8.922626495,-0.004796527,-1.481452465,20.94788361,8.388302803,-5.757137299, 
374,4139427243,-160.656723,-76.95415497,-131.4924927,7.975689411,-0.429645687,-1.571247101,23.10710716,5.43647337,-5.35760498, 
375,4139443910,-160.7905579,-76.85819244,-130.9537964,8.122606277,-0.78632009,-2.062692404,24.17090225,-7.286349297,-4.888547421, 
376,4139460577,-160.9977112,-76.73978424,-130.3414612,9.292970657,-0.828731298,-2.46160531,24.07568741,-8.892718315,-5.480779171, 
377,4139477244,-161.0080109,-76.79968262,-129.9523621,9.977630615,-0.494174361,-2.087187529,22.85198784,2.227130651,-6.100604057, 
378,4139493911,-160.7307587,-77.03793335,-129.9053955,9.564347267,0.011907404,-1.363817096,20.1380291,13.86364555,-5.169825554, 
379,4139510578,-160.4305115,-77.2607193,-129.9481964,8.965875626,0.574160516,-1.120586514,16.25630379,13.35975838,-3.784967184, 
380,4139527245,-160.2908936,-77.46233368,-129.9097595,8.648948669,0.490350783,-1.349091172,11.37493324,11.78446674,-4.419981956, 
381,4139543912,-160.253891,-77.65528107,-129.7682648,8.433761597,0.062212333,-1.445740342,11.26867771,10.84445381,-5.510776043, 
382,4139560579,-160.404129,-77.80490875,-129.4639893,8.430622101,-0.232723013,-1.446919441,9.59223175,7.708339214,-6.556285381, 
383,4139577246,-160.6372528,-77.9509964,-129.0831909,8.48032856,-0.558433175,-1.28253758,9.109827995,7.219174385,-7.32534647, 
384,4139593913,-160.8045349,-78.06005096,-128.7285004,8.575113297,-0.693549514,-1.077721834,11.54222965,5.272697926,-6.216379166, 
385,4139610580,-160.7439423,-78.1716156,-128.5437622,8.784578323,-0.716836274,-0.870046735,15.23879242,6.123939037,-4.241717815, 
386,4139627247,-160.5619049,-78.30071259,-128.4399109,8.867847443,-0.568480492,-0.679579556,17.76773071,7.438308239,-3.646017313, 
387,4139643914,-160.3748322,-78.40974426,-128.3479919,8.947602272,-0.274447709,-0.521820605,17.35613251,6.343325615,-3.115692616, 
388,4139660581,-160.1949463,-78.51712036,-128.3052216,9.24255085,-0.062194739,-0.396425426,14.01954365,6.440267563,-2.53289938, 
389,4139677248,-159.8323822,-78.67410278,-128.5187378,9.393410683,0.005725981,-0.166232109,9.888519287,10.26018524,-0.710567176, 
390,4139693915,-159.265625,-78.84223175,-128.9734192,9.163194656,-0.271753758,0.169253677,7.922935009,11.85001659,1.587232828, 
391,4139710582,-158.4180603,-78.94962311,-129.6865692,9.326515198,-0.591194928,0.165550351,9.514689445,9.521822929,5.491866112, 
392,4139727249,-157.3197479,-79.05878448,-130.6225739,9.04695034,-0.71216464,0.190023959,11.38794327,10.64357376,7.588142395, 
393,4139743916,-156.4560242,-79.08514404,-131.3177185,8.507486343,-0.872720659,0.220446914,11.45088291,5.09188509,6.790302753, 
394,4139760583,-156.1582336,-78.92020416,-131.4116974,8.21294117,-0.881392837,0.025025347,12.88187981,-8.098173141,5.106676579, 
395,4139777250,-156.5293732,-78.55015564,-130.7704315,8.410419464,-1.173068881,-0.515117764,15.99979496,-22.81481934,2.175125837, 
396,4139793917,-157.436264,-78.07563782,-129.5318756,8.941363335,-1.29418838,-1.141085029,18.86617279,-31.55579567,-2.556255341, 
397,4139810584,-158.4383087,-77.6750412,-128.1131134,9.734375,-1.208896041,-1.309474468,23.60651016,-28.45927811,-7.36482048, 
398,4139827251,-159.2613983,-77.42745209,-126.7411957,10.44040298,-1.14671433,-1.214753151,31.49540901,-19.72159576,-11.00530338, 
399,4139843918,-159.8413696,-77.33066559,-125.4894943,10.9374094,-0.95157212,-0.826813161,38.97101212,-10.64588261,-13.15176868, 
400,4139860585,-160.2159882,-77.23190308,-124.3089371,11.56952763,-1.182636619,-0.46876663,47.08516312,-10.3679142,-12.42958736, 
401,4139877252,-160.5007324,-77.11723328,-123.114624,12.29363823,-1.480935693,-0.201086253,53.22018433,-11.30493736,-12.45298767, 
402,4139893919,-160.5796051,-76.97711182,-122.0243607,12.83363342,-1.154914975,0.040812727,59.40169907,-12.29845333,-10.79297066, 
403,4139910586,-160.3872681,-76.81305695,-121.1535034,12.8514595,-0.593917906,0.2156028,62.76900101,-12.72278881,-7.629475117, 
404,4139927253,-159.7568665,-76.7236557,-120.775795,12.83748722,0.210874677,0.056321416,60.17370605,-6.303565502,-2.780941486, 
405,4139943920,-159.0421906,-76.62078094,-120.6040268,12.81865978,1.174554348,-0.733372808,53.16098022,-6.104162693,0.231515512, 
406,4139960587,-159.1170654,-76.32501221,-119.821434,13.28260231,1.777233601,-2.929587364,41.38285446,-19.99360847,-3.614267111, 
407,4139977254,-160.0653381,-75.9876709,-118.5878067,13.73510075,2.541420221,-6.349707603,15.23689175,-24.63447189,-9.221338272, 
408,4139993921,-161.7290649,-76.1688385,-117.3436203,14.02939796,1.948183656,-7.237116814,-27.0145092,4.898627758,-20.20885468, 
409,4140010588,-163.5231171,-76.90306091,-116.1482391,11.99935341,-0.530172944,-5.775336266,-37.43399811,37.55725479,-28.79463387, 
410,4140027255,-163.6002502,-78.1905899,-116.4602203,8.79148674,-1.520939469,-3.56508255,-22.37145996,75.73853302,-17.73122978, 
411,4140043922,-161.8280487,-79.41139221,-118.3212967,5.304590702,-1.711262107,-1.076181293,-2.652653694,76.8760376,-0.833601832, 
412,4140060589,-159.8424225,-79.99708557,-120.1803055,5.537368774,-2.008411884,-1.244557977,9.940608025,40.2360611,7.493054867, 
413,4140077256,-158.5263519,-80.17476654,-121.2744064,8.030937195,-1.41579628,-1.41026628,14.85633755,14.49162769,6.956716537, 
414,4140093923,-158.2258301,-80.07460785,-121.4521027,10.7396431,-0.591782391,-1.583220601,8.07933712,-4.401063919,4.093346596, 
415,4140110590,-157.8480225,-79.91585541,-121.9196548,13.01199722,-0.706097007,-2.900794983,-4.397029877,-6.491650105,8.259638786, 
416,4140127257,-155.4923096,-80.2983017,-124.5610428,11.93229485,-0.99519366,-3.489673376,-14.19411469,32.37535095,16.08151627, 
417,4140143924,-151.7722626,-80.95825958,-128.6316223,9.384098053,-0.91345787,-1.895514369,-17.15564156,53.64397812,18.19795799, 
418,4140160591,-147.9370422,-81.49684143,-132.9198151,7.075784206,-0.536302984,-0.214478582,-23.53653526,48.16712952,17.83169556, 
419,4140177258,-145.4956665,-81.59412384,-135.7833099,6.333734512,-0.410838813,0.583405495,-22.84528732,19.28063011,18.02986717, 
420,4140193925,-144.4057007,-81.38465881,-137.2511597,7.351034164,-0.603681982,0.114592738,-21.10232544,-2.2554667,18.00037193, 
421,4140210592,-143.6151733,-81.12872314,-138.4678192,8.001264572,-1.130794525,-0.916214705,-24.13881683,-5.354794979,18.12025261, 
422,4140227259,-142.5588837,-80.95241547,-139.9640808,8.260968208,-1.492287755,-1.217946172,-24.7147007,0.490856081,17.64775658, 
423,4140243926,-141.4252472,-80.86025238,-141.5333099,8.430275917,-1.813095808,-0.989243925,-24.37033081,5.364980221,15.24259663, 
424,4140260593,-140.2444763,-80.83633423,-143.1148224,8.445459366,-1.81114614,-0.400298834,-22.24550629,8.981660843,12.71221066, 
425,4140277260,-139.1359863,-80.86812592,-144.6194458,8.066361427,-1.560764074,0.062688969,-22.05198288,11.304039,9.810277939, 
426,4140293927,-138.3522949,-80.89394379,-145.7651215,7.62980032,-1.611503005,0.168556601,-20.28928566,8.919126511,7.259727955, 
427,4140310594,-137.9303894,-80.88423157,-146.4904633,7.363422871,-1.87451601,0.154188126,-17.12647057,4.730760574,5.613144875, 
428,4140327261,-137.9104309,-80.81489563,-146.7966003,7.417816162,-1.879787803,0.135528192,-16.42656326,-0.561424613,5.044516563, 
429,4140343928,-138.3603668,-80.69051361,-146.6917267,7.91562748,-1.760418415,0.074815586,-20.29419899,-5.660524368,4.312814236, 
430,4140360595,-138.9400024,-80.56370544,-146.5812988,8.477025032,-1.267605662,0.178517729,-27.77566528,-5.85649538,4.306442261, 
431,4140377262,-139.4710846,-80.52153778,-146.6287384,9.527392387,-0.803692818,0.351805776,-34.22991943,-1.044624686,2.100301027, 
432,4140393929,-139.694046,-80.65384674,-147.0740356,10.10585785,-0.695871055,0.241272241,-39.31143188,9.441675186,-1.731601119, 
433,4140410596,-139.6378784,-80.86219025,-147.771347,10.32872868,-1.437104821,-0.017525008,-37.51338959,14.43838501,-2.88369298, 
434,4140427263,-139.9187012,-81.00348663,-148.0794525,10.99072742,-2.174781322,-0.854691446,-34.70831299,8.913118362,-3.17148757, 
435,4140443930,-140.127243,-81.12792206,-148.4942627,12.12203503,-2.626933336,-1.378077626,-36.7254982,8.757486343,-1.758493423, 
436,4140460597,-139.6944122,-81.38550568,-149.7485046,12.57344055,-2.940510273,-0.391648948,-48.04006577,19.74242973,-1.136234999, 
437,4140477264,-138.4445648,-81.66268158,-151.8690796,12.35016918,-3.023869753,1.229682565,-50.51073074,25.4017086,3.319469213, 
438,4140493931,-136.4807587,-81.9323349,-154.8208313,12.45930576,-2.860745907,2.707722902,-57.18260574,29.54888725,7.715325356, 
439,4140510598,-133.5787506,-82.21328735,-158.818634,12.00391388,-2.561159372,3.109699488,-63.26729965,35.83720398,11.51448631, 
440,4140527265,-131.5332336,-82.42389679,-162.0783386,10.72436333,-2.202053547,1.386547565,-70.98558044,28.33864784,8.379662514, 
441,4140543932,-134.7320709,-82.26934052,-160.3406525,11.1522007,-2.139501333,-3.652543783,-88.53411865,-15.92689991,-2.728105545, 
442,4140560599,-140.2433929,-81.72994232,-156.214798,13.04795742,-1.437161207,-9.258576393,-85.42770386,-46.57956314,-3.5221138, 
443,4140577266,-140.3725586,-81.3026123,-156.6500854,14.42251396,-1.884622335,-7.957312107,-33.31918716,-16.70526505,19.34348679, 
444,4140593933,-135.4190979,-80.90132141,-161.0932465,14.23041058,-2.557214022,-4.025472164,34.19627762,10.38014793,46.70759583, 
445,4140610600,-128.5276489,-80.62724304,-167.123703,11.26508713,-2.51240325,-1.469386935,56.74744415,32.7850647,51.00725555, 
446,4140627267,-124.9419479,-80.37924957,-169.9985809,7.627933025,-1.543681383,-1.254384398,45.42805481,14.54225636,28.90724182, 
447,4140643934,-125.3507233,-80.32016754,-168.9951324,8.345509529,-0.645115972,-2.218303919,35.24602127,-9.65177536,-2.944136143, 
448,4140660601,-127.8343964,-80.54959106,-166.2781525,10.27943134,0.12107113,-1.580980062,12.19540405,-12.90608978,-27.22513008, 
449,4140677268,-130.181778,-80.94661713,-163.9783478,12.51034927,0.01909676,-0.743211031,-4.142876625,-1.616199493,-32.49925232, 
450,4140693935,-131.1416779,-81.28771973,-162.9485779,12.11414337,-0.277861983,-0.598105967,3.956273079,6.710321426,-21.75976181, 
451,4140710602,-130.4260864,-81.49472046,-163.1837311,9.168608665,-1.740622878,-0.898824751,29.50173569,10.31950951,-8.044984818, 
452,4140727269,-129.1907959,-81.62192535,-163.5104675,6.660780907,-2.743609667,-1.142878771,55.24762726,7.707023144,-4.04956007, 
453,4140743936,-129.1590118,-81.70326996,-162.3954163,5.613230705,-2.612957478,-1.260941386,68.60782623,-3.834445953,-9.933188438, 
454,4140760603,-131.0815277,-81.69830322,-159.2606201,5.708886623,-1.746940851,-0.886496723,71.29187775,-20.33998871,-17.29574394, 
455,4140777270,-134.7157898,-81.56587982,-154.5451202,6.776229382,0.014076849,-1.123475909,62.38960648,-34.95027542,-22.22809601, 
456,4140793937,-137.6228638,-81.46273041,-150.7958832,7.563124657,1.711495996,-1.358685374,48.59905624,-26.85266495,-19.6594944, 
457,4140810604,-139.6109772,-81.39189148,-148.1430054,7.557068348,2.313416243,-1.046212792,38.69389725,-18.27559471,-14.98976898, 
458,4140827271,-140.9814911,-81.35323334,-146.1485443,7.4324646,1.873307467,-0.79301548,36.71110153,-12.66512489,-12.3097477, 
459,4140843938,-142.300705,-81.25311279,-144.1912842,7.519174576,1.226946235,-0.592249393,37.58474731,-15.14299202,-10.16796398, 
460,4140860605,-143.2161713,-81.11515808,-142.6423035,7.723098755,0.533745408,-0.506255805,37.57897949,-14.62902927,-6.288319111, 
461,4140877272,-143.9260559,-80.85445404,-141.3744202,8.296408653,0.172586203,-0.393609166,33.20703888,-19.08905792,-0.247387931, 
462,4140893939,-144.2390289,-80.56960297,-140.5284882,8.722925186,-0.333232641,-0.355781823,32.00344086,-18.05739212,3.443426132, 
463,4140910606,-144.376709,-80.27722931,-139.8384705,8.926484108,-0.593758523,0.122553758,33.23282623,-17.68645668,4.711749077, 
464,4140927273,-144.7151337,-79.8800354,-138.8908539,8.908947945,-1.045860171,0.351074994,36.35021591,-24.51903152,5.928689003, 
465,4140943940,-145.2549896,-79.41259003,-137.717926,8.827601433,-1.462454438,0.660163462,37.4736824,-29.64297676,5.823478699, 
466,4140960607,-146.2385406,-78.74750519,-135.9824219,9.325521469,-1.660798311,0.421664447,43.82557297,-43.49970627,6.26396513, 
467,4140977274,-147.2260284,-77.87008667,-134.0684662,10.79798317,-1.781308055,-0.657132506,53.76159668,-56.19118881,9.550233841, 
468,4140993941,-147.8451843,-77.14078522,-132.4872437,11.38020706,-1.322884798,-1.783266068,56.02725983,-47.34178543,6.316725731, 
469,4141010608,-148.6881866,-76.55047607,-130.8277588,11.85876274,-0.282115012,-1.656302929,46.9303627,-41.44265747,-0.479700476, 
470,4141027275,-149.0697479,-76.33798218,-129.6755219,13.50387287,-0.017260462,-1.10221827,44.86948395,-18.69101906,-7.104298592, 
471,4141043942,-148.8535461,-76.6020813,-129.0350037,13.82489872,-0.587383091,1.190670013,50.87938309,9.536436081,-15.68369579, 
472,4141060609,-149.1399078,-76.94985962,-127.9526672,13.12273979,-2.211319923,1.86155808,46.51245499,10.8150692,-23.27382851, 
473,4141077276,-149.9179382,-77.16175079,-126.3170395,11.10144806,-3.477213144,0.975699663,49.35365295,0.384399533,-25.17567635, 
474,4141093943,-150.1675262,-77.05162048,-125.0005646,9.041130066,-2.40114665,-1.238806963,62.34299088,-13.95754719,-11.74210453, 
475,4141110610,-149.9201813,-76.69245911,-123.9838867,10.46023178,-0.082466364,-5.523287773,74.56011963,-25.01910019,-1.007785678, 
476,4141127277,-149.6345062,-76.57022858,-123.0583878,10.60315132,1.490623593,-8.829530716,71.56346893,-12.21809578,-7.170134544, 
477,4141143944,-151.7277985,-76.54467773,-120.3038559,12.80149174,2.765683413,-9.334558487,35.70812225,-19.55944824,-32.527565, 
478,4141160611,-156.4487,-77.1118927,-116.0981598,15.88782501,1.479710698,-8.325855255,-36.83047867,6.049305439,-66.36284637, 
479,4141177278,-159.2194214,-78.7583313,-114.4396439,13.82784557,0.306057572,-7.293780327,-68.08454132,84.19826508,-56.35140228, 
480,4141193945,-157.8664551,-80.77899933,-116.9431915,8.922988892,-0.339906752,-3.235655308,-65.72345734,123.1482162,-19.37766266, 
481,4141210612,-152.7505188,-82.26906586,-122.7103577,8.52511692,-1.079410911,-0.724101603,-34.35770798,102.9949799,9.121026039, 
482,4141227279,-145.7933197,-83.04297638,-129.7723541,9.144189835,-0.993039966,1.807757974,-1.872508168,68.06707764,22.92605019, 
483,4141243946,-142.0814056,-82.84947205,-133.4077606,10.27148628,-1.618669152,1.08171463,7.126180172,6.950501919,28.56044197, 
484,4141260613,-140.9981689,-82.40788269,-134.7350006,11.54578876,-2.085263729,-2.317708969,-13.13565159,-13.82111549,24.56132889, 
485,4141277280,-137.9170837,-82.45030975,-138.4358673,10.07914543,-1.0531286,-3.00388813,-34.38312912,21.52248001,20.6486721, 
486,4141293947,-133.9777679,-82.67684174,-143.2900543,7.871094227,-0.085682705,-1.648383737,-51.53248596,36.54798126,17.7003727, 
487,4141310614,-130.3399506,-82.84442902,-147.9746704,5.949574471,0.347303033,-0.503043115,-59.63591385,33.57952499,16.37201309, 
488,4141327281,-128.2976532,-82.75402832,-150.9578247,6.00320673,0.278735042,0.152071908,-54.08283997,14.51397324,18.45064354, 
489,4141343948,-127.07724,-82.54291534,-152.9657593,7.067347527,-0.95036155,1.33E-04,-45.32138824,5.048178673,19.49399376, 
490,4141360615,-126.0606766,-82.34688568,-154.6591034,7.592731953,-2.107983351,-0.671960235,-38.796978,4.317176342,17.44985199, 
491,4141377282,-124.5697937,-82.24620056,-156.7462311,7.48644495,-2.867056608,-0.961698234,-33.70623398,10.80531025,14.66646862, 
492,4141393949,-122.8121567,-82.21782684,-159.0392151,6.988750458,-2.781729937,-0.576184809,-29.93560982,15.12914371,11.76109695, 
493,4141410616,-121.9364014,-82.16416168,-160.4498596,7.328009129,-2.381992102,-0.127565145,-30.37943268,8.598650932,8.889535904, 
494,4141427283,-122.1628113,-82.09992981,-160.7525482,7.965504169,-2.165228844,0.219603866,-30.66106033,0.673193634,4.595202923, 
495,4141443950,-121.9121323,-82.10440063,-161.5210419,8.538991928,-1.913450718,0.098856725,-29.74697685,6.122556686,3.143226624, 
496,4141460617,-120.7115173,-82.11121368,-163.0709839,8.190096855,-1.537044883,0.504540026,-19.20322609,11.7335453,6.28712225, 
497,4141477284,-119.4191666,-82.0980835,-164.6819611,8.245755196,-1.387933016,0.820223987,-17.34850502,11.70624256,7.333594799, 
498,4141493951,-118.1578751,-82.08185577,-166.3081818,8.492320061,-1.3072896,0.897405446,-20.14103317,11.91035366,7.314555645, 
499,4141510618,-117.4193954,-82.04480743,-167.5016785,8.542901993,-1.144777656,0.729759455,-25.8079586,8.323228836,6.56801033, 
500,4141527285,-117.6650391,-82.04540253,-167.8348541,9.082969666,-1.083544254,0.460511535,-33.75084305,3.081848145,1.237597942, 
501,4141543952,-118.7364883,-82.06523895,-167.4624481,10.09712505,-1.335457325,0.610832214,-41.38819122,-1.550864935,-2.514049053, 
502,4141560619,-120.7771988,-82.05592346,-166.1571198,11.65231514,-2.202409029,0.241422281,-44.114048,-9.058681488,-4.894628525, 
503,4141577286,-122.603714,-82.05987549,-165.0311737,12.80383778,-2.838468075,0.224403754,-41.94649887,-7.212101936,-5.113435268, 
504,4141593953,-123.4549179,-82.09028625,-164.9140472,13.23825359,-3.05461669,0.657731712,-43.39663696,0.787096322,-2.071101427, 
505,4141610620,-123.0273361,-82.1394043,-166.1384277,13.24048138,-3.094817877,1.099087834,-46.44415665,10.64542675,3.044798374, 
506,4141627287,-120.9770737,-82.22060394,-168.9481812,12.49994755,-3.152179956,1.75900209,-43.38175964,22.62781143,8.005509377, 
507,4141643954,-118.1713867,-82.28540802,-172.4568024,11.5008955,-3.112080097,2.408811331,-39.6865921,27.19729424,10.58325768, 
508,4141660621,-115.8466187,-82.34470367,-175.522995,10.67652798,-2.5040133,1.912695765,-42.33472824,24.13269806,7.956807613, 
509,4141677288,-116.3744583,-82.34696198,-175.9953003,10.17280197,-1.916367531,-1.588353276,-59.30778885,4.051966667,1.484441042, 
510,4141693955,-120.3227005,-82.1414566,-173.5045929,10.97828484,-0.732050061,-6.335756779,-88.34600067,-22.99486732,1.221146822, 
511,4141710622,-122.7220917,-81.81736755,-172.3117981,12.29333401,-0.702248335,-7.805506706,-72.51020813,-18.05936813,11.29971695, 
512,4141727289,-120.8833237,-81.25791931,-174.0721741,14.95353889,-2.034481764,-4.905272961,6.551312447,-3.847860098,36.66490173, 
513,4141743956,-114.8945084,-80.5207901,-179.0180359,15.28919411,-2.460968256,-3.035143852,67.07689667,21.49849701,60.96855164, 
514,4141760623,-108.5052032,-79.95294189,175.7021179,10.10669518,-3.014382601,-2.019408226,71.95497894,37.97990417,51.40390396, 
515,4141777290,-105.7190628,-79.75608826,173.7469482,9.082464218,-2.383403778,-2.203726292,52.51675415,16.95215607,17.28687859, 
516,4141793957,-104.3559494,-80.07873535,172.7642212,10.03959084,-0.995839119,-1.319518566,24.59275818,15.67132092,-16.10054779, 
517,4141810624,-103.8563843,-80.72884369,172.2070313,11.49837208,-0.399801105,0.244786486,-2.107635975,15.58846092,-36.56742096, 
518,4141827291,-103.1739426,-81.30444336,171.5266266,11.72231007,-0.625106037,1.002416015,1.514626384,14.93384552,-32.18202972, 
519,4141843958,-101.6774521,-81.64741516,170.3706512,8.619977951,-1.229754448,0.611660182,22.07816696,15.12253761,-17.97301865, 
520,4141860625,-100.9713211,-81.79979706,170.3986664,6.0284338,-2.837345362,-0.169130802,44.89614868,2.209342003,-9.097640038, 
521,4141877292,-101.5147171,-81.98136902,171.9904785,5.023859501,-3.31036067,-0.553192794,62.81016922,-10.43585205,-13.4123354, 
522,4141893959,-103.6990509,-82.25376892,175.385849,4.574250698,-2.895299435,-0.242512241,71.58640289,-23.04285622,-22.1389122, 
523,4141910626,-108.7768555,-82.52236938,-178.3574829,5.23153019,-1.160904288,0.061055817,68.26508331,-42.57073593,-29.44026375, 
524,4141927293,-114.7099686,-82.66789246,-171.394577,7.313683987,0.916403234,-0.909412801,59.14334106,-46.10974503,-28.11171722, 
525,4141943960,-118.17733,-82.75679016,-167.0582581,7.944768906,2.066617489,-0.853101373,50.89411545,-26.53761864,-19.53076172, 
526,4141960627,-120.9473648,-82.76094055,-163.5105896,7.931667805,1.77873528,-0.151827425,45.86138153,-22.58088303,-13.50872421, 
527,4141977294,-123.672966,-82.70851898,-160.1027832,8.384048462,2.013687134,-0.475672215,40.20191193,-22.91087723,-11.19561195, 
528,4141993961,-124.8024902,-82.66957855,-158.4394684,7.98446703,1.208515406,-0.484082758,32.1540947,-11.19556808,-5.238580704, 
529,4142010628,-125.7696838,-82.56916809,-157.0398102,8.052669525,0.331388175,0.007345999,26.20724869,-11.67007065,-1.330244422, 
530,4142027295,-127.0620346,-82.39501953,-155.3744049,8.298531532,-0.366570801,0.313976794,22.48934746,-16.10527802,0.63401854, 
531,4142043962,-129.2613525,-82.12124634,-152.8183289,8.635189056,-0.979031622,0.833618999,20.96362877,-25.7753582,0.143559739, 
532,4142060629,-132.372757,-81.63623047,-149.2094879,9.316153526,-1.6113801,0.814748943,28.60364723,-41.54521179,2.02963233, 
533,4142077296,-135.234848,-81.06270599,-145.7372742,10.17396164,-1.806798935,0.046697233,35.13557434,-45.80922318,3.159300089, 
534,4142093963,-137.7372742,-80.49097443,-142.716507,10.43150997,-1.70319593,-0.173721462,29.63923454,-44.2576828,2.576266289, 
535,4142110630,-140.2823944,-79.79764557,-139.5016327,11.10414791,-1.449749351,-0.316146135,38.20705795,-52.42565536,2.396705627, 
536,4142127297,-142.0113068,-79.17358398,-136.9144592,11.81789398,-0.768984258,-0.552250445,49.7278862,-46.30894089,1.485029459, 
537,4142143964,-142.9103241,-78.8033905,-135.1369324,12.40840816,-0.301327616,-0.454985619,51.57936096,-29.41130447,-2.548911333, 
538,4142160631,-142.8157043,-78.77624512,-134.2609558,13.19417,-0.752293468,-0.002000004,58.06528473,-6.851294994,-7.084822178, 
539,4142177298,-142.4997406,-78.87223816,-133.5570831,13.2419939,-1.77068615,1.042281151,61.17993927,0.221591249,-9.910526276, 
540,4142193965,-143.0297241,-78.99550629,-132.0260925,12.98493004,-2.82706809,1.382064223,59.0937233,-4.1765275,-18.41251373, 
541,4142210632,-143.2363892,-79.26848602,-130.7705536,11.55003071,-2.897637606,0.9445768,62.26667023,5.182130337,-21.08711243, 
542,4142227299,-142.0260468,-79.43349457,-130.7029266,9.707959175,-1.194906831,-0.508287668,77.23194885,8.006637573,-6.49888134, 
543,4142243966,-141.114502,-79.27815247,-130.3623199,10.0830555,0.398471683,-4.740160465,75.39933014,-9.047595024,2.942485332, 
544,4142260633,-142.3441315,-78.86302185,-127.9452209,9.475226402,1.51309216,-8.222938538,69.30541992,-35.97603226,-6.047960758, 
545,4142277300,-147.5347443,-78.43968201,-122.2802505,14.04634285,2.551449537,-10.23573303,22.66021347,-58.5629425,-40.03547287, 
546,4142293967,-153.0351563,-79.25460815,-117.5839233,17.39200592,0.712263286,-8.708968163,-52.54243851,16.03151131,-71.43644714, 
547,4142310634,-155.2458496,-81.33018494,-116.9429321,13.00946808,0.149161458,-5.247781754,-93.5795517,109.8441849,-60.07723999, 
548,4142327301,-151.823349,-83.38998413,-121.7123184,8.6502285,-0.695108891,-0.953393042,-77.11300659,128.0950012,-20.93346024, 
549,4142343968,-142.1679535,-84.59848022,-131.9058838,8.141655922,-1.452431083,0.478864521,-27.77500153,95.98264313,14.27646828, 
550,4142360635,-131.8811798,-84.86546326,-142.1343384,8.778250694,-2.156765223,2.266646147,7.237355709,50.62586212,30.31021881, 
551,4142377302,-128.4324341,-84.40444946,-145.3062439,10.04412556,-1.811555147,0.883935869,18.55134392,-3.635439873,32.61930466, 
552,4142393969,-127.6420746,-83.91803741,-146.2023315,10.42952538,-1.042517424,-1.579371095,-5.022096634,-13.08361626,26.38720894, 
553,4142410636,-124.8760605,-83.84897614,-149.5757446,9.218307495,-0.087179348,-2.221078396,-34.18748856,15.54630947,16.10073853, 
554,4142427303,-121.3805237,-83.95506287,-153.9420319,6.876731873,0.406672686,-0.883627176,-49.63846207,27.38148308,9.891303062, 
555,4142443970,-118.7347565,-83.99204254,-157.5187531,5.890536785,0.58945787,-0.064708903,-53.5106926,21.21992874,9.365907669, 
556,4142460637,-117.0464401,-83.88294983,-160.1247711,5.782648563,-0.024021927,0.365304828,-53.04315948,12.14155293,13.51801872, 
557,4142477304,-117.1276474,-83.66544342,-160.8572998,6.886252403,-1.19788003,0.399680257,-47.41887283,-1.086135149,13.79511929, 
558,4142493971,-117.6583023,-83.45563507,-161.0707703,7.422568321,-2.333979845,-0.391658098,-43.4409523,-3.904830694,11.84634113, 
559,4142510638,-117.4654617,-83.3263855,-161.8959503,7.362792492,-2.767045975,-0.464236975,-36.47731781,2.078339815,9.509210587, 
560,4142527305,-117.7148819,-83.26190186,-162.2584381,7.350019932,-2.343971252,-0.270620525,-35.45024109,1.076980352,4.597525597, 
561,4142543972,-117.4721375,-83.19150543,-163.1082306,7.28731966,-2.262467861,0.363002986,-34.9656601,3.988581657,6.521214962, 
562,4142560639,-118.364624,-83.06884766,-162.8639374,7.591709137,-1.90505898,0.563852012,-37.89987564,-4.372577667,5.659565449, 
563,4142577306,-119.2377319,-82.93897247,-162.6367645,7.900521278,-1.653317928,0.664330959,-37.78985977,-4.593168259,6.014366627, 
564,4142593973,-120.365799,-82.78631592,-162.051712,8.402611732,-1.153838873,0.729751587,-31.80045891,-7.713877201,5.756015778, 
565,4142610640,-121.6705017,-82.63963318,-161.2771149,9.225909233,-1.074247122,1.016708612,-31.16182709,-8.971003532,4.491664886, 
566,4142627307,-122.9521103,-82.51759338,-160.5934143,10.1650362,-1.112917542,0.753448844,-35.21437836,-7.774303913,3.338413477, 
567,4142643974,-123.7583847,-82.40658569,-160.4536591,10.82303429,-1.358016014,0.38568303,-39.08649445,-3.965924263,4.946351528, 
568,4142660641,-124.5606308,-82.33420563,-160.3153839,11.56268883,-1.915154219,0.086880118,-38.9444046,-2.734266281,2.959601641, 
569,4142677308,-125.5822372,-82.28553009,-160.026123,12.64257526,-2.199826002,-0.176280439,-43.13519669,-2.962351799,1.034324408, 
570,4142693975,-125.971077,-82.30802917,-160.5566101,13.30502701,-2.40098238,0.342631787,-53.94332123,4.861545563,1.383983612, 
571,4142710642,-125.2748642,-82.37941742,-162.3169556,13.31215668,-2.571149111,0.98697412,-62.00085068,14.5479002,4.687331676, 
572,4142727309,-123.4437561,-82.43663025,-165.2400513,12.87366772,-2.703422785,1.761986971,-63.12394714,21.66875839,10.2186079, 
573,4142743976,-120.5764465,-82.51180267,-169.2273865,12.02263832,-2.887984753,2.514381409,-64.32718658,29.56378174,12.74392033, 
574,4142760643,-119.3094177,-82.53124237,-171.7916107,10.24516106,-2.491326332,0.55744344,-75.77259064,18.54139709,8.936964989, 
575,4142777310,-123.6361237,-82.29828644,-169.266571,10.83051777,-2.163883209,-5.030031204,-108.6937637,-23.73796844,1.428290486, 
576,4142793977,-128.5110626,-81.81108856,-165.8813019,13.32866001,-1.946303606,-9.476678848,-90.53129578,-39.27369308,7.040533066, 
577,4142810644,-127.587677,-81.23007202,-166.970993,13.94063091,-3.186210871,-5.815299988,-8.354435921,-13.25836849,33.34553909, 
578,4142827311,-124.0326996,-80.43450165,-169.5792694,14.84048843,-3.844919682,-3.540735006,59.78136826,-7.04650116,53.22503662, 
579,4142843978,-118.6312637,-79.99515533,-173.7247772,10.69306278,-3.480439663,-2.250540257,79.95896149,23.0712204,44.41262054, 
580,4142860645,-116.6141739,-79.8356781,-174.784317,8.04883194,-1.702728748,-2.20284605,59.44177628,6.104560375,13.56376839, 
581,4142877312,-117.3052216,-80.05141449,-173.5279236,8.214384079,-0.606480598,-1.599649072,33.79482651,-5.178767204,-17.58584023, 
582,4142893979,-120.0641785,-80.43240356,-170.4504395,10.67467499,-0.194515899,-1.16342473,17.48543739,-15.80357552,-35.14095306, 
583,4142910646,-122.2323532,-80.83597565,-168.057312,12.34623432,-0.070314139,-0.909022272,12.66406441,-6.801361561,-32.87921524, 
584,4142927313,-122.063118,-81.23272705,-167.8335266,10.67474747,-0.236341655,-0.811718524,24.50868797,11.55589581,-21.33385849, 
585,4142943980,-120.1473465,-81.58567047,-169.011795,7.00300169,-1.150967598,-0.578679085,46.13481522,20.63821793,-12.73900032, 
586,4142960647,-119.1605453,-81.84512329,-168.9641876,5.313311577,-1.688459873,-0.657045305,63.14768982,8.00270462,-13.80522728, 
587,4142977314,-119.7568893,-82.08403778,-167.1987762,4.683264256,-2.0210917,-0.698573172,70.20568848,-5.186573505,-19.83208847, 
588,4142993981,-122.677002,-82.27566528,-163.0671844,5.317224979,-1.68159771,-0.446770459,71.49459839,-22.23011208,-27.37753487, 
589,4143010648,-127.0475998,-82.33843231,-157.574234,7.353023052,0.007967024,-0.796575487,65.47706604,-33.38422775,-28.36359215, 
590,4143027315,-130.0948639,-82.4227829,-153.6914368,8.22642231,1.453117371,-0.849584818,49.19173813,-20.343853,-23.27409744, 
591,4143043982,-132.2416534,-82.50783539,-150.8339691,8.008642197,1.865483522,-0.574459732,42.30166626,-12.92191029,-18.69198799, 
592,4143060649,-133.4956055,-82.53557587,-148.894455,7.889774799,1.887914419,-0.147807866,41.30016708,-9.332619667,-11.56538391, 
593,4143077316,-134.3825073,-82.51465607,-147.4042206,7.782488823,1.614818931,0.017463896,36.61050797,-8.613940239,-7.201585293, 
594,4143093983,-135.4495392,-82.37789917,-145.8797302,7.838544846,0.887590885,0.547968268,27.83632278,-13.67788887,-2.70554924, 
595,4143110650,-136.1337433,-82.18056488,-144.7867432,8.523122787,-0.047154773,0.802342713,25.11033821,-13.99983215,1.917615294, 
596,4143127317,-136.9863739,-81.88346863,-143.51091,8.366508484,-0.471463799,0.969427109,25.79838753,-19.61386299,4.541712761, 
597,4143143984,-138.6050415,-81.41391754,-141.5079193,9.102735519,-1.14203155,0.804500163,22.91140366,-31.97086334,5.99407053, 
598,4143160651,-140.406311,-80.84986115,-139.1366272,9.7850914,-1.869501829,0.243409529,33.59382629,-39.35440063,5.303391457, 
599,4143177318,-142.1450958,-80.23052216,-136.7167358,10.5937748,-2.442536116,-0.466126502,39.97389603,-43.28871536,4.638363361, 
600,4143193985,-144.0458679,-79.56066895,-134.1124115,11.14895439,-2.151566029,-0.703745544,40.84152985,-47.96667862,2.229757547, 
601,4143210652,-146.0613251,-78.82844543,-131.3495636,11.92275715,-1.217242956,-0.713830054,42.9379158,-53.18008041,-0.278965294, 
602,4143227319,-147.2941742,-78.28870392,-129.2615204,13.16474438,-0.506287932,-0.561955094,49.84858704,-40.08444595,-2.934815645, 
603,4143243986,-147.5913239,-78.15850067,-128.0157318,13.67678833,-0.622927427,0.578074217,56.35115814,-14.17095566,-8.59871769, 
604,4143260653,-147.8074341,-78.27190399,-126.7295609,13.26916313,-1.616681933,1.589064956,63.54552078,-2.052139282,-16.89332008, 
605,4143277320,-147.9255676,-78.49449158,-125.4057617,11.91412258,-2.404931307,0.732396901,71.61370087,3.411639452,-20.5690937, 
606,4143293987,-147.7087097,-78.52903748,-124.5146637,9.530603409,-1.149138331,-1.500895619,66.26490784,-3.313035727,-10.0333252, 
607,4143310654,-147.8649292,-78.36915588,-123.3669891,10.33879566,0.801564813,-6.090986252,58.94955444,-14.8578968,-6.466337204, 
608,4143327321,-148.2173004,-78.36133575,-121.7882538,10.88112736,2.228487968,-9.935176849,72.58942413,-9.895784378,-15.88002777, 
609,4143343988,-151.0365601,-78.62402344,-118.3348083,14.65947533,3.122500896,-9.335693359,34.99394226,-6.686211109,-43.55254745, 
610,4143360655,-155.6703644,-79.68952179,-114.4581375,16.57619667,0.800895691,-7.873804569,-48.31893539,38.10982513,-67.70043182, 
611,4143377322,-156.2049866,-81.71703339,-115.2182999,11.68929291,-0.166564405,-5.380399704,-75.73732758,114.7096405,-42.83683777, 
612,4143393989,-149.7143402,-83.67671967,-122.8111572,8.507220268,-1.137962461,-1.83084929,-61.0769577,131.4459381,-1.78390944, 
613,4143410656,-139.0412598,-84.77922058,-134.0048676,8.212907791,-1.951130033,1.211114168,-26.46374702,93.4281311,16.4647522, 
614,4143427323,-130.8585663,-84.88748932,-142.0049744,9.12746048,-2.018082142,2.417093515,14.26244831,35.76153946,25.92720222, 
615,4143443990,-129.225647,-84.41486359,-143.4629669,10.81471539,-1.640206218,0.250206351,12.17324829,-11.38276768,26.95962715, 
616,4143460657,-128.1391449,-84.07411194,-144.818924,11.09456635,-1.142498732,-2.044055939,-14.44608974,-5.782445908,21.04947662, 
617,4143477324,-124.637146,-84.03951263,-149.074173,9.022360802,0.276372433,-1.946955085,-42.49679947,20.67199135,17.34049225, 
618,4143493991,-120.3063965,-84.11234283,-154.480545,6.849414825,0.932013512,-0.871671081,-61.45665741,31.20429993,14.2783289, 
619,4143510658,-117.0630264,-84.06548309,-158.9107666,5.669044018,1.482163072,0.329393327,-68.43372345,23.29037094,15.59241676, 
620,4143527325,-115.8526154,-83.81788635,-161.2802277,5.996343613,0.30589658,0.746005714,-67.36935425,7.447472095,19.96926689, 
621,4143543992,-116.3523026,-83.5281601,-161.8532104,7.098680496,-0.990876198,0.310254782,-62.79214096,-3.61634326,17.27388573, 
622,4143560659,-116.6483231,-83.27880096,-162.4461823,7.451508045,-2.568249464,-0.392773986,-51.75465012,-2.390938282,15.21490574, 
623,4143577326,-115.990303,-83.10579681,-163.8422089,7.106230736,-3.073649168,-0.440487534,-42.35563278,4.92927599,13.69502831, 
624,4143593993,-115.527092,-82.91085815,-164.9153137,6.741381645,-3.022486925,0.075652122,-34.78710175,2.608602285,13.92554092, 
625,4143610660,-115.6176453,-82.70413208,-165.4470062,6.837709427,-2.571218014,0.455658913,-35.7581749,-1.113357544,12.8850069, 
626,4143627327,-116.3228607,-82.47335052,-165.3209534,7.133067131,-2.140055418,0.76658082,-33.52565765,-6.299990654,11.99103642, 
627,4143643994,-117.6069107,-82.28767395,-164.5984497,7.978466988,-2.047052622,0.692038655,-32.81162643,-9.536128044,7.294246197, 
628,4143660661,-118.3479767,-82.15609741,-164.3153992,8.843810081,-1.816335797,0.899884164,-26.40584564,-5.095858574,5.866463184, 
629,4143677328,-117.9402084,-82.13458252,-165.2002106,9.782079697,-1.18455112,0.935937881,-26.91021729,6.424438477,4.530437946, 
630,4143693995,-117.1669235,-82.22286987,-166.6141052,9.841253281,-0.755084753,0.842573643,-36.44589233,13.3251152,0.600774646, 
631,4143710662,-118.4082184,-82.34573364,-166.1536713,10.50435734,-1.331560016,0.516039014,-45.92564011,0.78887701,-8.28288269, 
632,4143727329,-121.1484451,-82.45904541,-164.2356415,12.50582695,-2.123180151,-0.10307771,-49.18334579,-9.197216034,-13.48922825, 
633,4143743996,-123.5328217,-82.54691315,-162.7091675,14.08595657,-2.863283634,-0.055313237,-51.10815811,-6.647335052,-10.87888813, 
634,4143760663,-123.3757553,-82.68375397,-163.7228394,14.36422443,-3.338402748,0.77421087,-49.77144623,11.67195606,-2.574862003, 
635,4143777330,-120.7210007,-82.78368378,-167.2360992,13.54885292,-3.498377562,2.125805855,-48.72341537,26.40293694,9.013246536, 
636,4143793997,-117.4097214,-82.77849579,-171.4855957,12.37434196,-3.159064531,2.833243847,-53.25597,28.46831512,15.78424644, 
637,4143810664,-115.0521469,-82.71482086,-174.868042,10.81004047,-2.161834955,1.691020966,-58.90159988,21.91673851,14.68579483, 
638,4143827331,-117.4230576,-82.52236938,-173.839859,10.40384483,-1.183980346,-2.395754099,-80.14805603,-11.5848875,6.787664413, 
639,4143843998,-122.2630539,-82.20230103,-170.6842346,11.70619869,-0.2787081,-7.340183258,-101.7781067,-30.75017548,4.072056293, 
640,4143860665,-123.0811996,-81.85488892,-170.9375,12.45422554,-1.345252156,-7.198219299,-63.08979034,-8.837576866,18.62683296, 
641,4143877332,-120.4736404,-81.23010254,-173.3530579,13.24458027,-3.234345675,-3.884263992,14.25321293,-0.965663373,43.01904297, 
642,4143893999,-115.3656921,-80.55776978,-177.3936462,12.31971741,-4.172661781,-1.957047701,68.26567841,15.68340397,53.5154686, 
643,4143910666,-112.024765,-80.12315369,-179.6628265,8.486603737,-3.385252714,-1.751532078,67.40893555,11.11864662,32.96971893, 
644,4143927333,-112.6028061,-80.03899384,-178.1972809,8.545362473,-2.161489248,-2.414651155,53.1159935,-15.24491215,-1.163962483, 
645,4143944000,-114.8562012,-80.34860229,-175.3235779,10.59181595,-0.79074806,-1.51452291,35.90470505,-18.72141457,-28.90769768, 
646,4143960667,-116.9859924,-80.87601471,-172.814621,12.59498882,-0.21429348,-0.276462346,21.95000076,-7.576438427,-39.26359177, 
647,4143977334,-117.6357498,-81.3297348,-171.736084,11.77950954,-0.056312814,0.024051176,26.18399239,4.270492554,-28.85986519, 
648,4143994001,-116.7930527,-81.61077881,-171.8209991,7.969214916,-0.743513525,-0.409310579,46.74919128,9.048648834,-14.7231102, 
649,4144010668,-116.5149689,-81.78756714,-171.0170441,5.734599113,-1.973565698,-0.786227703,65.65148163,-0.799980402,-12.68252563, 
650,4144027335,-117.621666,-81.98592377,-168.681839,4.998911858,-2.008772612,-0.683186054,73.54183197,-11.52977753,-19.66591072, 
651,4144044002,-120.6384735,-82.21328735,-164.5241394,4.67741394,-1.598201036,-0.105094358,67.31713104,-22.64756966,-28.67044258, 
652,4144060669,-125.3649826,-82.2977829,-158.799118,5.940616608,0.12180309,-0.187694967,58.00999069,-35.38588715,-29.52062416, 
653,4144077336,-129.9799652,-82.32542419,-153.393692,7.085000992,1.222123981,-0.214851141,45.75210953,-32.6593895,-27.88857269, 
654,4144094003,-133.2193146,-82.31967163,-149.4347839,7.546217918,1.907107353,-0.1100327,42.28677368,-23.30882645,-20.85927963, 
655,4144110670,-135.5098267,-82.16989899,-146.362854,7.888128281,1.975745797,0.021782074,46.44673157,-23.41490555,-11.01389503, 
656,4144127337,-136.433136,-82.03474426,-144.7452393,8.006667137,1.264344215,-0.115685537,42.00437927,-14.45891285,-3.988674641, 
657,4144144004,-136.6751404,-81.88455963,-143.8942261,8.120446205,0.323274046,0.741523385,37.30405807,-10.81906033,0.985159397, 
658,4144160671,-136.9644165,-81.66056824,-143.0726929,8.439544678,-0.32372728,1.43000567,32.69897461,-13.98821449,4.023849964, 
659,4144177338,-137.9963531,-81.2156601,-141.4569702,8.627760887,-1.094447374,1.488958836,35.16913605,-28.79543877,7.388781071, 
660,4144194005,-140.017868,-80.47731781,-138.7350464,9.836836815,-1.753861547,0.744741619,41.14049149,-49.83539581,9.436461449, 
661,4144210672,-141.8382568,-79.72471619,-136.1291199,11.7334013,-2.328252077,-0.889716983,45.96216202,-51.36401749,7.5971241, 
662,4144227339,-142.4913483,-79.26016235,-134.6636353,12.92709255,-1.965430617,-1.073955297,48.41596222,-31.21268845,4.438169003, 
663,4144244006,-142.7935944,-79.01888275,-133.5669861,13.78659725,-0.779547572,-0.09541668,47.61867142,-18.39768791,-1.05478549, 
664,4144260673,-142.1277161,-79.06942749,-133.3131866,14.34134483,-0.113819785,0.915838361,56.02010727,1.27594924,-4.126117229, 
665,4144277340,-141.3229828,-79.17990875,-133.0179443,13.71231079,-0.913116157,1.728624463,66.75295258,3.759030104,-6.697935104, 
666,4144294007,-140.5795593,-79.32268524,-132.5990143,12.72076607,-2.632204771,1.371139407,70.32866669,4.324230194,-8.999559402, 
667,4144310674,-138.8959351,-79.49992371,-132.9879303,10.29077816,-2.183321476,-0.117188007,79.04725647,11.50657177,-3.55694747, 
668,4144327341,-137.4314575,-79.49282837,-133.499176,8.074872017,0.069096953,-3.955089808,58.65903854,4.034945965,4.492099762, 
669,4144344008,-139.2358246,-79.16278839,-130.9761047,7.904531479,1.422795177,-8.147208214,41.50777054,-32.79847336,-7.736400127, 
670,4144360675,-142.8387756,-79.07421875,-126.607254,11.46975136,3.149167061,-10.93304253,42.37918472,-34.60803986,-35.0868721, 
671,4144377342,-148.8526306,-79.60730743,-120.890213,17.65489197,2.149815083,-7.760598183,-22.40479469,-8.531839371,-70.3884964, 
672,4144394009,-152.6825256,-81.15686798,-118.3149567,15.96082592,-0.383079112,-6.659107685,-76.03209686,69.13846588,-67.89250183, 
673,4144410676,-150.1484985,-83.0749054,-122.4152298,10.4423666,-1.314524531,-3.109018564,-90.18196106,117.7810669,-25.39868736, 
674,4144427343,-141.4871674,-84.46183014,-132.1758575,8.956900597,-1.889279962,-0.784705758,-61.04332733,104.9017105,5.931479454, 
675,4144444010,-131.4328156,-84.93209839,-142.3812714,8.70307827,-2.124087095,1.898207784,-4.953393936,59.9444313,21.58463097, 
676,4144460677,-126.8586197,-84.5824585,-146.5109253,10.04187107,-1.331293225,1.681092978,29.12552452,4.947534084,30.54064751, 
677,4144477344,-125.2260666,-84.23265076,-147.9931488,10.83249283,-1.501735568,-0.608929694,10.84606743,-4.705825329,22.05295563, 
678,4144494011,-122.7020721,-84.16918182,-151.026123,9.217167854,-0.185341254,-1.858916163,-28.20239449,13.75216866,13.41432285, 
679,4144510678,-120.1448975,-84.1753006,-154.5676727,7.030527115,0.418583006,-1.379474282,-56.53262329,19.23500252,10.91459751, 
680,4144527345,-118.6230621,-84.13659668,-157.2744141,6.407467842,0.86602509,-0.233458281,-68.80323792,13.90454865,10.11998749, 
681,4144544012,-118.3163605,-83.99332428,-158.8453369,6.170732498,0.174017042,0.467836827,-73.88746643,5.105967522,12.18715, 
682,4144560679,-119.0357208,-83.80093384,-159.3617706,6.730326176,-0.546769023,0.387015671,-72.52232361,-2.014496326,11.69863129, 
683,4144577346,-119.6741638,-83.56014252,-159.6875916,6.907078743,-1.837620258,0.258506149,-56.28300476,-4.570596218,13.62903881, 
684,4144594013,-120.5818253,-83.30447388,-159.4815216,7.176767826,-2.75876832,0.013752067,-40.75962067,-8.290546417,12.54783535, 
685,4144610680,-121.2558823,-83.09954071,-159.4138641,7.014548779,-2.332024097,-0.172133148,-35.00964737,-6.092579842,10.28219128, 
686,4144627347,-121.9268265,-82.89380646,-159.3891449,7.101485729,-1.883228779,-0.00682712,-37.38422394,-5.981539726,10.39310074, 
687,4144644014,-123.2578583,-82.6664505,-158.790329,7.475860119,-1.695777297,0.240923226,-42.82733536,-10.51593971,9.036341667, 
688,4144660681,-125.0521622,-82.48127747,-157.778717,8.505060196,-1.553227305,0.747057021,-46.10432053,-12.09207153,4.765633583, 
689,4144677348,-126.3205261,-82.41175079,-157.3049622,9.997621536,-1.557984591,1.091935992,-46.57343674,-4.831969261,1.179691672, 
690,4144694015,-125.4236832,-82.52283478,-158.9717102,10.61815166,-1.21255827,1.318010211,-44.01851654,15.15878582,2.254908323, 
691,4144710682,-123.0219574,-82.78626251,-162.1493683,9.994728088,-1.186549067,1.466938853,-43.69074631,29.67088509,0.606425047, 
692,4144727349,-121.8412323,-83.04077911,-164.1020203,10.07910347,-1.764895201,0.538061559,-44.16484833,21.01280022,-5.168334484, 
693,4144744016,-122.5028076,-83.13273621,-164.2109528,11.69748497,-2.737226009,-0.664697111,-44.94122696,4.231555939,-4.290779114, 
694,4144760683,-121.8669662,-83.18724823,-165.682663,13.14091301,-3.782768011,0.170253322,-48.28995895,11.27032661,2.7870574, 
695,4144777350,-119.5881729,-83.14997864,-168.7742157,13.26001835,-3.989772558,2.361863613,-46.25600052,18.44682312,13.14521503, 
696,4144794017,-115.7751923,-83.0803833,-173.501297,12.78027534,-2.733605146,3.438140631,-51.67385864,28.78578758,19.42644691, 
697,4144810684,-110.7397079,-83.10721588,-179.7447968,9.729502678,-1.556864023,2.580817699,-68.70123291,42.62136078,16.23344994, 
698,4144827351,-111.7236023,-83.11208344,179.5207825,7.73664999,-0.3998833,-2.200673819,-101.7521057,5.656362057,1.573855639, 
699,4144844018,-119.4040298,-82.98390198,-174.9272308,9.534378052,0.617301345,-9.674049377,-129.0738831,-39.04083633,-10.54128551, 
700,4144860685,-124.7678833,-82.54449463,-170.6952515,14.35685349,-1.35041523,-10.56513977,-68.72639465,-40.4466362,5.277679443, 
701,4144877352,-121.5018921,-81.89063263,-173.2426758,17.3218174,-4.754268646,-4.455933094,45.8355751,-3.455964088,44.08887863, 
702,4144894019,-115.0292282,-80.99610901,-178.0891571,15.87979507,-3.084322929,-1.424139261,102.1228714,13.37004375,67.63690186, 
703,4144910686,-110.4908142,-80.36621857,178.8669281,9.346021652,-2.395772219,-1.40775919,93.39215088,13.32555199,46.20448685, 
704,4144927353,-110.5888901,-80.17349243,-179.7224731,8.805040359,-1.511989832,-2.806687832,78.87818909,-16.77080536,5.724198818, 
705,4144944020,-113.5217514,-80.48091125,-176.1691132,10.9137249,-0.158600673,-2.270080328,35.56483459,-25.58811951,-30.62125778, 
706,4144960687,-116.5745392,-80.91848755,-173.1389771,12.27962112,0.116191439,-1.174430013,-2.335910082,-14.82124615,-36.29823685, 
707,4144977354,-117.279213,-81.2617569,-172.3242798,11.86885929,-0.192277059,-0.022335071,7.436340332,3.247580767,-21.86015129, 
708,4144994021,-115.7922668,-81.45626831,-173.244278,7.994921207,-1.821517706,0.636321664,36.08506012,13.30612373,-6.815453529, 
709,4145010688,-114.8958206,-81.5407486,-173.0354309,5.943266392,-2.714669943,0.252222806,67.58677673,1.162489653,-5.441768646, 
710,4145027355,-115.428215,-81.67128754,-171.0297546,4.241922379,-2.6965518,-0.351470977,88.49975586,-11.89696217,-14.63687229, 
711,4145044022,-118.3561554,-81.86631775,-166.609436,3.391585827,-1.517873764,-0.252796739,88.18461609,-27.89717293,-27.67501259, 
712,4145060689,-123.6157684,-81.92357635,-160.1538696,5.045613289,0.361908019,-0.243173361,69.26015472,-44.35659409,-31.11464691, 
713,4145077356,-128.7056122,-81.86077118,-154.2196808,6.605967999,1.244902372,-0.177900538,48.48370743,-42.0785675,-26.64877129, 
714,4145094023,-133.004715,-81.790802,-149.249939,7.62124157,1.517199755,-0.140154183,38.59769821,-34.13661957,-24.61586189, 
715,4145110690,-136.095459,-81.64849854,-145.4832153,8.180907249,1.557271719,-0.302741855,39.59841919,-28.52223969,-16.79842949, 
716,4145127357,-137.7971344,-81.51941681,-143.0167389,7.870899677,0.714865386,-0.065263301,45.69122314,-19.79154396,-10.58259296, 
717,4145144024,-139.3134766,-81.25356293,-140.6360016,8.269089699,-0.40221712,0.58064127,51.6603508,-25.46417236,-5.518302441, 
718,4145160691,-140.5235748,-80.8685379,-138.4018402,9.278688431,-0.993561149,0.974299729,61.20501709,-30.43607712,-1.095594764, 
719,4145177358,-141.2594757,-80.3795166,-136.532608,10.57134342,-1.388609052,0.701701403,67.8610611,-33.64696503,4.30482626, 
720,4145194025,-141.8492584,-79.80988312,-134.876709,10.92033577,-1.611655951,-0.552524745,63.82539368,-36.74842453,7.842747688, 
721,4145210692,-142.6529999,-79.23426056,-133.2621765,11.89040852,-1.046926737,-1.13621664,48.35623932,-37.44173813,7.194907665, 
722,4145227359,-143.1282654,-78.86914825,-131.9845276,12.55234623,-0.068409346,-0.251943737,48.05564117,-25.61151505,1.597967386, 
723,4145244026,-143.9317932,-78.56330872,-130.3404999,13.03811073,0.624654591,0.605032027,49.82896423,-25.58570099,-4.615863323, 
724,4145260693,-144.6461945,-78.44683838,-128.8252869,13.36204338,0.169697776,0.708180428,47.50428772,-15.60850525,-10.62135792, 
725,4145277360,-144.4919586,-78.52838135,-128.0191345,12.57886219,-1.460515618,1.207197428,57.90435791,-0.977315784,-10.6809206, 
726,4145294027,-143.5172272,-78.65939331,-127.7811203,10.53158569,-2.574287176,0.977571547,73.68095398,5.332961559,-6.877302647, 
727,4145310694,-141.3063965,-78.81280518,-128.7550049,8.057703972,-1.508728504,-1.287384152,76.50032806,14.88419151,3.460849524, 
728,4145327361,-140.6482849,-78.79911804,-128.6578369,6.579559326,-0.391155064,-5.525263309,46.376297,-0.716770411,-0.336226881, 
729,4145344028,-142.3109283,-78.67710876,-126.1925125,8.808335304,1.58734715,-10.66600609,46.54008102,-23.08021355,-18.01501846, 
730,4145360695,-147.2706604,-78.70417023,-120.6295395,15.24586487,2.975636005,-9.837603569,31.11717033,-35.75331116,-54.38397598, 
731,4145377362,-154.559967,-79.31588745,-114.0282974,20.04623795,0.357104719,-9.531113625,-47.01538086,-4.012635708,-83.75326538, 
732,4145394029,-156.787384,-81.21130371,-113.4065018,15.38046837,-0.169679314,-6.859222889,-95.24802399,101.6856537,-52.60363388, 
733,4145410696,-153.7036743,-83.13718414,-118.4564209,10.34513664,-1.390324712,-2.62575078,-113.4945145,122.7730103,-10.90542221, 
734,4145427363,-146.2643738,-84.40486908,-126.9744339,9.702386856,-1.75123632,-0.397660553,-60.03984833,94.05623627,10.00225258, 
735,4145444030,-136.5101776,-84.82157898,-136.7370148,9.512699127,-1.265415072,1.72995007,3.747135639,54.40170288,27.33849525, 
736,4145460697,-132.0781555,-84.53560638,-140.9842834,9.860923767,-1.407167315,1.162506461,13.80926418,5.588121891,28.75621414, 
737,4145477364,-130.7969208,-84.16809845,-142.4362183,9.728113174,-1.193294406,-0.580509484,-8.200108528,-7.507539749,22.17723846, 
738,4145494031,-129.5147858,-83.93279266,-144.4322052,8.68342495,0.188338131,-1.720953584,-40.58604813,1.031597137,18.7770977, 
739,4145510698,-127.9291611,-83.88711548,-147.1740112,6.704970837,0.858695149,-1.324415803,-66.81736755,12.55338097,13.03449631, 
740,4145527365,-125.8926392,-83.88535309,-150.6441193,5.316706657,0.792132318,-0.638873875,-83.18157196,18.31857872,13.37682533, 
741,4145544032,-123.5968399,-83.77005005,-154.2574005,5.012087345,-0.155921757,0.286331415,-76.13796234,15.86084366,18.94649887, 
742,4145560699,-122.8749008,-83.52101898,-156.1012268,5.312889576,-1.560182571,0.29262948,-64.97924805,2.701991796,19.19245911, 
743,4145577366,-123.8822708,-83.1971283,-155.9235687,6.123379707,-3.145017862,-0.066357926,-48.22139359,-11.07027817,15.53302193, 
744,4145594033,-125.458313,-82.9072113,-154.9862671,6.575272083,-3.416427612,-0.457281619,-37.11842346,-14.83522892,10.40900135, 
745,4145610700,-127.442749,-82.60670471,-153.496521,6.987252235,-2.980938435,-0.73785615,-28.7986393,-19.12121201,7.776100636, 
746,4145627367,-128.9585114,-82.38402557,-152.5068512,7.615990639,-2.180008888,-0.663882971,-30.48317528,-13.70018101,5.667140484, 
747,4145644034,-130.1913147,-82.25053406,-151.8774109,8.098927498,-1.554448128,-0.151330888,-34.96238327,-8.337989807,2.918234587, 
748,4145660701,-131.3968048,-82.17110443,-151.3541107,9.290819168,-1.308283448,0.511077404,-39.65382004,-5.678770542,0.788171232, 
749,4145677368,-131.9329224,-82.22411346,-151.5578156,10.48894501,-1.056441069,1.077884316,-42.72441483,4.007299423,-1.312537551, 
750,4145694035,-131.210495,-82.41075134,-153.1503906,11.27242184,-0.943427682,1.029736161,-49.82307816,17.63922691,0.054273836, 
751,4145710702,-129.1225586,-82.699646,-156.1099243,11.31365395,-1.433373451,0.92574656,-49.30797958,29.40328217,1.557743907, 
752,4145727369,-127.0641708,-82.94464874,-158.8187561,11.32754803,-2.039927483,0.612421155,-36.27616501,25.69366264,0.91656965, 
753,4145744036,-125.9983444,-83.03514099,-160.4416351,11.74499321,-3.051383734,-0.022967082,-31.24923897,13.42118645,2.670749426, 
754,4145760703,-124.7300873,-83.09578705,-162.4061432,12.65192509,-3.642287016,0.245438159,-39.481987,14.35297203,5.220067501, 
755,4145777370,-121.6870041,-83.18882751,-166.2489166,12.61338329,-3.550755262,2.012340069,-44.94128036,26.73362732,10.34374142, 
756,4145794037,-117.9978333,-83.22905731,-170.8557892,12.05305195,-2.769059896,2.408443451,-51.78999329,30.18276405,14.10876274, 
757,4145810704,-116.2227631,-83.21910095,-173.9533691,11.11249733,-1.467382789,-0.263598979,-76.75615692,19.88272858,10.4560051, 
758,4145827371,-119.7116089,-82.97010803,-172.3141937,11.72747421,-0.186104655,-6.371620655,-110.410553,-16.8076973,7.586278439, 
759,4145844038,-122.0880508,-82.55693054,-171.2573547,12.9822607,-0.5345245,-9.067374229,-78.30652618,-18.93084526,17.10176659, 
760,4145860705,-118.3323059,-82.10946655,-174.934021,13.7690115,-3.539426327,-4.544951439,8.191782951,12.5897007,37.92303848, 
761,4145877372,-113.0450516,-81.40022278,-179.1182098,14.10497665,-4.148778915,-2.899408579,70.25927734,14.67713451,53.84957886, 
762,4145894039,-107.916214,-80.94852448,176.9337311,9.980103493,-3.363108397,-1.874641895,75.14930725,25.24266815,38.00398254, 
763,4145910706,-106.9797592,-80.82176971,177.1008606,9.293324471,-2.418179989,-2.699930429,67.58213043,-3.111090899,6.694448948, 
764,4145927373,-106.6450806,-81.16918182,177.5948639,10.54135704,-0.352974772,-1.790584803,50.87519073,2.280656099,-21.39398575, 
765,4145944040,-106.9295883,-81.72251129,178.3114319,12.02337837,0.323402166,-0.121435449,26.99663162,4.151718616,-33.71888351, 
766,4145960707,-107.3208694,-82.18029022,179.1218719,12.22053814,0.323689729,0.264680684,26.23009109,2.267939806,-28.34036827, 
767,4145977374,-105.9736862,-82.4380722,178.4313202,9.735952377,-0.911805809,-0.226532951,41.33936691,10.42485142,-13.31747532, 
768,4145994041,-103.8512802,-82.57952881,177.3664703,6.276379585,-2.24305892,-0.822573364,65.56494904,10.91015625,-6.137545109, 
769,4146010708,-103.3818893,-82.72537994,178.2114563,4.606857777,-2.676400661,-1.15304637,80.00419617,-3.559433699,-10.1155138, 
770,4146027375,-105.6998444,-82.95365906,-178.1292725,4.30980587,-2.0976367,-0.767323196,80.33167267,-22.36759567,-20.20407295, 
771,4146044042,-111.1663361,-83.19577026,-171.4824371,5.250248909,-0.217707485,-0.347664237,69.47761536,-40.3201828,-29.04680824, 
772,4146060709,-118.3448486,-83.30162811,-163.3708191,7.204060555,1.706958175,-0.750781417,54.19676971,-48.57417679,-29.78395462, 
773,4146077376,-123.3595428,-83.30361938,-157.5870514,7.740141869,2.298191786,-0.74407804,45.375,-33.98009109,-20.9365921, 
774,4146094043,-126.8560791,-83.18585968,-153.3245087,7.250410557,1.847260833,-0.151788771,45.79309464,-27.99005127,-11.5892477, 
775,4146110710,-130.4959412,-82.9484787,-148.9377441,7.348795414,1.610339999,0.166127637,44.50051117,-33.01450348,-8.799512863, 
776,4146127377,-133.6220093,-82.6086731,-145.2168732,7.430755615,1.277269721,0.121244401,35.54566193,-33.80889511,-3.725277424, 
777,4146144044,-136.3522644,-82.13587952,-141.9103546,7.972162724,0.207908496,0.498859644,34.44605637,-38.00017929,1.389873147, 
778,4146160711,-139.1207581,-81.41373444,-138.3917999,8.666920662,-0.993369341,0.316431761,44.45142746,-51.69216156,6.729321957, 
779,4146177378,-141.4859619,-80.56877136,-135.1553497,9.944030762,-1.668393135,-0.305850178,51.48984909,-57.74697495,8.928367615, 
780,4146194045,-142.5826721,-79.82077026,-133.1336823,10.84031105,-2.039316654,-0.61818552,55.31829453,-47.41690063,11.27195549, 
781,4146210712,-143.3579407,-79.0927887,-131.3835449,11.92537498,-1.427972436,-0.948267698,58.2899971,-45.77312088,10.91757679, 
782,4146227379,-143.7550964,-78.65161896,-130.2121429,12.75490761,-0.335892975,-0.841350138,46.6935463,-28.68736458,4.770108223, 
783,4146244046,-144.5174103,-78.31526184,-128.747818,12.45755386,0.233851433,0.256908387,41.90611267,-25.96835518,-2.430582523, 
784,4146260713,-145.57901,-78.02095032,-126.9732208,12.81787109,-0.291221648,0.236645415,42.05411911,-26.31653214,-7.809617996, 
785,4146277380,-145.6822052,-78.03544617,-125.9958725,12.81751347,-1.498031855,0.893802404,52.68259811,-5.495740891,-10.55172729, 
786,4146294047,-145.2216949,-78.17942047,-125.5089722,11.56843281,-2.146301031,1.656559467,57.68581772,4.350523472,-9.871479034, 
787,4146310714,-144.794693,-78.12360382,-125.0844269,9.887030602,-1.017734289,0.028264152,51.98064804,-5.088977814,-2.377835274, 
788,4146327381,-144.5994873,-77.98162842,-124.6483841,9.910737991,0.162411705,-4.249371052,38.70516205,-9.434828758,0.498797238, 
789,4146344048,-144.5402527,-78.05036163,-124.0161972,10.05437851,1.033632874,-8.58996582,42.10172272,-0.557073355,-8.815416336, 
790,4146360715,-146.8622437,-78.15247345,-121.2218399,12.31275463,2.714111805,-9.278848648,26.27927971,-13.7603693,-32.02006912, 
791,4146377382,-152.4476318,-78.52359009,-116.3736267,16.19794083,1.127267122,-8.104151726,-48.56389236,-9.832876205,-61.99361801, 
792,4146394049,-156.068985,-79.79679871,-114.330986,14.3481493,0.076389164,-7.893399239,-95.15810394,59.46377945,-53.96508789, 
793,4146410716,-155.2591705,-81.53826904,-116.923851,10.33264256,-0.989800334,-5.030173302,-103.1122665,106.2584152,-20.1013298, 
794,4146427383,-150.7685242,-83.05979919,-122.6663742,9.911252022,-2.241851568,-2.135663748,-70.17414093,102.8795776,-0.288984686, 
795,4146444050,-142.5481873,-83.93557739,-131.1101532,9.513425827,-2.435545444,1.065222621,-8.301532745,75.97721863,19.03349495, 
796,4146460717,-137.2874603,-83.77915955,-136.1538696,9.697917938,-1.859194636,0.964373946,16.57153893,14.34194279,30.77158737, 
797,4146477384,-134.64888,-83.32923889,-138.9286652,9.584885597,-1.349627972,-0.801984489,-5.342311382,-5.737747192,32.15810776, 
798,4146494051,-132.7114716,-83.05674744,-141.5579376,8.794965744,-0.170822158,-1.594268799,-38.60145187,2.912941217,24.68753433, 
799,4146510718,-129.9052582,-83.02259827,-145.4824066,6.045948505,1.103296876,-1.40648222,-63.56061935,20.7509861,20.33254242, 
800,4146527385,-127.4063339,-82.96124268,-149.2315369,4.654325008,1.381331086,-0.222547531,-71.51834106,19.8037014,19.98040962, 
801,4146544052,-125.8178482,-82.74445343,-151.9779816,4.902980328,0.623184502,0.761762202,-66.3598938,9.373542786,22.63058662, 
802,4146560719,-125.6323166,-82.4204483,-153.2046051,6.738390446,-0.885538816,0.885951281,-60.0295105,-2.965705156,21.30047989, 
803,4146577386,-126.5975952,-82.05305481,-153.134964,7.226993084,-2.600949049,-0.112703763,-51.98353577,-12.78595829,17.45407295, 
804,4146594053,-127.2389145,-81.79230499,-153.2228394,8.061823845,-3.466333628,-0.584244788,-41.91199493,-8.139241219,12.92251778, 
805,4146610720,-127.1162033,-81.69402313,-153.8701172,8.095116615,-3.665434599,-0.232310116,-29.31573296,1.545616269,8.036240578, 
806,4146627387,-127.3491364,-81.62731934,-154.0577087,8.097125053,-3.141039371,9.86E-04,-23.37393188,-0.455516309,4.135281086, 
807,4146644054,-127.5487137,-81.56222534,-154.2268524,7.814012051,-3.161017895,0.263850778,-20.29420853,-0.525490105,3.952250242, 
808,4146660721,-128.01651,-81.48142242,-153.9880371,7.784324169,-2.853836298,0.769436896,-12.20485306,-3.973389626,2.490989923, 
809,4146677388,-128.695816,-81.38835907,-153.386261,8.858148575,-2.235952377,1.023302913,-3.383098841,-7.008692265,0.984091341, 
810,4146694055,-128.8166199,-81.38195038,-153.398819,10.14057541,-1.403947234,0.943733394,-6.359768867,0.514815331,0.316035181, 
811,4146710722,-128.2253418,-81.52726746,-154.3330231,10.5323,-0.588796616,0.678683341,-18.34231377,12.6100359,-1.686618447, 
812,4146727389,-128.2391815,-81.74968719,-154.819397,11.269557,-0.259891301,-0.151166454,-28.11407661,12.25475979,-7.905943871, 
813,4146744056,-128.6819916,-81.99842072,-154.9092865,12.42107964,-1.363063335,-0.764951289,-30.32344055,10.53525066,-11.25438881, 
814,4146760723,-128.7497711,-82.19264984,-155.4129486,13.64398098,-2.957180738,-0.537415564,-32.41098022,11.18978882,-6.540582657, 
815,4146777390,-126.0443954,-82.43304443,-158.674408,14.01822281,-3.932173491,0.955569983,-30.02766991,30.21209145,4.378955364, 
816,4146794057,-120.7950516,-82.56521606,-164.483429,13.15933323,-3.317717552,2.700445652,-29.06537819,42.97591782,18.3782959, 
817,4146810724,-114.5496674,-82.6076355,-171.4732056,11.82770252,-1.907259583,3.263246536,-39.70000839,49.72790146,22.79888153, 
818,4146827391,-111.458847,-82.62387085,-175.585022,9.404867172,-1.129862666,1.361282229,-57.80639267,30.20535851,11.44083214, 
819,4146844058,-115.0234222,-82.49726868,-173.5620422,9.251493454,-0.41911754,-4.114904404,-92.10714722,-16.78656387,0.715038955, 
820,4146860725,-119.8144302,-82.22216797,-170.4671631,10.40486622,0.630066097,-8.114967346,-101.9517212,-28.85425377,3.215520144, 
821,4146877392,-120.7125473,-81.84611511,-170.396286,11.54734039,-1.38095367,-5.88675499,-48.12298203,-11.21727371,19.13127327, 
822,4146894059,-119.1656723,-81.0683136,-171.3066711,14.65712833,-3.380674839,-3.21285677,40.39386749,-15.58626175,44.42542648, 
823,4146910726,-114.4673157,-80.30981445,-174.7911835,13.72928905,-4.134679794,-2.844206333,77.19181061,10.33751583,55.78660202, 
824,4146927393,-110.8298416,-79.97602844,-177.4349518,10.12390137,-3.325027227,-3.229771137,63.58311844,18.02990341,28.85894585, 
825,4146944060,-110.0349121,-80.10409546,-177.5053558,10.15391827,-1.392673731,-3.219929218,45.17208099,4.053162575,-7.024661064, 
826,4146960727,-109.8932571,-80.64724731,-177.4582672,11.95317841,0.626979828,-1.08263278,12.95193672,11.37122917,-30.87232971, 
827,4146977394,-109.2370911,-81.27693176,-178.0588684,12.44204426,0.714481473,0.641901851,5.47094059,18.67215538,-33.78130341, 
828,4146994061,-107.536232,-81.67822266,-179.4703217,10.74096012,0.164661452,0.945655286,19.99397087,20.18306923,-18.95499229, 
829,4147010728,-105.7823029,-81.8730545,179.3116455,7.185743809,-1.354885697,0.366551906,34.59247971,14.04453945,-8.268736839, 
830,4147027395,-105.6733017,-82.02043915,179.9386292,5.524135113,-2.490846872,-0.786846399,45.45965958,-1.999451399,-9.999780655, 
831,4147044062,-106.431076,-82.28637695,-178.4694519,4.65300703,-2.502211571,-0.909029603,50.84327698,-7.435374737,-19.01878738, 
832,4147060729,-109.2204819,-82.63894653,-174.8036652,3.942137241,-1.707192063,-0.066105925,52.35438538,-20.30668068,-29.02656937, 
833,4147077396,-115.3315048,-82.80560303,-167.908493,5.54714489,0.189308047,0.158375829,45.39077759,-43.99783707,-29.16488838, 
834,4147094063,-121.306282,-82.8263855,-161.2483215,6.905698776,1.167468786,0.013280101,39.65743637,-42.68909073,-24.86387444, 
835,4147110730,-125.872345,-82.7229538,-155.97052,7.571886063,1.637417316,-0.100971676,41.85355759,-35.91609192,-16.92397499, 
836,4147127397,-128.4362793,-82.54917908,-152.6422882,7.632980824,1.529693127,-0.131913528,45.89494324,-26.00909042,-7.216302395, 
837,4147144064,-130.1442719,-82.34824371,-150.3237305,7.606040955,1.056663632,0.106639609,37.10913849,-21.10701942,-2.300285101, 
838,4147160731,-131.5088501,-82.03536224,-148.4068909,8.038642883,0.134322181,0.397619039,33.75331116,-23.41969681,3.935658455, 
839,4147177398,-132.4822998,-81.65687561,-146.8278198,8.191267014,-1.00491941,0.559931517,37.06044769,-24.51099777,7.839182377, 
840,4147194065,-134.9283142,-80.94854736,-143.6730652,9.0045681,-2.008708954,0.632487893,42.00704575,-49.37430954,10.89168262, 
841,4147210732,-137.5204163,-80.06649017,-140.2282104,11.64350891,-2.644378185,-0.451958805,49.98600769,-61.10615158,11.94089603, 
842,4147227399,-138.2802734,-79.50754547,-138.5128937,14.18714333,-1.80906868,-1.111378193,57.32552719,-36.44915009,8.893285751, 
843,4147244066,-137.887558,-79.36789703,-138.026535,14.2090292,-0.286609799,-0.399873346,53.8536911,-9.143169403,1.570843339, 
844,4147260733,-137.8357849,-79.38207245,-137.2527161,13.31285,0.361675858,0.58819437,50.35247421,-4.444823742,-6.965507507, 
845,4147277400,-138.0070343,-79.40281677,-136.140274,13.12832642,-0.311533839,1.61238873,56.91253281,-6.653023243,-9.984852791, 
846,4147294067,-137.4855652,-79.53041077,-135.5980225,13.11638832,-1.677384138,1.982481599,64.82940674,2.322517872,-9.579173088, 
847,4147310734,-135.6102142,-79.75652313,-136.4458008,11.37561131,-2.324018717,1.358183146,63.99515152,16.78812981,-2.715365887, 
848,4147327401,-133.9552612,-79.74147797,-137.1430359,9.327920914,-0.496884823,-1.955910444,59.60936356,5.299296856,5.859978199, 
849,4147344068,-134.2130432,-79.56455231,-136.0989075,9.113865852,1.085987329,-6.175003052,47.64867401,-14.81796741,-0.221532583, 
850,4147360735,-136.525177,-79.40824127,-132.9454041,9.647912025,1.991937876,-9.80632019,48.86800385,-30.26828003,-18.00076485, 
851,4147377402,-140.4230957,-79.82409668,-128.9415283,14.10202122,1.641641259,-8.052624702,4.098900318,-9.368407249,-48.96346283, 
852,4147394069,-145.1569519,-80.90681458,-125.256958,15.7980957,-0.526440382,-6.969864845,-64.28431702,30.0162735,-68.76288605, 
853,4147410736,-143.651413,-82.74423218,-128.2646027,12.30630684,-0.26096487,-5.14786005,-86.46920013,105.2318115,-43.32289886, 
854,4147427403,-136.1935577,-84.13305664,-137.0084991,9.99561882,-1.452544212,-1.894171476,-71.8891983,102.8238144,-7.706029415, 
855,4147444070,-125.5662155,-84.73516083,-147.9440002,9.947958946,-2.281522274,0.407057494,-13.54566669,72.26010895,14.36205387, 
856,4147460737,-117.8540955,-84.61890411,-155.3400574,10.25194931,-2.292857409,1.325288773,22.73721695,32.02095795,27.50815773, 
857,4147477404,-115.8815536,-84.15635681,-157.1350555,10.89913559,-2.199206352,-0.171498746,12.98787594,-2.472294331,29.4946804, 
858,4147494071,-113.0707855,-83.89292145,-160.1614685,9.996544838,-1.157674313,-1.345295668,-10.14204597,11.33015251,22.1859436, 
859,4147510738,-109.340271,-83.78154755,-164.5435181,7.699492455,-0.006066978,-0.761030138,-35.74054718,24.57159996,16.39435196, 
860,4147527405,-107.8937454,-83.7293396,-166.984848,5.473495007,0.63514924,0.238512486,-56.98630142,14.77465343,8.023944855, 
861,4147544072,-108.798233,-83.58821869,-167.1016083,5.640013218,1.026948571,0.423162699,-59.39049149,-1.255134225,8.255500793, 
862,4147560739,-109.6983185,-83.38168335,-167.1856842,5.869191647,0.359295249,0.266433775,-57.18224716,-2.873939276,11.87311268, 
863,4147577406,-111.2700729,-83.11051941,-166.4478149,6.223046303,-1.106433153,0.142390817,-48.51176834,-9.899419785,13.40098286, 
864,4147594073,-113.051918,-82.84024048,-165.3240814,6.843717575,-2.63939929,-0.095013082,-38.15941238,-13.08281136,11.88692856, 
865,4147610740,-114.842926,-82.62216949,-164.0256805,7.110830307,-3.109059572,-0.032394815,-28.37701035,-13.6493969,7.934587479, 
866,4147627407,-116.0919724,-82.44339752,-163.2097015,7.088092804,-2.785213232,0.069006994,-24.60266876,-9.685652733,6.914486408, 
867,4147644074,-117.6034851,-82.29405975,-162.1494141,7.543858528,-2.510281324,0.506483972,-25.85566521,-10.91399384,4.14487648, 
868,4147660741,-119.4905014,-82.16378784,-160.6841431,7.850072861,-2.247086287,0.592772782,-24.35330963,-13.50743961,1.14834857, 
869,4147677408,-121.5361176,-82.03336334,-159.0254669,8.718873978,-1.881440401,0.645532727,-22.41075134,-15.08726788,-0.251856685, 
870,4147694075,-122.967804,-81.95733643,-158.0418243,9.977081299,-1.309514046,0.665214717,-25.74397659,-8.714673042,-0.571977854, 
871,4147710742,-123.1970825,-82.02331543,-158.4051971,10.6348381,-1.013567805,0.649376214,-33.6410408,5.371850491,-1.700875759, 
872,4147727409,-123.4595337,-82.21756744,-158.8231812,11.47115421,-1.09851861,0.41951853,-38.90592194,9.93769455,-7.888237476, 
873,4147744076,-123.9867706,-82.40733337,-158.9469452,12.57204628,-1.860591769,-0.764777899,-37.31731796,7.808302879,-8.959298134, 
874,4147760743,-123.0501099,-82.54328156,-160.4680023,13.57525921,-3.098307848,-0.937541902,-32.59453964,15.13343334,-0.252420664, 
875,4147777410,-119.5812073,-82.6529007,-164.5567932,13.59111214,-4.156119347,0.692586124,-33.49059677,31.06867218,10.76405048, 
876,4147794077,-114.9743347,-82.63126373,-169.9176636,12.71928501,-3.52447176,2.912815571,-40.95978546,36.66521835,19.96739769, 
877,4147810744,-110.3583755,-82.53496552,-175.462265,12.14894104,-2.258547068,3.546312332,-51.36995316,38.04447174,21.81059837, 
878,4147827411,-105.5580444,-82.51859283,178.6950073,9.981488228,-1.992972732,2.769303799,-58.05071259,43.70293427,14.93060112, 
879,4147844078,-106.0179749,-82.45282745,177.8639984,8.625301361,-1.790056109,-1.121728301,-75.5391922,5.852441311,5.509505749, 
880,4147860745,-112.2198639,-82.30936432,-177.6333923,9.500442505,-0.940012157,-7.679625511,-102.8386383,-35.99382782,-3.664953232, 
881,4147877412,-117.2383423,-82.01839447,-173.9718323,11.32249641,-1.013036251,-8.9842062,-81.89483643,-33.83525085,3.259613037, 
882,4147894079,-117.0596771,-81.60450745,-174.3932037,13.85382366,-3.169496059,-4.56760931,-12.6563921,-7.453732491,23.67837906, 
883,4147910746,-113.6529694,-80.96060181,-176.9529114,14.48624897,-3.382247686,-1.403522611,54.25709915,5.17433691,44.80074692, 
884,4147927413,-110.4321518,-80.40997314,-179.0321198,10.19143486,-3.398011208,-1.029459715,71.80230713,6.998744965,38.12820816, 
885,4147944080,-110.7694931,-80.16352844,-177.3881226,9.307089806,-2.397644997,-2.561565638,78.64345551,-20.0911808,7.906941414, 
886,4147960747,-112.627739,-80.33537292,-174.4124756,11.37311745,-0.901702166,-3.49412632,66.14617157,-23.58942795,-20.8386879, 
887,4147977414,-114.0481339,-80.83205414,-172.4786072,12.89709377,0.031727549,-1.647045374,30.9479599,-4.932601929,-34.95721817, 
888,4147994081,-114.2864685,-81.36191559,-172.0920258,12.61466312,0.538192689,-0.294475406,10.34493446,10.43249226,-30.55317497, 
889,4148010748,-112.5433655,-81.78477478,-173.7023468,9.070436478,-0.093290329,0.433050632,10.74968624,23.76075172,-17.72630882, 
890,4148027415,-111.1421127,-82.03888702,-174.7084503,6.443229675,-1.116989613,0.356097907,26.03978157,14.24163342,-11.05909729, 
891,4148044082,-111.2899933,-82.23155975,-173.8210907,5.161715031,-1.545294285,-0.101290859,45.59755325,-1.921371341,-13.48266506, 
892,4148060749,-113.9039001,-82.41381836,-170.250473,4.017816067,-1.630785346,-0.345097512,57.21353149,-21.52818298,-21.16473198, 
893,4148077416,-119.9638596,-82.47151947,-163.2944946,4.780532837,-0.697399497,-0.696973503,51.84740067,-46.65207672,-27.99185562, 
894,4148094083,-126.8550568,-82.38330841,-155.6903839,6.591701031,0.503066123,-0.958843648,40.52349854,-52.37001801,-28.74362564, 
895,4148110750,-132.8357544,-82.18943024,-149.1903076,8.008712769,1.172893405,-0.720154226,29.36633682,-46.92030334,-24.67407799, 
896,4148127417,-136.6275635,-82.0464859,-144.9455261,8.357037544,1.544498801,-0.734202147,26.51124954,-30.15156364,-18.55084991, 
897,4148144084,-138.9568634,-81.85878754,-142.1355133,7.057306767,1.434032083,-0.028332258,28.94250298,-23.50353432,-9.985515594, 
898,4148160751,-141.3712616,-81.38140106,-139.2204895,7.14067173,0.869864702,0.475758344,29.93255234,-37.63164139,-1.287516117, 
899,4148177418,-143.7551575,-80.64943695,-136.218689,8.217513084,-0.031734765,0.005160864,36.6292038,-51.27513885,4.299945831, 
900,4148194085,-145.6464691,-79.85559845,-133.5497131,9.612538338,-0.948061705,-0.101640806,46.08688736,-53.85531616,5.340188503, 
901,4148210752,-146.9445343,-79.10738373,-131.265274,10.77279282,-1.832120538,-0.546611607,58.61740875,-50.54256821,4.034328938, 
902,4148227419,-147.2280579,-78.59566498,-129.8890076,11.66754818,-2.065257549,-1.535795927,65.7219162,-33.77548981,3.223855257, 
903,4148244086,-147.1610565,-78.29719543,-128.960907,12.12551308,-1.308855534,-1.032440662,60.28569412,-20.42079163,0.272510231, 
904,4148260753,-147.4077454,-78.09868622,-127.9477615,12.38499546,-0.194440633,-0.399999589,46.40412903,-16.0664444,-4.079855919, 
905,4148277420,-147.7043762,-77.95171356,-126.8961487,12.45536327,0.102204934,0.503067732,45.61756897,-13.79562378,-6.36690712, 
906,4148294087,-147.9362946,-77.80556488,-125.7430725,13.04149055,-0.547343373,1.115903378,55.38690948,-14.4950819,-7.668013573, 
907,4148310754,-147.3466339,-77.87017059,-125.2669525,12.83984089,-1.970504403,1.309967637,64.93647003,0.717793941,-7.196028709, 
908,4148327421,-146.0152283,-77.91688538,-125.3622894,10.89840031,-2.516986847,0.926178098,75.89365387,3.659520626,-0.570624113, 
909,4148344088,-144.6783447,-77.7569046,-125.6158447,10.05451679,-0.797932327,-3.005626917,66.88407898,-5.420752048,8.072623253, 
910,4148360755,-143.5974121,-77.82806396,-125.9435425,10.4071455,0.929042697,-7.078417301,47.20852661,6.551473141,0.841563225, 
911,4148377422,-144.2646637,-77.97947693,-124.5723495,10.64518547,2.642082453,-9.713947296,42.0529747,-2.144048929,-19.31713676, 
912,4148394089,-147.6638489,-78.43804932,-121.0212402,13.95557976,2.696700335,-7.415615559,6.375086308,-0.906307518,-51.50591278, 
913,4148410756,-151.5423737,-79.48109436,-117.8474426,14.92235947,0.060437459,-7.694521427,-43.97746277,36.19114685,-63.14502335, 
914,4148427423,-150.7165527,-81.40709686,-119.8362427,11.72446918,-0.396100372,-4.988856316,-66.24868011,111.4389725,-38.48751068, 
915,4148444090,-147.3514862,-82.85232544,-124.6964569,9.317708015,-1.999871492,-1.277459145,-85.05482483,95.52355194,-10.38959312, 
916,4148460757,-142.4079132,-83.63619232,-130.5415955,9.822088242,-2.573108912,-0.269987971,-49.74372864,62.84592438,6.66165638, 
917,4148477424,-137.5244598,-83.81788635,-135.4372711,10.49365616,-2.514401674,0.357040793,2.913258314,29.66574478,17.52337837, 
918,4148494091,-134.8086395,-83.56703186,-137.901947,11.00152302,-1.597981334,-0.930617392,17.82255745,1.080999851,22.10716438, 
919,4148510758,-131.9394989,-83.36942291,-140.9201965,10.45817089,-0.430804908,-2.154676676,-5.901927471,7.519148827,22.72072792, 
920,4148527425,-128.4543762,-83.32233429,-145.0158691,8.191386223,0.599025309,-1.87990427,-33.10559464,20.60860443,20.49456596, 
921,4148544092,-124.7727203,-83.35135651,-149.6994324,5.629257202,1.387537479,-0.875214577,-56.32855988,27.89011383,18.00967216, 
922,4148560759,-122.1382065,-83.29624176,-153.5103912,4.65536499,1.118153095,-0.025062259,-67.12902069,21.03907013,17.37797356, 
923,4148577426,-120.8727951,-83.10701752,-155.9192657,5.565449238,0.325418323,0.669518471,-65.66857147,9.337610245,18.5906353, 
924,4148594093,-120.6453857,-82.86262512,-157.2850037,6.340457439,-1.139374733,0.445790499,-65.78782654,1.777499199,17.70144463, 
