PacketCounter,SampleTimeFine,Euler_X,Euler_Y,Euler_Z,Acc_X,Acc_Y,Acc_Z,Gyr_X,Gyr_Y,Gyr_Z
0,4133227119,-43.23249817,48.38969803,-77.44992065,0,0,0,0,0,0
1,4133243786,-43.68498993,48.38088989,-77.71245575,-7.527237892,-5.335380077,4.259879112,-13.65185738,6.424785614,-7.29007864
2,4133260453,-44.12453079,48.38422775,-77.96179199,-7.479129314,-5.158941269,4.25502491,-13.45329189,6.654504776,-6.357800961
3,4133277120,-44.56040573,48.39413071,-78.18297577,-7.624052048,-4.750298977,4.369979382,-14.48971176,6.207307339,-5.224680901
4,4133293787,-45.03551483,48.4283638,-78.37050629,-7.646501064,-4.428682804,4.145419598,-18.34780502,6.344107628,-3.192928076
5,4133310454,-45.56328201,48.48699188,-78.51963806,-7.723090649,-4.578985214,3.936053753,-23.22326469,6.319049358,-1.01201725
6,4133327121,-46.10795593,48.53749084,-78.65197754,-7.925802231,-5.012860775,4.119586945,-24.9866581,5.510648251,-0.833304644
7,4133343788,-46.63031387,48.55973434,-78.75569153,-8.092550278,-5.233763218,4.02288866,-24.90869331,3.541590929,-1.225243688
8,4133360455,-47.17538452,48.56459045,-78.85586548,-8.135428429,-5.360339165,3.947971821,-26.4270134,2.743882418,-1.857456923
9,4133377122,-47.78781891,48.58460617,-79.01369476,-7.890770435,-5.431217194,3.544643164,-27.89678764,5.053745747,-2.685992479
10,4133393789,-48.48213577,48.62353134,-79.27798462,-7.539646626,-5.515573025,3.206932306,-27.97948837,9.01261425,-4.61085844
11,4133410456,-49.18777084,48.66978073,-79.64939117,-7.153380394,-5.732316971,2.92890501,-23.81926918,12.5567503,-6.954244614
12,4133427123,-49.87802887,48.71233749,-80.09524536,-6.925348282,-5.641591072,2.9257195,-19.4998455,14.75425529,-8.87843895
13,4133443790,-50.60572052,48.76221085,-80.62184906,-6.697760582,-5.739996433,2.912591457,-18.07782936,17.59937668,-10.38174343
14,4133460457,-51.36686707,48.83796692,-81.21935272,-6.426445007,-5.719018936,2.559474468,-16.84860039,20.88438606,-10.68712711
15,4133477124,-52.14404297,48.93039322,-81.88646698,-6.239832401,-5.602936268,2.17748785,-14.60643673,23.79091644,-11.29247665
16,4133493791,-52.88223648,49.03043747,-82.58653259,-6.117120266,-5.106492996,1.973813057,-10.71415043,25.22375679,-11.36699581
17,4133510458,-53.58270645,49.12602997,-83.27807617,-6.248388767,-4.562392712,2.419261217,-8.771536827,24.90938377,-11.02509022
18,4133527125,-54.23368835,49.24120712,-83.94474792,-6.175646305,-3.866925716,2.309849262,-6.870669842,24.90892792,-9.167417526
19,4133543792,-54.85430145,49.36053467,-84.54415131,-6.173242569,-3.320294619,2.132909298,-8.05415535,22.96844482,-7.119443417
20,4133560459,-55.4514389,49.45329666,-85.08431244,-6.532763958,-3.48063755,2.377589941,-9.30007267,20.20037651,-6.830158234
21,4133577126,-55.98427582,49.50728607,-85.5592041,-6.955448151,-3.718565464,2.541512251,-8.393069267,16.83365059,-7.09441328
22,4133593793,-56.49214172,49.4977684,-85.9981308,-7.406341553,-4.168314934,2.703332901,-8.535333633,13.61158943,-9.324500084
23,4133610460,-57.04176712,49.4422493,-86.44896698,-7.479732037,-4.513277054,2.22928977,-10.50668335,12.59005547,-11.76676655
24,4133627127,-57.69447708,49.31056213,-86.9691925,-7.580647469,-5.42613554,1.91222012,-13.55699158,12.56919193,-16.96177292
25,4133643794,-58.46401596,49.10407639,-87.64778137,-7.649663448,-6.442438126,2.082100153,-13.42024994,15.74860001,-23.92728233
26,4133660461,-59.3106575,48.86378098,-88.53411865,-7.552770138,-6.845939636,2.386811256,-8.725427628,22.16796875,-29.72541428
27,4133677128,-60.19277191,48.62849808,-89.57292175,-7.37223053,-6.246176243,2.48859334,-4.105787754,28.14286423,-32.24268723
28,4133693795,-61.12971497,48.38047028,-90.66425323,-7.261091709,-5.874579906,3.048518181,-5.197309017,30.29292488,-33.56918716
29,4133710462,-62.07293701,48.11948013,-91.76954651,-7.210559845,-5.967047691,3.649931669,-5.141820908,31.17292595,-34.11105347
30,4133727129,-63.0057106,47.84984207,-92.89044189,-7.167878628,-6.073427677,3.726839542,-4.028748989,32.26802826,-34.43676758
31,4133743796,-63.95585632,47.5810318,-94.04914093,-7.099267006,-6.076132298,3.224781036,-3.613912106,34.44511032,-34.63063049
32,4133760463,-64.89398193,47.32314682,-95.2310791,-7.097924709,-6.030678749,2.935750484,-2.084654808,36.37654495,-33.9635849
33,4133777130,-65.78874969,47.07802963,-96.40492249,-7.000399113,-5.715007782,2.899445057,-0.053831957,37.16296005,-32.62534332
34,4133793797,-66.66694641,46.85203171,-97.55393982,-6.759644985,-5.648920536,2.819168568,-0.350455076,37.40654755,-30.6634922
35,4133810464,-67.50299072,46.62983322,-98.64693451,-6.762381077,-5.994423389,3.208474874,-0.459527224,36.02682877,-29.05808449
36,4133827131,-68.28149414,46.39551926,-99.66259003,-6.89384222,-6.291072845,3.414782763,-0.564014614,33.390728,-28.08052254
37,4133843798,-68.98085785,46.12820053,-100.5663757,-7.228804111,-6.779540062,3.368740082,-0.860393047,28.90158463,-27.85886574
38,4133860465,-69.61540985,45.81953049,-101.3768311,-7.393149376,-6.668274879,3.05278182,-1.194191694,24.90481186,-28.52612686
39,4133877132,-70.29174042,45.51287842,-102.1497803,-7.07043314,-6.165654182,2.243947268,-5.503100395,23.98361397,-27.64276886
40,4133893799,-71.01028442,45.23807907,-102.9088287,-6.662580013,-6.223519325,1.852473855,-8.79980278,24.56974983,-25.40022469
41,4133910466,-71.66989899,44.99192429,-103.6350784,-6.437043667,-6.61823082,1.944818854,-6.801845551,24.26164055,-23.07097054
42,4133927133,-72.19500732,44.75262833,-104.2857742,-6.389771461,-6.841108799,2.417182922,-2.05882597,21.71460915,-21.4644928
43,4133943800,-72.61097717,44.50864029,-104.832283,-6.489505768,-6.854676247,2.696039438,-0.02309631,17.68702126,-20.2381897
44,4133960467,-72.99707794,44.25994873,-105.2754364,-6.761251926,-6.730505943,2.418827295,-2.675808907,13.61536694,-19.09666824
45,4133977134,-73.39624023,44.026577,-105.6490631,-7.217246532,-6.428789139,1.781624317,-6.449947357,11.22972488,-17.2756958
46,4133993801,-73.77091217,43.81553268,-105.9781723,-7.688669205,-6.233067989,1.424837351,-6.898718834,9.943821907,-15.38400078
47,4134010468,-74.11898804,43.65249634,-106.2963028,-7.800117016,-6.21134758,1.51368618,-5.808075905,10.42745304,-12.43647003
48,4134027135,-74.46464539,43.53783035,-106.5841446,-7.434392452,-6.506055832,1.719361782,-6.954833031,10.05264664,-9.232008934
49,4134043802,-74.80092621,43.43436813,-106.8315811,-7.216303349,-7.322687149,1.980316877,-8.09044838,8.617833138,-8.064169884
50,4134060469,-75.0845108,43.31767654,-107.025177,-7.192896366,-7.892442703,1.551333785,-7.169298649,6.211005688,-8.175532341
51,4134077136,-75.4337616,43.20133972,-107.1999664,-7.159034252,-8.202579498,0.730617046,-11.89483452,5.494171143,-7.913491249
52,4134093803,-75.79680634,43.12215042,-107.3335037,-7.071431637,-8.337628365,0.296188444,-14.41377258,4.374768734,-5.273436069
53,4134110470,-76.19126129,43.09230423,-107.4219131,-7.247060776,-8.438037872,0.598296165,-18.13178062,3.232108593,-1.892492414
54,4134127137,-76.58836365,43.13703156,-107.4606857,-7.42802,-8.699203491,0.340366244,-20.31053543,2.200902462,2.992374659
55,4134143804,-77.02961731,43.2827301,-107.4489822,-7.575838089,-8.562767982,-0.068113402,-25.00901222,1.426963925,9.413446426
56,4134160471,-77.5059433,43.54027939,-107.3803329,-7.654350281,-8.153343201,-0.38416335,-29.43966675,0.42576164,16.5192337
57,4134177138,-77.94807434,43.91120529,-107.2406158,-7.816135883,-7.930535316,-0.027608145,-30.32857513,-1.243586063,23.8205471
58,4134193805,-78.35019684,44.4318161,-107.0527878,-7.767190933,-7.442338943,0.321938217,-29.96159935,-1.547049761,33.01609421
59,4134210472,-78.75193787,45.12974548,-106.8030777,-7.641210556,-6.939983845,0.539589345,-32.62596893,-2.16331625,43.93837357
60,4134227139,-79.13489532,46.0161171,-106.4527359,-7.599107742,-6.71008873,0.992534876,-35.94578934,-4.3073349,55.8025322
61,4134243806,-79.4763031,47.11937332,-105.9457779,-7.501608849,-6.694355011,1.371009469,-40.52290726,-8.342652321,69.71038055
62,4134260473,-79.7617569,48.44258499,-105.2508545,-7.51347208,-7.162783146,1.89235723,-45.9544487,-13.34960556,83.92699432
63,4134277140,-79.89519501,49.97813416,-104.3690414,-7.713641644,-7.990498543,2.200428724,-46.01426315,-17.87416077,97.57679749
64,4134293807,-79.83957672,51.6972847,-103.3407898,-7.80121088,-8.587100029,2.255199671,-42.44197464,-20.34840202,109.1843185
65,4134310474,-79.63530731,53.56174469,-102.173912,-7.919633389,-8.60488224,1.917645812,-41.32207108,-22.05129051,118.442627
66,4134327141,-79.49647522,55.47322083,-100.9137268,-8.773623466,-8.170208931,1.753222942,-51.16201019,-22.57801437,121.5419235
67,4134343808,-79.48067474,57.36857605,-99.42089844,-10.22479534,-7.404881477,1.047516704,-71.58238983,-28.16919518,121.6531677
68,4134360475,-79.44609833,59.21809769,-97.40100098,-11.11205482,-6.698777199,-0.214848921,-98.92959595,-42.56665421,121.5429153
69,4134377142,-79.79203033,60.90458679,-94.88712311,-11.49688148,-6.403084278,-0.982195497,-149.3321533,-56.07460403,113.8821182
70,4134393809,-80.58617401,62.43104935,-92.02407837,-11.95450497,-6.044586658,-1.7096591,-196.6885834,-65.01676178,104.9187088
71,4134410476,-81.64339447,63.78129196,-88.82600403,-12.17532921,-5.007524967,-1.342723608,-232.3600006,-73.55303192,94.21220398
72,4134427143,-82.80632019,64.76594543,-85.33712769,-12.31976891,-4.894628048,-0.749618471,-256.1240234,-82.36452484,71.57644653
73,4134443810,-83.37446594,65.3963623,-81.36880493,-12.34333992,-3.098924875,-0.333427966,-247.77034,-95.36975861,50.34142685
74,4134460477,-83.18678284,66.01430511,-77.03916931,-12.09635925,-2.102412701,-0.356088012,-223.2611542,-102.1372452,50.01277161
75,4134477144,-82.02783966,66.59041595,-72.20272827,-10.83900166,-1.373557448,-0.711953223,-193.9315796,-111.537178,49.92924118
76,4134493811,-79.99533081,67.00795746,-66.9879837,-9.303788185,-0.941462934,-1.182922125,-163.3759308,-118.1488876,44.60013199
77,4134510478,-77.29589081,67.18483734,-61.51384735,-7.976840973,-0.698273122,-1.192399502,-138.3246155,-123.5376434,36.13273239
78,4134527145,-74.24866486,67.05804443,-55.92510986,-6.782862663,-0.758941114,-0.825408757,-123.8257599,-128.5256805,25.19993019
79,4134543812,-70.97247314,66.64782715,-50.32901001,-5.744983673,-0.938037872,-0.600486696,-109.8760681,-133.5829773,16.45908928
80,4134560479,-67.70081329,66.00595093,-44.82308197,-4.906616688,-0.74971664,-0.610934794,-103.9629822,-137.9577026,11.23672295
81,4134577146,-64.51179504,65.18202209,-39.46104431,-4.897044659,-0.636186719,-0.410068959,-99.33390045,-141.8079834,9.067689896
82,4134593813,-61.43275833,64.24433136,-34.18650818,-5.380811691,-0.147245318,-0.415156484,-99.11110687,-146.2074432,11.68872356
83,4134610480,-58.65229034,63.25151443,-29.01267052,-5.63816309,0.069864772,-0.568099678,-109.2805786,-148.9161377,17.27527428
84,4134627147,-56.39169312,62.25177383,-24.02467155,-6.166100025,-0.036123343,-0.754473388,-128.1183929,-147.9959564,23.23504257
85,4134643814,-54.75419617,61.32019043,-19.27343178,-6.67148447,-0.34022373,-0.986958742,-150.6181793,-142.9445343,30.2845192
86,4134660481,-53.78501129,60.51554489,-14.84020615,-7.242823601,-1.235974431,-1.245763302,-171.9387054,-133.3045959,36.44101715
87,4134677148,-53.35762787,59.92358017,-10.73145008,-7.347856045,-1.56912446,-1.065286279,-185.9251251,-119.744339,44.20664978
88,4134693815,-53.17721939,59.60447311,-6.872298241,-7.53178072,-2.442940474,-0.406891257,-186.7913513,-105.0036545,54.41650391
89,4134710482,-52.82299805,59.53479004,-3.221778393,-7.567403316,-3.382220745,0.408104897,-165.1557159,-91.1973114,63.41129303
90,4134727149,-52.01815414,59.68928528,0.244407594,-7.520767212,-3.654282331,1.153075099,-128.6518707,-77.78968048,71.46469879
91,4134743816,-50.72797394,60.01660538,3.550236702,-7.759017944,-3.596688271,1.565272808,-91.65048981,-65.63166809,77.47129059
92,4134760483,-48.99115753,60.48853683,6.707155228,-8.195731163,-3.444513798,1.558848858,-57.78752518,-53.67461777,82.16057587
93,4134777150,-46.89387894,61.10531998,9.728618622,-8.777258873,-3.162445545,1.551398158,-29.94437599,-40.98638916,86.63736725
94,4134793817,-44.64881134,61.83029556,12.6111908,-9.425422668,-2.870896101,1.348009467,-14.75917339,-28.98136711,88.68669128
95,4134810484,-42.4272728,62.64066315,15.39454174,-9.923225403,-2.592480898,1.229849815,-11.96951294,-18.49852753,89.76443481
96,4134827151,-40.36139297,63.51268768,18.10168839,-10.12705517,-2.22274828,1.169784307,-18.33333015,-9.572026253,89.63208771
97,4134843818,-38.58232498,64.43096161,20.70163155,-10.00646305,-1.975969553,1.293546438,-30.85086823,-1.201163411,87.71221924
98,4134860485,-37.14336777,65.35531616,23.12322235,-9.927685738,-1.942804098,1.535105109,-42.61381912,5.707631588,82.55230713
99,4134877152,-35.92284012,66.2649765,25.37088394,-9.716671944,-1.965054035,1.967870474,-47.13869095,10.70164204,76.73196411
100,4134893819,-34.92188263,67.13832855,27.40109444,-9.292489052,-1.916495323,2.196867466,-49.13935852,14.50455761,69.47250366
101,4134910486,-34.09571457,67.97753143,29.21355247,-8.991055489,-1.822742462,2.097986221,-48.24555969,17.68638802,62.58632278
102,4134927153,-33.38388824,68.80819702,30.87278366,-8.568655014,-1.73178637,1.995203018,-47.13628006,20.78316116,58.02590561
103,4134943820,-32.76996231,69.65460968,32.38785934,-8.188049316,-1.846961737,1.875660896,-45.44087982,24.64897537,54.6014328
104,4134960487,-32.17759323,70.54625702,33.81792831,-8.016411781,-1.815351963,1.881815076,-42.40113068,29.12792015,53.2513237
105,4134977154,-31.52350998,71.5009613,35.23908234,-8.128466606,-1.939745069,2.04499054,-38.64910126,33.68630981,53.69024277
106,4134993821,-30.75867081,72.50440216,36.68560028,-8.313515663,-1.924269676,2.279161692,-33.90987396,37.30480576,54.01922989
107,4135010488,-29.85513878,73.54402161,38.19861984,-8.224210739,-1.864358425,2.469264746,-29.86588669,40.1041069,54.3166275
108,4135027155,-28.84651184,74.60882568,39.73797989,-8.070597649,-1.937949657,2.546947956,-25.54060173,42.8825264,53.38623428
109,4135043822,-27.78049278,75.67866516,41.23208237,-8.001689911,-1.919661164,2.571537733,-19.96388245,45.20053864,50.69680786
110,4135060489,-26.72143745,76.72834015,42.58744431,-8.107767105,-1.897006869,2.610732079,-12.70600033,46.68470383,46.12477875
111,4135077156,-25.78560066,77.73733521,43.72028732,-8.153938293,-1.826933265,2.796400785,-7.419454575,47.21822357,40.33101273
112,4135093823,-25.0842495,78.68560028,44.51396561,-8.3285923,-1.92698276,3.027323961,-1.828210711,46.7589798,33.33476257
113,4135110490,-24.59924698,79.55456543,44.95509338,-8.458803177,-1.928020239,3.074382544,5.799117088,44.76783371,26.58510208
114,4135127157,-24.33574486,80.33842468,45.02681351,-8.457783699,-1.793518186,3.121168852,14.22844601,42.03921509,20.34194183
115,4135143824,-24.45179749,81.02780151,44.62963486,-8.567453384,-1.795107365,3.137367249,19.18946648,38.80081558,13.77645206
116,4135160491,-24.92439079,81.6131134,43.8298111,-8.913140297,-1.615800738,3.060886621,21.69062805,34.46905136,8.323998451
117,4135177158,-25.57940102,82.08419037,42.7943306,-9.720992088,-1.472539186,3.17954874,24.76988411,28.85291481,4.348353863
118,4135193825,-26.22587585,82.42080688,41.78530502,-10.55340767,-1.444987416,3.198698282,23.75635147,21.27248573,1.760098219
119,4135210492,-26.80182457,82.61659241,40.97703171,-11.33196354,-1.217210412,2.803495169,16.05406189,12.87737846,-0.108501948
120,4135227159,-27.39742851,82.67172241,40.43739319,-11.86372089,-1.234048128,2.149753571,-1.116860986,4.379784107,-1.87823689
121,4135243826,-28.64043999,82.58158875,39.62186432,-12.82485867,-1.943397403,1.311871171,-23.56624985,-2.269795895,-7.771837711
122,4135260493,-31.16877556,82.26820374,37.90381622,-14.55104351,-2.217419863,1.144561648,-47.0401535,-9.954119682,-20.83006859
123,4135277160,-34.73268127,81.69825745,35.37651825,-14.97560787,-2.088919163,0.133992791,-61.22833633,-17.61094093,-36.01908493
124,4135293827,-38.75338745,80.93112946,32.32898712,-13.18539047,-2.342924833,-1.160438776,-58.04250336,-20.7597084,-49.32600403
125,4135310494,-43.22742462,80.04701233,28.36315346,-12.30854511,-3.011964321,-1.760977864,-31.31456757,-14.61574459,-64.11730194
126,4135327161,-47.55192566,79.06746674,24.00534248,-13.24624443,-3.17647481,-1.109179258,0.112454787,-7.889667511,-74.75363159
127,4135343828,-51.12301254,77.92321777,19.93462753,-13.86721039,-3.524016857,-0.787323833,27.51940918,-8.119749069,-83.44186401
128,4135360495,-53.66090775,76.57394409,16.54221725,-13.58238888,-2.904171228,-0.757081151,48.6748848,-14.14638901,-91.1805191
129,4135377162,-55.24664688,75.07580566,14.00702953,-12.57157803,-1.868636727,-0.74263978,54.76898956,-22.2708149,-94.44023132
130,4135393829,-56.2576561,73.50986481,12.25668812,-11.9119978,-0.931252003,-0.806039095,42.88285828,-29.68137932,-93.33873749
131,4135410496,-56.87106705,71.95471954,11.35529518,-11.57842159,-0.461574852,-0.465008914,17.31586266,-38.29816818,-86.41918945
132,4135427163,-57.26192856,70.40296173,11.3404398,-11.12088394,-0.557630599,-0.049691148,-20.09771538,-50.62512207,-78.04080963
133,4135443830,-57.82464218,68.90843964,11.93463516,-10.39381027,-0.239068761,0.241234571,-64.64085388,-58.79055405,-68.79497528
134,4135460497,-59.01260376,67.56733704,12.84051609,-9.477000237,-0.912439346,0.294762164,-119.1825714,-59.46988297,-57.8142128
135,4135477164,-60.53779221,66.44430542,14.1086092,-8.553375244,-1.882294416,0.787940502,-158.9512939,-59.70920563,-43.10435867
136,4135493831,-62.23184967,65.59753418,15.76660728,-6.694731236,-1.56000185,1.691237092,-189.9289703,-59.87826157,-25.09486008
137,4135510498,-64.05467224,64.91030121,17.65896797,-5.387551785,-2.441360474,3.4100945,-209.8896942,-61.03772736,-15.17712402
138,4135527165,-65.95874786,64.22621918,19.24159241,-4.119776249,-5.115498066,3.169570208,-197.4350433,-54.25744629,-19.82005882
139,4135543832,-67.9937439,63.49720764,19.8221302,-3.701395512,-7.421411991,0.67980665,-150.8740234,-31.15539169,-34.06806946
140,4135560499,-69.74119568,62.83819199,19.90706444,-4.37356329,-5.600366116,1.338738441,-106.9903488,-16.33011818,-35.81169128
141,4135577166,-71.90926361,62.15671158,19.93323708,-4.476481438,-2.124362946,3.65483737,-129.1347198,-14.03765869,-38.10240936
142,4135593833,-74.7117691,61.48822021,20.17551422,-4.158904076,-1.226384759,3.780294418,-178.6385956,-17.97372818,-36.15064621
143,4135610500,-77.34634399,61.0421257,20.85522079,-3.966377735,-1.89567101,4.190078735,-191.5109558,-25.31433105,-20.91791344
144,4135627167,-79.34786224,60.91540527,21.81240654,-3.856356144,-1.649768114,2.560774565,-167.9980469,-28.60461044,-1.465471864
145,4135643834,-80.87522125,61.06643295,22.6075592,-4.049648285,-3.358121872,-0.4293167,-131.0548096,-20.98767853,13.2723875
146,4135660501,-82.46300507,61.35933304,22.74862671,-4.75308609,-4.467960358,-3.061582088,-100.3926086,-1.240615845,18.3794117
147,4135677168,-85.29864502,61.25096512,22.74551392,-10.32904625,-4.972874165,0.312788069,-167.7030029,-0.377382964,-6.034829617
148,4135693835,-88.10945129,61.31352997,23.42977142,-9.638959885,-3.020673513,1.963686705,-202.3864899,-19.23588943,5.350761414
149,4135710502,-91.07398987,61.42041016,24.55924416,-9.810192108,-1.515797853,0.981682956,-235.051239,-32.14474106,7.146067619
150,4135727169,-93.78460693,61.49733734,25.82269287,-9.129613876,-3.286641121,-1.384494901,-226.8914032,-36.05337524,3.606580734
151,4135743836,-96.0710144,61.69705963,26.95396805,-8.856723785,-2.040435076,-2.328743696,-194.5319672,-32.84272003,9.726415634
152,4135760503,-98.15299988,62.14712143,27.66148567,-8.667567253,-1.177672744,-3.34797287,-159.9955292,-22.81104851,24.90931511
153,4135777170,-99.97747803,62.78208923,27.91608047,-9.133069992,-1.327967644,-3.032943249,-120.6124954,-12.61914444,37.11009979
154,4135793837,-101.6261063,63.63875961,27.60225296,-9.047843933,-1.52648735,-3.707190752,-79.67786407,-0.949871123,52.6896286
155,4135810504,-102.6930389,64.92378998,26.49232292,-8.632481575,-2.059558392,-3.243633747,-1.555868268,12.32853127,82.06459045
156,4135827171,-102.7807312,66.74279785,24.51783943,-7.393423557,-3.594129562,-2.122044086,105.3105469,23.51515579,117.7363281
157,4135843838,-101.556694,69.37556458,21.07639313,-5.848424435,-3.693981886,-1.860476851,267.4490662,42.32689667,171.2247009
158,4135860505,-100.4816208,72.18123627,15.46410179,-5.983143806,-3.750303507,-0.805606008,384.9578552,76.7671814,186.8663177
159,4135877172,-101.8432083,74.2753067,8.167212486,-7.123706341,-2.454935551,2.193401098,340.0224609,99.61365509,148.0632782
160,4135893839,-105.8133316,75.58054352,2.147096872,-10.91692924,-2.770364285,11.14055061,113.1258545,72.4021225,98.93278503
161,4135910506,-109.0639191,76.58455658,-0.926948249,-11.40756416,-11.89177132,14.37047768,-13.43319798,24.22680855,71.30251312
162,4135927173,-108.8678894,77.2562027,-1.088400483,-9.246637344,-13.59708977,12.81889439,23.66625595,-11.0468502,39.42424774
163,4135943840,-106.0883713,77.64334106,0.821858823,-9.713834763,-9.755363464,9.803684235,57.20701218,-30.73570061,15.30359745
164,4135960507,-101.7735596,77.84494781,3.970637798,-11.49302292,-7.163717747,7.849011421,76.48021698,-41.81865311,2.72772336
165,4135977174,-96.49147797,77.79690552,8.022624016,-12.92112064,-5.472527504,6.4850173,81.4269104,-50.13645935,-10.34250641
166,4135993841,-90.74921417,77.43569183,12.72439671,-14.05385685,-3.864637852,4.989216328,71.10442352,-58.93416595,-24.80164909
167,4136010508,-85.28634644,76.7694397,17.47935677,-14.2772131,-3.134633064,2.837773085,51.76430511,-64.91746521,-37.10811615
168,4136027175,-80.8740921,75.84037018,21.47449684,-13.83731556,-1.976207256,1.047776937,33.94139862,-62.92791367,-47.88198471
169,4136043842,-77.34456635,74.82795715,24.62142372,-13.00073719,-1.003553748,-0.298997641,31.21018791,-58.28386307,-50.03985214
170,4136060509,-74.39110565,73.86763,27.1589241,-12.24010086,0.280521542,-0.69585073,32.73005295,-53.75481796,-45.3074379
171,4136077176,-71.5729599,73.0976944,29.54468346,-11.41407394,1.395199656,-2.113636255,34.02698135,-52.27233124,-31.76559067
172,4136093843,-68.6576004,72.59378052,31.98939705,-10.10836887,2.073314667,-3.9778018,36.99855423,-50.79840851,-13.27428722
173,4136110510,-66.04917145,72.2611618,34.22386551,-9.953582764,1.437863827,-3.765175819,30.99061012,-44.8776207,-2.440288544
174,4136127177,-63.63207245,72.13024139,36.17857742,-9.934829712,0.31095472,-3.418171167,35.71027374,-35.64975739,8.47774601
175,4136143844,-61.42863083,72.17259216,37.72560883,-9.384652138,-0.488897651,-3.445295095,46.24761963,-23.93974113,15.68753242
176,4136160511,-59.40437698,72.38835144,38.89339066,-9.115152359,-0.870290279,-3.164319038,57.12372208,-12.05822182,22.06763077
177,4136177178,-57.56568146,72.7258606,39.8360939,-8.536738396,-1.160592318,-2.200889587,58.79356384,-3.806993484,26.3848629
178,4136193845,-55.88932419,73.13237762,40.60486603,-8.626951218,-1.758779526,-1.10369575,58.94181442,2.092025518,28.0704422
179,4136210512,-54.16474915,73.57854462,41.4299202,-8.68832016,-2.539216042,0.041298598,58.51200485,3.726845741,30.30425453
180,4136227179,-52.24248123,74.01419067,42.445755,-9.016662598,-3.289364338,0.878345132,59.25262833,2.001280069,31.35790825
181,4136243846,-50.23419952,74.3340683,43.60263062,-8.980471611,-3.820645332,1.232492328,56.15003967,-2.803687572,27.06181335
182,4136260513,-48.22492218,74.5032196,44.84546661,-8.926558495,-3.901174545,1.338835597,51.11850357,-8.632079124,21.01844597
183,4136277180,-46.14442444,74.57115936,46.16763687,-8.670399666,-4.466029167,0.930394292,50.73761368,-12.85319424,17.63090324
184,4136293847,-43.54738235,74.68253326,47.61074448,-7.666397572,-5.225808144,0.798790932,74.63565826,-11.59469795,21.26440048
185,4136310514,-41.06275558,74.80310059,48.95111847,-8.160412788,-2.32587862,1.974646091,73.73426819,-9.067720413,20.82560921
186,4136327181,-39.25117111,74.74111938,49.96787643,-9.05156517,-2.952978373,2.224439144,52.06046295,-13.36385536,10.15326309
187,4136343848,-37.35245514,74.56639862,51.0327301,-9.131340981,-2.344203472,2.581980944,54.51209641,-18.90937805,7.083621025
188,4136360515,-35.8711853,74.25096893,51.95475769,-9.27809906,-1.379034877,3.209077835,37.77529907,-24.26999092,0.95609045
189,4136377182,-35.02392578,73.80185699,52.74004364,-9.27999115,-1.119235039,3.069584608,7.709833145,-29.68059158,-4.762883663
190,4136393849,-34.76655197,73.25949097,53.34830475,-9.444743156,-1.34907639,2.818795204,-17.38657188,-32.81133652,-9.836537361
191,4136410516,-35.16057968,72.61203003,53.71939087,-9.784692764,-1.801161528,2.835181713,-42.77150726,-35.77430344,-16.62174606
192,4136427183,-36.06771088,71.84767151,53.87207413,-9.914225578,-2.357540369,2.592151642,-60.99716949,-39.0890007,-24.14983368
193,4136443850,-37.38013458,71.00850677,53.8235321,-9.668692589,-2.56254673,1.91246593,-73.85503387,-39.96480179,-30.56393623
194,4136460517,-39.11051559,70.11972809,53.42977524,-9.789729118,-3.068717718,1.322272539,-79.43087006,-37.16355896,-38.8949585
195,4136477184,-41.02006149,69.2012558,52.75254822,-9.977787971,-3.535807371,1.088791132,-74.38664246,-33.22252655,-45.98046494
196,4136493851,-42.890522,68.2881546,51.78118134,-9.55960083,-3.699927092,1.228093505,-55.85327911,-26.74496269,-52.02671432
197,4136510518,-44.55204773,67.44110107,50.61336899,-9.241476059,-2.914808989,1.456820011,-32.75904846,-18.60487175,-53.87647247
198,4136527185,-46.13497162,66.685112,49.26916885,-8.906806946,-2.271958113,1.535983562,-18.69593048,-9.643629074,-54.02410126
199,4136543852,-47.61425018,66.0328064,47.71876144,-9.109879494,-2.642372608,1.275892735,-1.532858849,0.36296767,-53.73298264
200,4136560519,-48.85393143,65.50041962,45.97887421,-9.285595894,-3.299991608,1.135353327,22.81291962,10.57610512,-52.03092575
201,4136577186,-49.6390152,65.09615326,44.1737442,-9.302677155,-2.94429493,1.590928197,53.28252792,18.33930016,-47.58563995
202,4136593853,-49.97492599,64.79185486,42.37390137,-9.432411194,-2.484130383,2.013983011,79.66303253,23.03792572,-43.12614441
203,4136610520,-49.94551468,64.5741806,40.58350372,-9.535437584,-1.299536943,2.068842649,100.8673706,26.64432716,-39.22781372
204,4136627187,-49.77845383,64.42324066,38.83711624,-9.566490173,-1.105607986,2.110792875,106.6300812,28.53199196,-35.70226669
205,4136643854,-49.65044022,64.31665802,37.08484268,-10.02237511,-0.838479221,2.631070852,104.5352249,30.43728065,-34.00587463
206,4136660521,-49.62423706,64.23055267,35.45639801,-10.25964165,-0.311616629,3.237743139,91.69494629,28.85692215,-31.15427971
207,4136677188,-49.77113724,64.14776611,33.99863815,-10.19849777,-0.055137433,3.443535089,72.08122253,25.73035049,-28.20342255
208,4136693855,-50.12823486,64.07004547,32.72555923,-9.906931877,0.004466319,3.114651442,49.49234772,22.44651794,-24.84531021
209,4136710522,-50.58848572,64.02223206,31.64125824,-9.655536652,-0.058588095,2.687894344,33.13109589,20.02831841,-20.21967888
210,4136727189,-50.89238739,64.02212524,30.79299927,-9.679999352,-0.040023778,2.14872098,29.81808853,17.20960045,-13.98711872
211,4136743856,-51.07338333,64.07248688,30.19077873,-9.585364342,0.181903288,2.414029121,23.9875164,14.157794,-7.514333248
212,4136760523,-51.27729034,64.15782928,29.8103199,-9.575242043,0.290821552,2.765871286,10.71364689,10.95933723,-2.196713448
213,4136777190,-51.54496384,64.27108765,29.64674759,-9.461284637,-0.135549784,2.934006929,-4.750613213,7.585114002,2.67876935
214,4136793857,-51.8482132,64.41928864,29.67077637,-9.394207954,-0.720084727,2.966364145,-16.98278236,5.048807144,7.368154526
215,4136810524,-52.10077286,64.62335968,29.85740662,-9.343314171,-1.321864963,2.533169508,-22.70829391,3.792762995,12.59944153
216,4136827191,-52.26522446,64.89259338,30.15393066,-9.17417717,-1.803652763,2.476564884,-23.37199974,3.967803717,17.38368607
217,4136843858,-52.24646759,65.21897125,30.57567596,-9.315851212,-1.906145811,2.701518059,-19.21298409,3.608968735,21.98653603
218,4136860525,-52.00900269,65.58996582,31.14366531,-9.365153313,-2.0546875,2.809617043,-14.10122299,2.5341537,26.23544884
219,4136877192,-51.64494324,65.9811554,31.80667877,-9.321187019,-2.076328993,2.739617586,-11.66796112,1.782547355,28.45156479
220,4136893859,-51.24864578,66.38794708,32.53423691,-9.191074371,-2.229337454,2.548362494,-13.51668453,1.478050232,30.02689171
221,4136910526,-50.8678627,66.79964447,33.30825043,-9.080322266,-2.497330666,2.292969465,-15.47324944,1.774864554,30.27690125
222,4136927193,-50.50870895,67.21585083,34.00720215,-9.062425613,-2.674600601,2.161629915,-15.79748535,2.726854563,30.06378555
223,4136943860,-50.14792633,67.63119507,34.72468185,-9.172994614,-2.817907095,2.130846024,-14.21907902,3.605308056,29.34232521
224,4136960527,-49.74904633,68.03247833,35.40877533,-9.243035316,-2.852386475,2.201105595,-11.47751808,3.634390116,28.37893867
225,4136977194,-49.3113327,68.41072845,36.09126663,-9.284941673,-2.821245193,2.195410013,-9.077570915,3.184833527,27.09237671
226,4136993861,-48.88855743,68.75178528,36.74002457,-9.283130646,-2.894281626,2.188958645,-8.221408844,2.644901991,24.75574875
227,4137010528,-48.51552963,69.05056,37.33957291,-9.305400848,-2.853798389,2.216856241,-8.527547836,2.084212303,22.00265884
228,4137027195,-48.21812439,69.30602264,37.89591217,-9.273791313,-2.71036768,2.217787027,-10.70732403,1.290088177,19.33476448
229,4137043862,-48.02994537,69.51564026,38.39706039,-9.33991909,-2.738368034,2.224116802,-14.20416546,0.49304527,16.42558861
230,4137060529,-47.93049622,69.68133545,38.8323288,-9.393233299,-2.783299208,2.058470249,-15.87166977,-0.1450001,13.48680973
231,4137077196,-47.89331436,69.81364441,39.20252991,-9.244243622,-2.838924408,1.90272963,-15.97865105,-0.427342027,11.05950069
232,4137093863,-47.89461899,69.9171524,39.48691559,-9.159694672,-2.940627337,1.933436513,-13.47418118,-0.240740404,8.569313049
233,4137110530,-47.91564178,69.98562622,39.66871643,-9.14557457,-2.892700434,1.936717749,-8.901599884,-0.073233135,5.589306831
234,4137127197,-47.9623909,70.02957916,39.77408218,-9.166575432,-2.673474073,2.105456114,-6.147439957,0.105998188,3.447649717
235,4137143864,-48.07249832,70.05014801,39.80347061,-9.102960587,-2.556674242,2.228816032,-5.679994106,0.317866415,1.369293451
236,4137160531,-48.24061584,70.05591583,39.76201248,-9.112468719,-2.583195925,2.303611517,-5.163617134,0.804482222,-0.253636211
237,4137177198,-48.41883469,70.04387665,39.67114258,-9.155884743,-2.517163277,2.256657839,-2.999612331,0.848074973,-1.717466116
238,4137193865,-48.59614944,70.03079987,39.54592896,-9.003686905,-2.366389036,2.170689821,-1.011464834,1.341439724,-2.222164392
239,4137210532,-48.74279404,70.02046967,39.42056656,-9.12485218,-2.247425318,2.376437664,0.832412779,1.461281538,-2.093037844
240,4137227199,-48.86878586,70.01174927,39.32216263,-9.112671852,-2.057964802,2.420442581,0.545512021,1.113601685,-1.652063847
241,4137243866,-49.02220154,70.00493622,39.23146057,-9.177638054,-2.130028725,2.507840633,-1.534027815,1.078051209,-1.460071206
242,4137260533,-49.19700241,69.99480438,39.14408493,-9.224406242,-2.16264081,2.560003281,-3.0043118,0.902322531,-1.562944531
243,4137277200,-49.39097595,69.98399353,39.04977798,-9.232985497,-2.115187407,2.509021282,-3.76439476,0.994848549,-1.680647731
244,4137293867,-49.59299088,69.97584534,38.95259094,-9.223632813,-2.156462431,2.386100531,-4.084662914,1.152987719,-1.5953511
245,4137310534,-49.76050186,69.96730042,38.84394836,-9.233345985,-2.330622435,2.188210964,-1.368838668,1.326520205,-1.760866642
246,4137327201,-49.8245697,69.95591736,38.73951721,-9.252148628,-2.344441175,2.276592493,4.592524052,1.152072191,-1.833491683
247,4137343868,-49.81074524,69.93599701,38.66255951,-9.313894272,-1.931558251,2.365520477,7.720238686,0.393891364,-1.85642159
248,4137360535,-49.81764221,69.91223907,38.61024857,-9.26888752,-1.796414018,2.349108696,5.084455013,-0.140953109,-1.707784414
249,4137377202,-49.85155869,69.8813858,38.57950592,-9.293712616,-1.878692508,2.2991786,2.263035536,-0.748934627,-1.755270243
250,4137393869,-49.88896942,69.84613037,38.57305145,-9.311347961,-1.993598223,2.316578627,0.690966606,-1.296841502,-1.635825634
251,4137410536,-49.93265915,69.80688477,38.58184433,-9.294359207,-2.027239084,2.300281048,-0.549104333,-1.690867186,-1.621508002
252,4137427203,-49.96700668,69.76805878,38.59716034,-9.283123016,-2.077340841,2.207918644,-0.352859795,-1.776900291,-1.517085075
253,4137443870,-49.96736908,69.739151,38.62494278,-9.237374306,-2.048324823,2.056944847,0.989789963,-1.589620113,-0.8983078
254,4137460537,-49.92645264,69.72790527,38.65688324,-9.186207771,-2.132920504,1.936606169,3.235972166,-0.970113039,-0.027885824
255,4137477204,-49.82701111,69.7276001,38.70469666,-9.183366776,-2.154916763,2.088834047,5.854007244,-0.804008305,0.683020294
256,4137493871,-49.71939087,69.72937775,38.76973724,-9.194042206,-1.954253316,2.133659363,5.369683266,-0.998754442,1.01026094
257,4137510538,-49.63897324,69.73504639,38.85031891,-9.181771278,-2.00280714,2.144074202,2.880212069,-1.088827848,1.395507813
258,4137527205,-49.57593918,69.74222565,38.93515396,-9.240014076,-2.141957283,2.208825827,1.591867805,-1.097049594,1.522879958
259,4137543872,-49.52067566,69.75177002,39.02408981,-9.227481842,-2.090104818,2.221784592,0.900056005,-1.068017602,1.684457779
260,4137560539,-49.47449493,69.76832581,39.11094666,-9.230360031,-2.207482815,2.095328569,0.453460068,-0.763956428,1.979631305
261,4137577206,-49.41284561,69.79005432,39.18069839,-9.228058815,-2.264101028,2.005382538,2.346264362,-0.290825814,1.984715343
262,4137593873,-49.35625076,69.81558228,39.22208786,-9.21804142,-2.232983112,1.970429659,3.659183741,0.310208201,1.769568563
263,4137610540,-49.33665848,69.84671783,39.22000122,-9.275680542,-2.258072853,1.889860511,3.870591402,1.206230044,1.442725062
264,4137627207,-49.35276031,69.8924408,39.17127991,-9.350656509,-2.234202623,1.961796641,4.40177393,2.51753664,1.469503403
265,4137643874,-49.37346649,69.96153259,39.08817291,-9.407452583,-2.202379227,1.986329794,6.038874149,3.955421448,2.082761288
266,4137660541,-49.41569519,70.05647278,38.95997238,-9.598008156,-2.237503767,2.050625324,7.264839649,5.648703098,2.671367168
267,4137677208,-49.46929169,70.18619537,38.7963562,-9.848608971,-2.207658291,1.979526401,8.592514038,7.540881634,3.806010723
268,4137693875,-49.49411774,70.37795258,38.6228714,-9.844838142,-2.151238203,2.042257786,10.89703465,10.08379269,6.526070118
269,4137710542,-49.42897415,70.63433075,38.47393036,-9.470129967,-2.09624362,2.356921673,14.92829704,12.19896603,9.814354897
270,4137727209,-49.25996017,70.92423248,38.38106918,-9.200572014,-2.020544291,2.648743868,17.99510002,12.64890957,12.06637383
271,4137743876,-49.01689148,71.21586609,38.36556244,-9.116555214,-1.849051833,2.672693729,18.07885361,11.60201454,13.10330677
272,4137760543,-48.76311874,71.48336029,38.42092514,-9.049482346,-1.684932828,2.683307409,14.68460274,9.669168472,12.86067009
273,4137777210,-48.50313568,71.70927429,38.55739594,-8.899875641,-1.744993091,2.738457441,10.42215061,6.929894924,11.95849133
274,4137793877,-48.18863297,71.87708282,38.79866028,-8.769443512,-1.832443476,2.86946249,7.721863747,3.220773935,10.60165501
275,4137810544,-47.84673309,71.96746063,39.13952637,-8.748756409,-1.772822738,2.858548164,3.670236826,-1.180547357,8.352534294
276,4137827211,-47.54074097,71.97684479,39.54642105,-8.876288414,-1.764752269,2.682358503,-2.249621153,-5.295675755,5.575540066
277,4137843878,-47.2826767,71.90648651,39.99331284,-9.092250824,-1.83902812,2.555485249,-7.404052258,-9.057929039,2.58945775
278,4137860545,-47.07076263,71.76689911,40.44696426,-9.254330635,-1.963389039,2.41649437,-10.54841423,-11.99591732,-0.306923687
279,4137877212,-46.87656403,71.56956482,40.89747238,-9.328324318,-2.043903828,2.31937933,-11.414217,-14.36819744,-2.785775185
280,4137893879,-46.6845932,71.32855225,41.33174133,-9.34010601,-2.072363615,2.230519295,-10.59772396,-16.01470184,-4.798155308
281,4137910546,-46.5112648,71.05065155,41.72992706,-9.351565361,-2.119915009,2.076875925,-9.647362709,-17.12154198,-6.754750729
282,4137927213,-46.39128113,70.74563599,42.06161499,-9.312281609,-2.17952466,1.956246495,-9.024079323,-17.3876133,-8.719005585
283,4137943880,-46.30617523,70.42835236,42.33065033,-9.224164963,-2.099735975,1.982359886,-7.565677643,-17.08504868,-10.0137434
284,4137960547,-46.26488113,70.11392212,42.54207993,-9.160678864,-1.909734488,1.993041396,-6.936499119,-16.19417,-10.61465359
285,4137977214,-46.2818985,69.8129425,42.70527267,-9.121438026,-1.884667158,1.980522156,-7.661287308,-14.95665264,-10.68608761
286,4137993881,-46.35512924,69.53359222,42.81793594,-9.04270649,-1.986156464,1.898354769,-8.219534874,-13.3278017,-10.44597244
287,4138010548,-46.45813751,69.28580475,42.8835144,-9.000293732,-2.064161539,1.885736585,-7.201592922,-11.2649231,-9.806791306
288,4138027215,-46.55569839,69.07278442,42.91263962,-9.024668694,-2.075533867,1.907253146,-4.72028923,-9.224733353,-8.872239113
289,4138043882,-46.64072037,68.89698029,42.88891983,-9.04775238,-2.018666029,1.912469268,-2.069731236,-7.148987293,-7.739962578
290,4138060549,-46.7372551,68.76035309,42.84848022,-9.076299667,-2.013015747,1.920996308,-1.184683681,-5.076956749,-6.477101326
291,4138077216,-46.84067917,68.65606689,42.81337357,-9.083732605,-2.053607225,2.017753363,-0.465421259,-3.412214279,-5.409839153
292,4138093883,-46.9526329,68.57376862,42.74265671,-9.017177582,-2.028834343,2.089708328,-0.112036355,-2.246291399,-4.663567543
293,4138110550,-47.09350204,68.50495148,42.62995911,-8.959792137,-2.031291723,2.137081623,-0.387475371,-1.260945439,-4.457295418
294,4138127217,-47.25415421,68.44841003,42.49822998,-8.979162216,-2.040696621,2.195444822,-0.183630228,-0.341097116,-4.307415962
295,4138143884,-47.41041183,68.40531921,42.37275314,-9.049918175,-2.059352636,2.238223791,0.665392458,0.396420628,-3.891587734
296,4138160551,-47.53858185,68.37714386,42.21810913,-9.186491966,-2.07476449,2.318717957,2.094171524,0.939768493,-3.130032539
297,4138177218,-47.62629318,68.36795044,42.11961365,-9.279507637,-2.065778494,2.390590429,3.203765154,1.328851104,-1.975309253
298,4138193885,-47.69571686,68.37807465,42.05214691,-9.456834793,-2.10270381,2.443891287,3.386114836,1.845139146,-0.886731029
299,4138210552,-47.72442627,68.40390778,42.03625107,-9.552547455,-2.113189459,2.567835331,3.457061768,1.782528877,0.436043471
300,4138227219,-47.72746658,68.43302155,42.02797699,-9.600012779,-2.099840403,2.704184532,2.69700408,1.240115643,1.231317759
301,4138243886,-47.73203278,68.45371246,42.04318237,-9.52981472,-2.097434521,2.708051682,0.487870663,0.280651152,1.432940841
302,4138260553,-47.75555801,68.45675659,42.10136795,-9.469630241,-2.176161289,2.693711758,-1.680160999,-0.729981124,0.897430539
303,4138277220,-47.80116272,68.44021606,42.14952469,-9.352705956,-2.14300251,2.685272932,-3.718483448,-1.727480531,0.238774374
304,4138293887,-47.87718964,68.41059113,42.16161728,-9.283745766,-2.199562073,2.721035719,-5.305651188,-2.185563564,-0.373708457
305,4138310554,-47.95098877,68.37434387,42.2115593,-9.2376194,-2.287302256,2.746907234,-5.032691479,-2.407619715,-0.748531222
306,4138327221,-47.99269867,68.33706665,42.27353668,-9.187552452,-2.367276669,2.796039104,-3.240972996,-2.486000299,-0.772485375
307,4138343888,-47.97608185,68.29758453,42.34497452,-9.099657059,-2.406060457,2.838444471,-0.30249238,-2.739553452,-0.719159782
308,4138360555,-47.89244461,68.25228119,42.4250946,-9.030707359,-2.408675909,2.823051929,2.850994349,-3.230991125,-0.734725952
309,4138377222,-47.74430084,68.1969986,42.55405807,-8.998701096,-2.352557182,2.803099394,5.081399918,-4.120238781,-0.74910754
310,4138393889,-47.55688095,68.12268829,42.69514084,-8.928839684,-2.193001747,2.76377368,5.517206669,-5.465001106,-1.036027431
311,4138410556,-47.36615753,68.03631592,42.85927963,-8.940304756,-2.180697441,2.677167416,4.175600529,-6.423864841,-1.123226047
312,4138427223,-47.1726532,67.94270325,43.05862808,-9.029806137,-2.281507015,2.637669563,3.112302303,-7.097902298,-1.083808064
313,4138443890,-46.95106888,67.84872437,43.29184341,-9.174748421,-2.357429981,2.551148176,3.108575583,-7.633592129,-0.602750182
314,4138460557,-46.69657516,67.75713348,43.54328156,-9.27374649,-2.390586138,2.517879248,3.615489006,-7.992040157,-0.032483306
315,4138477224,-46.41392136,67.66750336,43.82136536,-9.332623482,-2.384465933,2.494049311,4.164613724,-8.270503044,0.417909741
316,4138493891,-46.13541412,67.57148743,44.10640717,-9.296037674,-2.332880735,2.432389975,3.684688568,-8.624604225,0.263702005
317,4138510558,-45.89696121,67.46377563,44.33810425,-9.236571312,-2.332653761,2.32732296,2.265257835,-8.840724945,-0.430203795
318,4138527225,-45.7060318,67.34288788,44.53023148,-9.168754578,-2.338274717,2.25540638,1.208362699,-8.884227753,-1.456492066
319,4138543892,-45.54851532,67.21665955,44.7015686,-9.090441704,-2.305908442,2.186810732,0.763661981,-8.669952393,-2.104339838
320,4138560559,-45.41974258,67.09426117,44.93622589,-8.987580299,-2.24233675,2.136490822,0.198293552,-8.185621262,-2.32937932
321,4138577226,-45.32026672,66.98374176,45.14266205,-8.858296394,-2.186397076,2.097491026,-0.577803433,-7.412092209,-2.073879719
322,4138593893,-45.24817276,66.89392853,45.30534363,-8.740151405,-2.12149024,2.043202877,-1.549177885,-6.349920273,-1.336822867
323,4138610560,-45.18820572,66.83011627,45.41571808,-8.717226982,-2.1206038,1.988978028,-2.347314358,-5.287639618,-0.137450561
324,4138627227,-45.10155487,66.80377197,45.6461525,-8.691329956,-2.113357067,1.936748624,-2.19782567,-4.150256157,1.807494283
325,4138643894,-44.98152161,66.82449341,45.84492493,-8.766479492,-2.08771348,1.849564672,-1.974271774,-2.695064306,4.417665958
326,4138660561,-44.81832123,66.89523315,46.02911758,-8.855053902,-2.125301123,1.814872384,-2.069320917,-1.366943717,7.413623333
327,4138677228,-44.60721588,67.01432037,46.34963608,-9.064222336,-2.158230782,1.878013968,-2.52387023,-0.265482128,10.36477184
328,4138693895,-44.35843658,67.17203522,46.71453476,-9.323050499,-2.108441591,1.908984184,-3.532473803,0.491200686,12.95965099
329,4138710562,-44.09842682,67.35238647,47.11315536,-9.556027412,-2.066735268,1.92512536,-5.191026211,0.880040228,14.55897522
330,4138727229,-43.85647202,67.53800964,47.55546188,-9.697893143,-2.029575586,1.901863098,-6.99088335,1.016159058,14.89434814
331,4138743896,-43.65834045,67.72360229,47.95684814,-9.785935402,-1.882298946,1.922144175,-9.103973389,1.276576638,14.70388317
332,4138760563,-43.51828766,67.89563751,48.33626175,-9.84961319,-1.811296105,2.096219778,-11.27485466,1.148743391,13.68592739
333,4138777230,-43.4057045,68.03639221,48.72748947,-9.639557838,-1.678370357,2.214487553,-12.27370167,0.041543838,12.12617779
334,4138793897,-43.38877106,68.14122009,49.05502701,-9.282820702,-1.461099029,2.1413486,-14.99738598,-0.64193821,9.73735714
335,4138810564,-43.54091263,68.22988892,49.28411484,-9.08541584,-1.365952253,1.934944749,-19.14021111,0.317149729,7.286465645
336,4138827231,-43.90882492,68.34428406,49.35774231,-9.000500679,-1.299844503,1.772945523,-23.64847946,3.739435911,5.912013054
337,4138843898,-44.44483185,68.53907776,49.29150009,-9.083273888,-1.225926995,1.89135325,-26.51243401,9.148859024,7.263476849
338,4138860565,-45.0749855,68.8777771,49.16932297,-9.279286385,-1.22743392,2.181381941,-28.60869598,16.16658783,12.46348667
339,4138877232,-45.65590668,69.40416718,49.06459808,-9.391199112,-1.401605129,2.561092377,-26.62447548,23.63879204,20.95342827
340,4138893899,-46.14416504,70.11740112,48.99885559,-8.92471981,-1.471058726,3.046412468,-23.4733448,30.55173683,29.91025925
341,4138910566,-46.54002762,70.97676086,48.97338486,-8.249268532,-1.62247014,3.315993547,-20.06973839,35.78128433,37.05834579
342,4138927233,-46.85791779,71.93770599,48.94560242,-7.695763588,-1.641274929,3.470255136,-15.21061611,39.75502396,41.70713806
343,4138943900,-47.19689178,72.96556854,48.89382935,-7.627956867,-1.465590835,3.567941427,-15.08409023,42.54963684,44.61123276
344,4138960567,-47.52045059,74.03543854,48.87757111,-7.785357475,-1.56071341,3.949570894,-16.18371773,43.50870895,47.17258072
345,4138977234,-47.71233368,75.1557312,48.91400528,-7.872256756,-1.995994687,3.845731497,-11.311656,44.70542908,50.19912338
346,4138993901,-47.5670929,76.30944061,49.01252365,-8.000310898,-2.468028784,3.877062082,5.294619083,45.38371277,52.30731964
347,4139010568,-47.25379181,77.47676849,49.15636826,-8.164268494,-1.877911687,4.196073055,12.69690228,45.76818466,53.08860779
348,4139027235,-46.9936142,78.61616516,49.36114883,-8.529602051,-1.595112801,4.40948391,5.884794712,44.45544815,52.04808807
349,4139043902,-46.79821396,79.68913269,49.65326691,-8.734544754,-1.618347764,4.365553379,-3.18053627,41.39085388,49.49496841
350,4139060569,-46.61120605,80.69181824,50.03717422,-8.774371147,-1.824463844,4.208296776,-9.169115067,38.20725632,46.73285294
351,4139077236,-46.45471191,81.62281036,50.42469788,-8.824754715,-2.028719187,4.194024563,-11.28835678,35.64176559,43.2712326
352,4139093903,-46.31548691,82.47133636,50.80072021,-8.848045349,-2.186051369,4.257186413,-11.69722176,32.67283249,39.30740356
353,4139110570,-46.20105362,83.23796082,51.12065887,-8.915716171,-2.320698261,4.245511055,-9.90733242,29.89463234,35.19332504
354,4139127237,-46.09204483,83.92123413,51.38430405,-9.073590279,-2.350470543,4.302268505,-6.91976738,26.94824791,31.11985207
355,4139143904,-45.97089005,84.51488495,51.63527679,-9.162998199,-2.258990526,4.26921463,-5.450785637,23.47672272,27.04800797
356,4139160571,-45.87091064,85.01571655,51.86830902,-9.273700714,-2.253751516,4.244478226,-5.703831673,19.83018494,22.84625626
357,4139177238,-45.92250061,85.41007996,51.9873085,-9.278839111,-2.243358374,4.108996868,-8.018694878,15.88344288,17.7856636
358,4139193905,-46.3897438,85.69306946,51.74045181,-9.07682991,-2.258789301,3.926799536,-11.06570053,12.46505928,11.86568356
359,4139210572,-47.63904572,85.87242126,50.75678253,-9.085036278,-2.372441292,3.81128788,-13.94317818,10.38679314,5.328433514
360,4139227239,-49.75518799,85.96076202,48.90660858,-9.379249573,-2.569037437,3.63101244,-14.07156181,9.344650269,-0.783973575
361,4139243906,-52.80295181,86.01085663,46.06739044,-10.15246964,-2.89256525,3.397169828,-10.82439232,11.09156513,-4.660484314
362,4139260573,-56.47431183,86.06528473,42.47376251,-11.8197155,-3.336227179,3.473794699,-3.086287975,13.96543789,-5.477081299
363,4139277240,-59.8451004,86.14807129,38.92754364,-13.49302006,-3.682142019,3.783433914,12.06862926,14.82359886,-2.9131217
364,4139293907,-62.48080826,86.23703766,35.89280319,-14.58568001,-3.443165064,4.178071976,25.53872681,13.10978317,-0.647727847
365,4139310574,-63.38341904,86.26357269,34.48241425,-14.84580994,-3.177220821,4.357788086,32.2725029,5.615259647,-0.569814265
366,4139327241,-62.21020889,86.10317993,35.12902832,-13.74824238,-3.11664319,4.241101265,33.63515472,-6.718131542,-6.83473444
367,4139343908,-59.88804245,85.60951996,36.97689056,-12.07530785,-3.031685591,3.625505924,30.65493774,-21.35353088,-21.48625565
368,4139360575,-57.7272377,84.71161652,38.70148849,-10.48138046,-2.85968709,2.958830357,28.42464447,-35.36055756,-41.00782013
369,4139377242,-56.24264526,83.41996002,39.73067093,-9.514694214,-2.808097839,2.466829538,29.4953022,-47.5541954,-60.94493866
370,4139393909,-55.22386169,81.81064606,40.22384644,-9.601039886,-2.901600599,2.324075222,33.56877899,-57.47348785,-77.09577942
371,4139410576,-54.13092422,79.9720459,40.68652725,-10.3645792,-2.868979931,2.47825861,39.90541458,-67.32640839,-86.91438293
372,4139427243,-52.71403122,77.97877502,41.37965775,-11.05594063,-2.624224186,2.541658878,45.89504242,-77.59593201,-90.74691772
373,4139443910,-51.11083221,75.88444519,42.28775024,-11.3676815,-2.395085335,2.291687012,44.7834816,-87.14411163,-90.75498199
374,4139460577,-49.58924866,73.6974411,43.26878357,-11.47783279,-2.278218269,2.033023834,36.13444138,-95.54548645,-90.64247131
375,4139477244,-48.36772537,71.41466522,44.20915222,-11.17857456,-2.14950633,1.761827707,21.0852375,-102.5774918,-91.71155548
376,4139493911,-47.58602905,69.04724121,44.98559189,-10.73068905,-2.253480911,1.457556486,4.663844109,-106.7160797,-94.4688797
377,4139510578,-47.2362709,66.62184906,45.55730057,-10.28093815,-2.500602245,1.30324769,-9.193543434,-107.9249573,-97.88328552
378,4139527245,-47.26773453,64.17488861,45.89897537,-9.761011124,-2.774772167,1.163567066,-18.95455742,-105.8412552,-101.5376892
379,4139543912,-47.55992508,61.75753403,46.04340363,-9.322283745,-3.003837824,1.065327287,-23.69438171,-100.966011,-103.6441727
380,4139560579,-47.95640182,59.40910339,46.04828262,-8.945464134,-3.174595118,1.063575149,-22.49869537,-94.74880219,-103.7468948
381,4139577246,-48.31951141,57.16182327,45.9774704,-8.585682869,-3.21827054,1.19432044,-16.6501503,-88.23947144,-101.4438934
382,4139593913,-48.57191086,55.04453659,45.86972046,-8.170671463,-3.379604816,1.202718854,-8.273218155,-81.4943924,-96.99635315
383,4139610580,-48.70575714,53.07490921,45.71521759,-7.648019791,-3.491731167,1.140855193,0.964833081,-73.93669128,-91.83978271
384,4139627247,-48.73988342,51.27829361,45.50320435,-7.233951569,-3.424608231,1.115869522,9.473997116,-65.1885376,-85.71051788
385,4139643914,-48.7048912,49.66425323,45.233284,-6.982932568,-3.307924986,1.267742991,16.05553436,-56.08425522,-79.13909912
386,4139660581,-48.60823059,48.22771454,44.93740463,-6.801878452,-3.159032345,1.671139002,20.63704681,-48.13832855,-71.97770691
387,4139677248,-48.44116974,46.96873856,44.64769745,-6.60995388,-3.182980299,1.864735126,24.30762672,-41.20674896,-63.94150543
388,4139693915,-48.2187233,45.88670731,44.37274933,-6.399201393,-3.320927382,1.921696663,26.74429321,-34.63490677,-55.64836884
389,4139710582,-47.98683167,44.98004913,44.11018372,-6.187099934,-3.264152527,2.152480364,26.5766964,-28.07227325,-47.47657394
390,4139727249,-47.79008102,44.22639847,43.85692596,-6.033381462,-3.213703871,2.488007307,23.91760063,-22.27489662,-40.41521072
391,4139743916,-47.62798691,43.60564804,43.61558151,-6.002955914,-3.278977633,2.930727482,21.21226692,-17.32700348,-34.19725418
392,4139760583,-47.47505569,43.10197067,43.39229202,-6.026505947,-3.424969196,3.16399765,19.81781578,-13.1899929,-28.51415634
393,4139777250,-47.31955719,42.7074585,43.18869019,-6.087569714,-3.655917883,3.229061842,19.09446335,-9.420723915,-23.12967491
394,4139793917,-47.11115265,42.42134476,43.00077057,-6.201132774,-3.864746571,3.237964392,21.58339882,-5.551370144,-17.89827538
395,4139810584,-46.8579216,42.24360275,42.83116913,-6.369997978,-3.777952433,3.340951443,23.50153923,-1.76585269,-12.59697723
396,4139827251,-46.61158752,42.17661667,42.68356323,-6.611883163,-3.574764252,3.412509203,22.19079018,2.027344942,-7.099802494
397,4139843918,-46.44034958,42.22925186,42.55525208,-6.90490675,-3.456694365,3.498115778,16.91815948,6.31467104,-1.323409557
398,4139860585,-46.36420822,42.41284561,42.45041275,-7.234366894,-3.482285261,3.608490944,10.28635597,10.96643925,5.065152168
399,4139877252,-46.36860275,42.74168015,42.36506653,-7.571127415,-3.619127035,3.672716379,4.698086739,16.34568214,11.95755577
400,4139893919,-46.39726257,43.24048996,42.31896973,-8.080216408,-3.711603403,3.681626797,1.685564399,22.11452293,20.53440666
401,4139910586,-46.41900635,43.92359543,42.31835556,-8.664279938,-3.794567585,3.49015069,0.260277778,28.28551483,29.91423416
402,4139927253,-46.41399002,44.80724716,42.35530853,-9.391135216,-3.988699436,3.269418955,0.317946434,35.40619659,39.72840881
403,4139943920,-46.39170456,45.90401459,42.41503143,-10.44739437,-3.99145484,3.080588102,0.384439737,43.55372238,49.60757828
404,4139960587,-46.36763,47.21311951,42.54541397,-11.6672802,-3.651841164,2.985126972,-2.595794916,50.28902054,60.76463699
405,4139977254,-46.39861679,48.71374512,42.81938934,-12.02663326,-3.048574686,2.666282177,-12.38678932,54.12900925,72.94665527
406,4139993921,-46.62281799,50.35944748,43.19282913,-11.14024448,-2.708354235,2.264633656,-28.75309563,57.39659882,81.78502655
407,4140010588,-47.0919838,52.09242249,43.57573318,-9.661639214,-2.583021879,2.039824247,-44.268116,60.58590317,85.83010101
408,4140027255,-47.78905106,53.8447876,43.83605957,-7.942666531,-2.832332611,1.975138307,-52.45310211,64.16499329,83.92640686
409,4140043922,-48.61743927,55.57918167,43.85469437,-7.412419319,-3.092293501,2.357542276,-48.73452759,68.85126495,78.13626099
410,4140060589,-49.34008026,57.28792953,43.6571312,-8.06563282,-3.527779341,2.707018614,-31.57798576,72.20275116,73.19402313
411,4140077256,-49.66162491,59.00253677,43.41335297,-9.425224304,-3.481795549,2.787819862,-4.947515965,72.63204193,73.37312317
412,4140093923,-49.49873734,60.78059006,43.34104156,-10.37848091,-2.479893923,2.419013739,15.47521305,70.76332855,79.97294617
413,4140110590,-49.21317673,62.62771988,43.49707413,-10.69566345,-1.302443981,2.293594837,10.87674236,68.73880768,87.14940643
414,4140127257,-48.99919128,64.52987671,43.96837616,-10.49682617,-1.029997349,2.235826969,-10.45902061,65.10189056,94.67189026
415,4140143924,-48.94763565,66.43328857,44.71891403,-10.08922005,-1.101614237,2.502897978,-35.79693604,60.75529861,98.57898712
416,4140160591,-49.05978012,68.28823853,45.67538834,-9.530892372,-1.575564981,2.672532797,-57.58165741,56.21582413,98.65552521
417,4140177258,-49.12197113,70.05255127,46.73575592,-8.906536102,-2.382987022,2.714237213,-61.04827118,52.09371185,94.99036407
418,4140193925,-49.06093216,71.73488617,47.83917618,-8.261885643,-1.831359386,2.693921566,-56.73868179,49.57870865,90.6697464
419,4140210592,-49.03341293,73.32353973,48.91130829,-8.674430847,-2.910616159,2.566047668,-57.53786087,47.73580551,84.85696411
420,4140227259,-48.62462997,74.81756592,50.10852051,-7.981731892,-2.543174028,2.321725607,-42.37685394,44.00553894,80.69207001
421,4140243926,-48.2552681,76.23449707,51.25439072,-8.135256767,-2.484226704,2.302005768,-42.24893951,43.35847092,75.27099609
422,4140260593,-47.78874969,77.59304047,52.43792343,-8.129249573,-2.531672478,2.346344471,-39.00363541,42.37840271,71.63363647
423,4140277260,-47.31855011,78.91411591,53.61591721,-8.221978188,-2.239445686,2.543847084,-38.83592224,42.67433167,68.50830078
424,4140293927,-46.96292114,80.19743347,54.75911331,-8.325602531,-2.305973291,2.826603174,-43.96553421,43.05129623,65.2279129
425,4140310594,-46.53558731,81.42489624,55.97542953,-8.260844231,-2.62735343,2.976489305,-44.25959778,41.76250076,61.98146057
426,4140327261,-46.04584503,82.60195923,57.22813034,-8.146444321,-2.586697578,3.009496927,-42.92217636,41.03503418,58.64385986
427,4140343928,-45.51328278,83.70829773,58.45972824,-8.241059303,-2.989223719,2.964906931,-39.30823517,39.76234055,54.11415863
428,4140360595,-45.04832077,84.72949982,59.50245667,-8.345668793,-3.052827358,3.013261318,-32.25098038,38.42184067,48.40644073
429,4140377262,-44.95458603,85.65927124,60.06570053,-8.507835388,-3.087285757,3.121233702,-25.97238922,37.22942734,41.90730667
430,4140393929,-45.59978485,86.50016785,59.78459167,-8.710613251,-3.113693953,3.235118151,-19.85731316,36.10664749,35.51786804
431,4140410596,-47.68554688,87.24963379,57.9595871,-9.000037193,-3.179866314,3.500315905,-13.75839901,35.01457596,29.11134148
432,4140427263,-52.43351364,87.90781403,53.33836365,-9.491969109,-3.292123318,3.766258717,-5.841235161,34.11720276,23.27083778
433,4140443930,-62.3864212,88.45820618,43.39329529,-10.17779255,-3.470198393,4.054205894,1.193032742,33.4537735,18.09236526
434,4140460597,-80.32781219,88.85209656,25.28960228,-10.95855999,-3.660096645,4.379086018,11.30231571,31.33491707,14.50504398
435,4140477264,-104.9917679,89.01404572,0.304690212,-11.30169964,-3.625548601,4.566299915,20.94623756,27.09929466,11.38327122
436,4140493931,-125.5637436,88.95320892,-20.63708496,-11.25088596,-3.298552036,4.653953075,23.89803505,21.45735168,6.850399494
437,4140510598,-134.6121368,88.78566742,-29.93417931,-11.0127058,-2.969021559,4.561851978,16.68317413,14.72920227,0.081134766
438,4140527265,-135.5153351,88.57454681,-30.87320709,-11.07192898,-3.038401842,4.357516289,3.939119577,9.797643661,-7.387877464
439,4140543932,-132.3451691,88.33822632,-27.68455315,-12.05731201,-3.734985352,4.612307549,0.753590226,6.026711464,-13.10343647
440,4140560599,-126.4446182,88.13093567,-21.99581909,-13.19418049,-4.459753036,5.253454208,14.61011791,-0.294386387,-15.59645844
441,4140577266,-116.5172348,87.98249054,-12.76711178,-13.68206978,-4.89711237,5.579456329,43.93201447,-11.4075098,-16.6571064
442,4140593933,-101.2216187,87.77138519,1.370853901,-12.91522217,-4.657023907,5.030192852,71.6736145,-25.61166382,-21.32326126
443,4140610600,-83.86141205,87.26663208,17.23414803,-12.01954269,-4.424632072,4.101051807,92.28671265,-39.69347763,-31.0697937
444,4140627267,-69.67105865,86.3398056,29.69770813,-12.04027653,-4.077943802,3.543803215,106.2928467,-53.1471138,-43.56528473
445,4140643934,-59.78024673,84.99047089,37.76569748,-12.81546974,-3.369253874,3.099429607,112.2249832,-67.49958038,-56.69769669
446,4140660601,-53.22432327,83.2816925,42.66554642,-13.51756668,-2.729658604,2.596860409,102.3252716,-81.52587891,-68.13791656
447,4140677268,-48.80337524,81.27199554,45.6814003,-14.29622269,-2.461858749,2.249059677,87.33370209,-94.68302155,-77.69513702
448,4140693935,-45.7403717,79.00526428,47.69335556,-13.9630518,-2.125257492,2.081374168,66.22176361,-107.3958817,-85.1651001
449,4140710602,-43.83932114,76.52542114,48.88565445,-13.13961029,-1.970061779,1.788915396,45.49775696,-116.2170105,-93.36969757
450,4140727269,-42.71835327,73.84602356,49.59122467,-12.0534544,-2.15380311,1.859891891,27.68701553,-124.4036865,-101.6489944
451,4140743936,-42.13030624,70.98970032,49.89297867,-10.8621788,-2.523389816,1.786936283,19.3520546,-130.1490936,-110.8999557
452,4140760603,-41.83662415,68.01429749,49.82625961,-10.27125931,-3.149284363,1.217313886,22.69024467,-131.7228546,-119.7836761
453,4140777270,-41.48659897,65.00252533,49.56382751,-10.0642767,-3.226977825,0.863195479,36.74386215,-130.7969208,-124.1370621
454,4140793937,-40.96890259,62.02475739,49.25909805,-9.78018856,-3.377383947,0.633617282,48.685215,-128.9910431,-123.2060547
455,4140810604,-40.21902847,59.1002121,48.99087143,-9.607430458,-3.168070078,0.349034369,60.26315689,-128.1007233,-119.5153732
456,4140827271,-39.40346527,56.25510406,48.72206879,-9.205436707,-2.857787371,0.095410824,63.79764938,-125.6364975,-115.2562027
457,4140843938,-38.64198685,53.50720978,48.43544006,-8.993174553,-2.370993853,0.145663321,60.98518753,-121.9112015,-110.8410873
458,4140860605,-38.02882004,50.86662674,48.13928223,-8.64439106,-2.060125351,0.220186934,52.07338333,-117.5796051,-106.1857376
459,4140877272,-37.60567474,48.35672379,47.81892395,-8.344603539,-2.022356272,0.279976726,41.27666855,-111.4103622,-101.5611496
460,4140893939,-37.35296631,45.99045181,47.48949432,-8.34981823,-2.087515593,0.521936297,30.91905785,-104.5845413,-96.46124268
461,4140910606,-37.22198486,43.77061844,47.16856003,-8.078656197,-2.170839071,0.841321588,22.71347809,-97.80754852,-90.97388458
462,4140927273,-37.17510223,41.72501755,46.86788177,-7.77810955,-2.212102413,0.937566996,16.34540367,-89.86803436,-84.22148895
463,4140943940,-37.16187286,39.8759079,46.57329178,-7.427982807,-2.349130392,0.797686338,13.63270569,-80.45049286,-77.17456055
464,4140960607,-37.14595413,38.25712967,46.2740593,-7.101184845,-2.458602667,0.814199209,13.56645775,-69.1296463,-69.27669525
465,4140977274,-37.07566071,36.88363647,45.98147964,-7.123840332,-2.467127085,1.108708143,16.23429298,-57.46393967,-60.35363388
466,4140993941,-36.96704865,35.75582123,45.72215271,-7.142241955,-2.285708666,1.33151114,17.05783463,-46.62860489,-50.31393433
467,4141010608,-36.8773613,34.87587738,45.50985718,-7.19466114,-2.146947622,1.584998608,14.0785675,-36.12269974,-39.61132813
468,4141027275,-36.83612442,34.23487473,45.34737015,-7.162041187,-1.996149898,1.706715941,9.355834007,-26.11865425,-29.10997581
469,4141043942,-36.92538452,33.82997513,45.21422958,-7.011313438,-1.860266924,1.7218647,0.486162096,-15.62074566,-19.5290966
470,4141060609,-37.20563507,33.6750679,45.08239746,-6.97841835,-1.783175945,1.733249903,-11.02789593,-3.612962723,-10.53669548
471,4141077276,-37.60674286,33.80144882,44.95422745,-6.991619587,-1.949322581,2.119872332,-18.38219261,9.748540878,-0.191269517
472,4141093943,-37.98987961,34.22615433,44.85752869,-7.316162109,-2.205051661,2.748642921,-18.3064537,22.92699432,12.06941223
473,4141110610,-38.23428345,34.9676857,44.85479355,-8.330113411,-2.435673237,3.229752064,-13.10477924,34.93935394,27.57677269
474,4141127277,-38.32427979,36.03392792,44.99902344,-9.562360764,-2.66645813,2.864499092,-8.924909592,45.70853806,45.34809875
475,4141143944,-38.42507553,37.41435242,45.27219391,-10.27473354,-2.424670219,2.139076948,-14.30618954,56.62981796,61.86471176
476,4141160611,-38.68506622,39.07045746,45.64520645,-10.47512627,-2.204521656,1.937975287,-27.85965157,66.60257721,75.78456879
477,4141177278,-39.17401123,40.8928566,46.00549316,-9.625193596,-2.250783205,2.138556719,-41.57612228,74.50396729,81.66654968
478,4141193945,-39.88118362,42.82135391,46.22745514,-8.973881721,-2.409969807,2.567872047,-49.60987091,82.78968811,81.34012604
479,4141210612,-40.63531494,44.83935165,46.29818344,-9.239887238,-2.858001232,3.016602516,-46.42961884,90.27839661,80.61533356
480,4141227279,-41.15275955,46.94519806,46.31040573,-9.929688454,-3.218619823,3.262988806,-29.76928711,95.02823639,83.12834167
481,4141243946,-41.28752518,49.13825607,46.39985657,-10.63935757,-2.845656395,3.515116453,-10.2298193,96.44927979,89.42673492
482,4141260613,-41.05773926,51.40505219,46.70164108,-11.05902863,-2.550655127,3.581805944,1.757709622,94.58560944,98.26331329
483,4141277280,-40.64891434,53.71707153,47.26004028,-10.45657063,-2.008167028,3.246399164,-0.127976313,91.411026,106.1509781
484,4141293947,-40.33958435,56.06317139,47.99249268,-9.502162933,-1.78354454,2.888669252,-15.39622307,90.42424011,110.6314926
485,4141310614,-40.30356216,58.39922333,48.84435654,-9.011437416,-1.301422238,2.728820324,-38.7730751,88.73591614,111.7922668
486,4141327281,-40.66165543,60.72803116,49.7744751,-8.244792938,-1.488819361,2.633204699,-67.51161957,87.68560791,112.2293549
487,4141343948,-41.28036499,63.04758453,50.72504425,-8.144189835,-2.058953285,2.681379795,-85.29772186,87.21539307,111.5732422
488,4141360615,-41.94988632,65.35012054,51.68780899,-7.886281013,-2.52383709,2.950698853,-90.02126312,86.33448792,110.6014862
489,4141377282,-42.56609726,67.61360168,52.62996674,-7.958250523,-3.048966408,3.274651051,-86.63180542,85.08270264,108.1074524
490,4141393949,-42.8816185,69.82943726,53.61058044,-8.00682354,-3.355214596,3.334346056,-71.57689667,82.90698242,106.0052643
491,4141410616,-42.96092606,71.99697876,54.58653259,-8.060271263,-3.664507627,3.299035311,-57.91852951,81.90737152,102.7422409
492,4141427283,-42.77900696,74.1167984,55.55740738,-8.396683693,-3.600337744,3.420590401,-42.63562012,81.36000824,99.16783142
493,4141443950,-42.51542664,76.167099,56.46562195,-8.961108208,-3.506104708,3.952332973,-34.70142746,80.69306946,93.85264587
494,4141460617,-42.15175629,78.10463715,57.47640991,-9.60576725,-3.3813169,4.320183277,-35.14737701,76.51023865,88.53712463
495,4141477284,-41.15647507,79.93680573,58.7609024,-9.512397766,-4.452260017,4.154929161,-13.80535984,72.03733063,84.32867432
496,4141493951,-39.81682968,81.60272217,60.18264008,-9.624644279,-3.476890802,4.497145176,-1.712994099,66.78223419,75.64204407
497,4141510618,-38.49207306,83.08171082,61.66081238,-9.542728424,-3.061021805,4.425569534,-6.33793354,60.98766327,65.56372833
498,4141527285,-37.43141174,84.3755188,62.9946022,-9.690272331,-3.135381937,4.383923054,-13.84022522,55.46765137,55.04203796
499,4141543952,-36.70195389,85.49915314,64.01576996,-9.860074997,-3.423774958,4.358916283,-15.20702171,50.19432831,45.38311386
500,4141560619,-36.45184326,86.49072266,64.54497528,-10.38393593,-3.479547024,4.535662174,-14.66093445,46.10535049,37.68437576
501,4141577286,-36.3555603,87.37207031,64.90946198,-11.03497887,-3.67292738,4.829738617,-14.08312988,41.52281952,32.7994957
502,4141593953,-35.56541061,88.14987946,65.95801544,-11.59932232,-3.689229727,5.072266102,-13.51769638,36.01873779,29.90779114
503,4141610620,-32.68359375,88.81948853,69.15683746,-11.68645668,-3.596220732,5.111311913,-17.02441025,30.09444618,27.26457024
504,4141627287,-25.18811798,89.36203766,77.06185913,-11.44791889,-3.675512552,4.988010406,-22.69400024,24.43036461,22.82395363
505,4141643954,-8.893321037,89.73606873,93.84088135,-10.83483696,-3.811863899,4.890859604,-27.36935234,18.44273949,14.63560009
506,4141660621,14.75683212,90,117.9554825,-10.16037941,-3.995899916,4.667245865,-28.686409,14.11242867,3.595356941
507,4141677288,-141.9926605,89.78694153,-38.34263611,-10.20079327,-4.427574635,4.649933815,-22.3650322,11.67781925,-7.902542591
508,4141693955,-127.1050262,89.4758606,-23.37806511,-10.83059978,-5.030975342,5.202961445,-2.986335754,8.489378929,-16.47581863
509,4141710622,-112.8347321,89.12687683,-9.592241287,-11.57542038,-5.549440861,5.673768997,30.78673935,1.457216501,-22.35539818
510,4141727289,-97.5017395,88.707901,4.589832783,-12.42229271,-5.59931469,5.717354774,70.84926605,-9.136129379,-27.50719261
511,4141743956,-80.68067932,88.13323975,19.67237854,-13.14984608,-5.166238785,5.461911201,106.1352539,-25.54421043,-33.09775543
512,4141760623,-65.59050751,87.24594116,32.71419525,-12.87941456,-4.179875374,4.430751324,125.0175858,-45.57644653,-40.76091766
513,4141777290,-55.14137268,85.97357941,41.16419983,-12.52028847,-3.127500057,3.146074533,122.2247772,-63.77745819,-50.65044785
514,4141793957,-48.79821014,84.36577606,45.84069824,-13.03133297,-2.633782864,2.393973351,102.3634338,-78.06404877,-60.64777756
515,4141810624,-44.86161041,82.49052429,48.47861862,-13.89961529,-2.762764931,2.160466671,80.28913879,-90.24529266,-68.93057251
516,4141827291,-42.16265488,80.38618469,50.15597153,-14.46335602,-2.696218252,2.072787523,63.71696472,-101.9555893,-75.34616089
517,4141843958,-40.3640976,78.02431488,51.27841187,-13.72497463,-2.477856159,2.02472043,43.05209732,-114.9137115,-83.25990295
518,4141860625,-39.61590195,75.39206696,51.7138443,-12.37933731,-2.480780602,1.716984153,20.74038506,-124.9416733,-96.17311096
519,4141877292,-39.75820923,72.50082397,51.51426697,-11.24462986,-2.83434701,1.357784748,4.23042202,-131.472229,-112.604538
520,4141893959,-40.39370728,69.38334656,50.88209534,-10.62175941,-2.884295464,1.019683838,-1.016136169,-135.2493744,-129.1682739
521,4141910626,-41.29190445,66.1125946,49.99303818,-10.28989792,-3.17328167,0.579026937,-3.270887613,-135.3569641,-142.8824615
522,4141927293,-42.04756165,62.73623657,49.0281105,-10.31692791,-3.556523085,0.668939471,8.130290031,-134.8255463,-152.6067505
523,4141943960,-42.65036774,59.25026703,48.11345291,-10.29401779,-3.219094038,1.119956017,13.05120277,-136.7927094,-159.8173065
524,4141960627,-43.12203217,55.71632385,47.25123596,-10.30273628,-3.271380901,1.283071041,16.54249382,-136.5911102,-163.9259186
525,4141977294,-43.40449905,52.19895935,46.47122574,-10.21248436,-3.423392534,1.205000281,22.10987091,-134.9817657,-163.9505768
526,4141993961,-43.48854065,48.7663269,45.78293228,-9.922873497,-3.293290615,1.205329895,28.03022957,-131.6447601,-159.9804382
527,4142010628,-43.45285797,45.46446991,45.1643219,-9.550896645,-2.997116089,1.092853904,30.55544662,-126.5998535,-153.9136963
528,4142027295,-43.43026352,42.32425308,44.5955658,-8.872281075,-2.889069796,0.65528965,26.25222588,-120.1011734,-146.7234192
529,4142043962,-43.40876007,39.38424301,44.0159111,-8.264117241,-2.794220686,0.332372189,25.28660774,-110.266098,-139.6880493
530,4142060629,-43.39528275,36.69017792,43.44433975,-7.739248276,-2.520309925,0.251717031,23.20614052,-99.10302734,-130.059433
531,4142077296,-43.36082458,34.29245758,42.90797806,-7.260013103,-2.397817373,0.236354977,22.02347374,-86.80291748,-117.240509
532,4142093963,-43.26324463,32.23985672,42.42142487,-6.834607601,-2.304984093,0.254094481,23.15763474,-73.10172272,-101.6658249
533,4142110630,-43.11915207,30.56229401,41.9997406,-6.459374905,-2.051248074,0.495525539,23.13153076,-58.83773804,-84.09464264
534,4142127297,-42.95552826,29.27159882,41.6507225,-6.262406349,-1.877591729,0.824514866,21.57496643,-44.45478058,-65.60466766
535,4142143964,-42.79492188,28.36037445,41.36495209,-6.098930359,-1.737730265,1.13770318,19.2339344,-30.07636642,-47.7367363
536,4142160631,-42.73298645,27.79601479,41.12282181,-5.84586668,-1.529791474,1.295716047,11.90037918,-16.38656235,-31.96160698
537,4142177298,-42.87051392,27.57133484,40.88692474,-5.715334892,-1.502637744,1.280308247,-0.311239481,-1.594168305,-17.9537735
538,4142193965,-43.18718719,27.71203995,40.64978027,-5.775370598,-1.699813604,1.357543111,-11.01619434,14.56013298,-3.084393501
539,4142210632,-43.54667282,28.24711418,40.41516876,-5.993185997,-2.133125067,1.742470026,-13.56188869,31.66866493,13.34586239
540,4142227299,-43.75857544,29.18110275,40.22135162,-6.688206673,-2.593817949,2.657408476,-5.697277546,47.39005661,31.6124382
541,4142243966,-43.65810394,30.50906181,40.13518906,-7.86113596,-3.232065678,2.938681126,10.05592918,60.50154877,52.09350204
542,4142260633,-43.26649475,32.21932983,40.19312668,-9.35737133,-3.297014475,2.542389154,23.18193626,72.25309753,72.98059082
543,4142277300,-42.86850739,34.2810936,40.40446854,-10.57153416,-2.654067039,2.164938688,18.46344185,82.94274139,92.42071533
544,4142293967,-42.69338989,36.61149979,40.77055359,-11.20932961,-2.299169779,2.022780895,-0.635098636,90.28192902,108.2535782
545,4142310634,-42.81689835,39.07226563,41.18697357,-10.37600803,-2.372896671,2.308012009,-21.07284546,94.83039856,114.8249588
546,4142327301,-43.17936325,41.56446075,41.5368309,-9.63690567,-2.623021603,2.893233299,-33.60136032,98.2618866,113.757782
547,4142343968,-43.56579971,44.05450058,41.80018616,-9.621541023,-3.200833797,3.403001308,-32.13570404,100.4540558,111.0769424
548,4142360635,-43.74349213,46.54549408,42.02458954,-10.4187212,-3.520344019,3.395513535,-18.39713669,101.404953,110.0672455
549,4142377302,-43.60118103,49.05044937,42.34037399,-11.16350937,-3.121522903,3.19555974,-3.613786936,99.71289825,113.0290146
550,4142393969,-43.24692154,51.56330872,42.85152817,-11.12510777,-2.358507633,2.996712446,-0.403522491,95.81745911,117.8923721
551,4142410636,-42.95106506,54.08468628,43.56116486,-10.38283062,-1.614552259,2.776452541,-14.19029999,92.63430023,122.1735458
552,4142427303,-42.93188858,56.60042953,44.39712524,-9.485497475,-1.754095674,2.559331656,-38.06197357,90.80763245,123.7254333
553,4142443970,-43.16861343,59.08060455,45.34964371,-8.845582008,-1.524132252,2.470021009,-60.4943161,87.70250702,123.8349228
554,4142460637,-43.71136856,61.52646255,46.34775925,-8.158478737,-1.904241323,2.466336489,-82.45871735,85.86578369,122.4801865
555,4142477304,-44.37482834,63.96316528,47.37154388,-7.77464056,-2.088201046,2.615455389,-92.2483139,85.23991394,121.9128113
556,4142493971,-45.15110779,66.37253571,48.38986588,-8.014642715,-2.603849888,2.828245163,-99.84194183,84.26999664,120.0991669
557,4142510638,-45.84788513,68.77651978,49.44697571,-8.08562088,-3.2012918,3.002547741,-98.24568176,83.5224762,119.952713
558,4142527305,-46.20172882,71.16187286,50.60457993,-8.078087807,-3.842154026,2.889082432,-84.31513214,81.91479492,119.6691742
559,4142543972,-46.14186859,73.5364151,51.83603287,-8.231674194,-4.028078556,2.689868689,-64.65545654,82.14385986,118.4968719
560,4142560639,-45.69338989,75.92182922,53.1697731,-8.961894035,-3.788393974,2.851786852,-48.15515137,84.05040741,117.7204971
561,4142577306,-44.8163147,78.30592346,54.81248856,-9.815148354,-3.657923222,3.491441965,-41.36592484,84.67682648,117.357254
562,4142593973,-43.20341873,80.63661957,57.1263237,-10.23037624,-3.681031942,4.165737629,-37.66151047,82.51945496,115.7273941
563,4142610640,-40.39783859,82.84810638,60.63869858,-10.61189747,-3.861561775,4.550303936,-38.21425629,78.26765442,111.3423462
564,4142627307,-35.40859604,84.86336517,66.30667877,-10.68744659,-4.230605602,4.390592098,-36.82409668,72.50354767,103.3247833
565,4142643974,-25.69688034,86.64217377,76.61910248,-10.87499809,-4.107626438,4.233690739,-32.48089218,67.836586,93.91342926
566,4142660641,-2.769264936,88.02167511,100.084404,-11.307374,-4.406816006,4.691543579,-29.00074196,62.09178162,83.52280426
567,4142677308,45.03905869,88.47736359,148.336319,-12.0719471,-4.626741886,5.504493237,-23.55113602,53.81045532,71.64624023
568,4142693975,79.99669647,87.9160614,-176.2845001,-12.46976471,-4.671676636,5.727015972,-22.50605774,43.12029648,59.39382935
569,4142710642,93.46201324,87.19258118,-162.3276367,-12.40215015,-4.698144913,5.689962864,-27.03000259,32.73733521,45.65104675
570,4142727309,99.1687851,86.66551971,-156.0058289,-11.98964024,-4.776406288,5.592245579,-34.72160339,23.27630043,29.75840759
571,4142743976,102.0327759,86.427742,-152.4817657,-11.44731236,-4.967380524,5.464245319,-37.61310959,14.77730274,12.34167099
572,4142760643,104.2049179,86.48186493,-149.7146454,-11.15863037,-5.375605583,5.237012863,-33.82785797,8.915218353,-4.806174278
573,4142777310,106.6496353,86.75943756,-146.9433441,-11.92309093,-5.951538563,5.525670528,-17.80215645,4.692718983,-17.93603325
574,4142793977,108.6217499,87.1865921,-145.2136078,-12.81191349,-6.454444885,6.143782139,16.13565636,-2.849159718,-25.34087181
575,4142810644,107.9574127,87.75231934,-146.858902,-13.23722744,-6.512428761,6.196819782,60.13135529,-15.08115673,-30.09548378
576,4142827311,98.43630981,88.50406647,-157.9601135,-13.02195644,-5.971284866,5.769320488,95.84233093,-31.67778206,-37.94361115
577,4142843978,46.87694931,89.14134216,148.5577698,-12.66070747,-5.068001747,4.731413841,116.0177841,-50.81293869,-50.76599121
578,4142860645,-14.66076756,88.21589661,85.09631348,-12.59770203,-3.980219126,3.583550692,115.8730698,-68.77393341,-66.26993561
579,4142877312,-29.09317017,86.36837769,69.01269531,-13.47253132,-3.224748611,3.034842014,99.35118866,-85.15632629,-82.26300049
580,4142893979,-34.01156235,84.09067535,62.84946823,-14.48195171,-2.945891619,2.818977356,74.69023132,-100.4514847,-96.78410339
581,4142910646,-36.29582214,81.46652222,59.68534088,-14.90648079,-2.875309467,2.599709988,52.48044586,-115.2257004,-109.3173523
582,4142927313,-37.81867599,78.52794647,57.5586319,-14.1820364,-2.75466609,2.094938993,35.49382782,-127.5987015,-123.0882874
583,4142943980,-39.39595413,75.30500793,55.63935852,-12.64898872,-2.601672173,1.423724294,18.72388268,-135.1187286,-140.1807098
584,4142960647,-41.10470963,71.84129333,53.71175385,-11.60058022,-2.698188066,1.052241683,9.624342918,-137.7694397,-158.3887024
585,4142977314,-42.57313538,68.19147491,51.95602798,-11.0004921,-2.745882511,0.998418391,12.10517406,-139.4450684,-172.0351868
586,4142993981,-43.76749039,64.43521881,50.38361359,-10.63885593,-2.804771423,0.91942513,15.94807339,-138.7675323,-180.9815063
587,4143010648,-44.43640137,60.65108871,49.03948212,-10.58862782,-3.359474421,0.694793582,32.63319397,-137.5138092,-183.8600006
588,4143027315,-44.59843063,56.92261124,47.92775345,-10.23323441,-2.978382349,0.522125006,48.53266525,-135.6423035,-180.6496124
589,4143043982,-44.42670822,53.31430435,46.99263,-9.944620132,-2.731278658,0.470000923,57.54154587,-132.2722626,-173.8234863
590,4143060649,-44.03803635,49.85997772,46.22782898,-9.643335342,-2.353448153,0.657961369,60.49684906,-129.0106659,-164.1793518
591,4143077316,-43.55350113,46.56603622,45.63812256,-9.461733818,-2.058349133,0.903225899,56.69257355,-126.740654,-152.9873352
592,4143093983,-43.06818771,43.42800903,45.2232933,-9.17945385,-1.794966698,0.951698959,47.97463226,-125.3361435,-141.161499
593,4143110650,-42.65670395,40.46089554,44.95605469,-8.744367599,-1.833910584,0.455677927,36.67947388,-122.7896423,-129.0618286
594,4143127317,-42.34989548,37.69793701,44.76860428,-8.177168846,-1.968240738,0.081917942,26.7877655,-116.7320328,-117.6766739
595,4143143984,-42.14974594,35.17042542,44.61748123,-7.707808495,-1.994411349,-0.079894319,18.69756699,-107.7649765,-106.6171799
596,4143160651,-42.02191162,32.91272354,44.48073196,-7.349885464,-2.10327816,0.075050205,13.58232689,-96.38909912,-95.10556793
597,4143177318,-41.90422058,30.96407509,44.35927963,-7.272458076,-2.1349895,0.3183707,12.24748898,-83.21639252,-82.063591
598,4143193985,-41.78082657,29.34650993,44.25943756,-7.246526718,-2.156578064,0.509690464,11.74998951,-69.26390076,-67.90118408
599,4143210652,-41.68185425,28.07821846,44.18288422,-7.132324219,-2.12377286,0.584411502,9.492851257,-54.520298,-52.97713852
600,4143227319,-41.64524078,27.17164803,44.11664963,-7.03191185,-2.114182949,0.686795533,5.394821644,-38.70746231,-38.11888123
601,4143243986,-41.70055389,26.62649727,44.04563904,-6.781326294,-1.976804256,0.622028053,-0.02810364,-22.3157196,-23.92954063
602,4143260653,-41.86474991,26.45950508,43.93715286,-6.603711605,-1.961620569,0.582518101,-5.57384491,-4.001903057,-10.37466621
603,4143277320,-42.06684875,26.67560959,43.78302002,-6.5250597,-2.033899069,0.922820807,-6.613883972,14.76245022,3.153777838
604,4143293987,-42.19100952,27.26941299,43.61756897,-6.599910259,-2.158749342,1.679670095,-1.564597487,31.94890976,17.96042061
605,4143310654,-42.1440506,28.258955,43.52661133,-7.678025723,-2.307661772,2.328763962,6.749589443,46.84053421,36.89180374
606,4143327321,-41.92791748,29.66676331,43.62091064,-9.546125412,-2.369799376,2.443570375,11.62513065,59.01473999,60.84225464
607,4143343988,-41.74084473,31.46582794,43.94574356,-10.52041817,-2.017627716,1.850564003,2.72471714,68.82867432,85.08834839
608,4143360655,-41.84764862,33.60657501,44.44409943,-10.08515263,-1.717734218,1.34353292,-21.06264305,78.55647278,104.9711609
609,4143377322,-42.32670212,35.98057938,44.96691132,-8.76356411,-1.865352273,1.59626615,-45.19837952,88.03651428,115.1534119
610,4143393989,-43.05429459,38.50357819,45.39559555,-8.342512131,-2.265855551,2.376342773,-57.7610321,96.97982025,118.250824
611,4143410656,-43.7522316,41.15379333,45.72505188,-9.011950493,-2.818957806,2.984720945,-53.06098938,104.6941757,120.8484116
612,4143427323,-44.14083862,43.93230057,46.03398514,-10.27534103,-3.249059677,3.056152821,-34.37039185,110.1422882,126.0872726
613,4143443990,-44.00443649,46.86707687,46.46578598,-11.36914825,-3.196392298,2.858962059,-8.779087067,113.4431381,136.1116943
614,4143460657,-43.42215729,49.95520782,47.10991669,-11.56245708,-2.843616247,2.561166525,7.517296791,115.7756729,147.1491852
615,4143477324,-42.67347717,53.15344238,47.96312714,-10.89321327,-2.466341019,2.438866615,6.325044155,118.0724335,154.8111572
616,4143493991,-42.00221634,56.3818512,48.94607544,-10.32522869,-2.215271235,2.556270123,-6.388148785,119.8271484,156.1754303
617,4143510658,-41.60650253,59.55898285,50.01911163,-9.892662048,-1.50072825,2.849586487,-29.32712936,118.8818588,153.1014862
618,4143527325,-41.5941391,62.64784241,51.12121582,-9.425374031,-1.90427196,2.952800274,-55.62240601,116.9157257,147.5260162
619,4143543992,-41.62432861,65.66699219,52.23222733,-9.056712151,-2.520601988,2.988625526,-60.27846909,115.6813202,142.6072845
620,4143560659,-41.6875267,68.61514282,53.31565475,-8.938467979,-2.434072971,3.378939629,-62.16015244,114.9117203,137.0418091
621,4143577326,-41.67259598,71.45973969,54.48721695,-9.552597046,-3.246301889,3.606471777,-63.64886856,111.0414047,132.0331268
622,4143593993,-41.08285904,74.1995163,55.96456146,-9.437815666,-4.142958641,3.502833366,-47.79399109,105.5703659,128.9216461
623,4143610660,-39.8508873,76.8494873,57.79245758,-9.494641304,-3.783535004,3.475353479,-30.791008,102.6752014,124.6814575
624,4143627327,-37.94221878,79.38863373,60.19033813,-9.874304771,-3.657525063,3.702212334,-24.80052948,99.46812439,119.3549652
625,4143643994,-34.78763962,81.79493713,63.75284195,-10.21786308,-3.59397316,4.051916122,-20.15179062,95.01019287,114.3723679
626,4143660661,-29.39127159,84.01247406,69.52722168,-10.54584122,-3.632533789,4.443440437,-18.62235832,89.36851501,107.5282669
627,4143677328,-19.50411034,85.94749451,79.8254776,-10.68473911,-3.666616201,4.509055614,-20.94293213,82.43058014,97.70876312
628,4143693995,1.200715303,87.47540283,101.0258408,-10.6462841,-3.79612875,4.440155506,-26.38408852,76.91387177,86.68151855
629,4143710662,44.0708046,88.15242004,144.3898315,-11.1463728,-4.154294491,4.719749928,-26.48183823,71.68704987,75.64673615
630,4143727329,83.97915649,87.62480164,-175.2756805,-11.94225121,-4.320965767,5.187661648,-22.63941383,65.04985809,65.7045517
631,4143743996,101.84832,86.62850189,-157.0567932,-12.61043358,-4.344421387,5.462601185,-18.28422737,57.04726028,56.9016304
632,4143760663,109.6992416,85.64148712,-148.8717194,-12.76652336,-4.308732986,5.701550007,-17.59427452,47.43804932,48.5915184
633,4143777330,113.6532974,84.83297729,-144.5431213,-12.23595047,-4.466971874,5.768261433,-20.2544632,37.49496078,37.82731628
634,4143793997,116.1232147,84.27735138,-141.6660004,-11.4241333,-4.630196095,5.735733032,-22.31008148,28.45221901,24.10343742
635,4143810664,118.2363129,83.99972534,-139.1586456,-10.81843662,-4.817774773,5.588016987,-21.55892181,20.84598351,8.560132027
636,4143827331,120.6614532,83.96685028,-136.4895935,-11.09792137,-5.244554043,5.611365795,-12.45640755,15.16803551,-5.763748646
637,4143843998,123.2558365,84.11410522,-134.0802765,-11.91655731,-5.77899313,6.321757793,13.16715145,7.650986671,-14.65537453
638,4143860665,125.4453049,84.44606781,-132.7097168,-12.20520687,-6.103434086,6.670947552,50.79693604,-4.877318382,-20.29003906
639,4143877332,126.9113541,85.04172516,-132.6613312,-11.88609886,-5.815059185,6.360024452,86.30498505,-21.27276039,-28.21279716
640,4143893999,127.2125778,85.99571991,-134.1713562,-11.75035095,-5.239578724,5.585727215,109.6353226,-40.5285759,-40.60802078
641,4143910666,124.3912277,87.3502655,-138.958786,-11.93388271,-4.25544548,4.77948904,118.7145233,-61.39836884,-55.30467224
642,4143927333,101.6220551,89.01364899,-163.54216,-12.54487038,-3.319557905,4.077982903,109.5625534,-81.23812866,-70.74542999
643,4143944000,-17.56746483,88.48949432,75.87101746,-13.87207508,-2.942255259,3.76467514,84.18367767,-99.13331604,-85.50867462
644,4143960667,-31.42063904,86.01076508,61.11504364,-15.32021904,-3.035576582,3.7287817,54.59119415,-116.9906235,-98.88028717
645,4143977334,-34.90335846,83.09135437,57.27989197,-15.23133945,-2.876748323,3.16781497,21.36339951,-134.9856873,-113.2388611
646,4143994001,-37.33852005,79.7963562,54.9931488,-13.99625397,-3.0610497,2.340053558,-9.177276611,-148.0166016,-132.1878967
647,4144010668,-39.77441025,76.17108917,53.00364304,-12.92193508,-3.20056653,1.649700522,-28.13858414,-154.9709625,-154.1601105
648,4144027335,-42.0997963,72.27445984,51.14517212,-12.26135731,-3.481788874,1.260613084,-30.94092178,-157.1248474,-175.241684
649,4144044002,-44.04729843,68.19741821,49.51428986,-11.89592171,-2.985754013,1.069755554,-23.50069427,-156.4889069,-190.3843994
650,4144060669,-45.42367935,64.06866455,48.22356796,-11.64133644,-3.935840845,0.829102516,-10.49799538,-154.3241119,-195.7674103
651,4144077336,-46.07725143,59.95652771,47.22105789,-11.47723198,-3.874186039,0.644327044,15.14996719,-152.3629456,-195.5866699
652,4144094003,-46.19093704,55.93832397,46.38737869,-11.07297039,-3.691749573,0.451959014,36.81153488,-148.3621826,-191.371582
653,4144110670,-45.89036942,52.05571365,45.70170212,-10.7261076,-3.27540803,0.366508871,52.56360626,-144.7294922,-183.6431122
654,4144127337,-45.3510704,48.33830643,45.11736679,-10.39704418,-2.885320425,0.230813503,60.53072357,-140.4051056,-174.2774658
655,4144144004,-44.68777084,44.8102684,44.60774612,-10.07732487,-2.590538979,0.068268061,63.26392365,-135.2047577,-163.7684326
656,4144160671,-44.01626587,41.48097229,44.13316727,-9.902911186,-2.229840994,-0.089917406,61.0309639,-128.7595367,-153.6849823
657,4144177338,-43.395401,38.3722496,43.6903038,-9.469929695,-2.040339708,-0.262630045,55.58202744,-121.2071838,-142.7979889
658,4144194005,-42.84142303,35.52379608,43.27388763,-9.110800743,-1.92266798,-0.479892224,49.55068207,-111.548996,-130.5945587
659,4144210672,-42.3424263,32.99466705,42.90114975,-8.859938622,-1.857661366,-0.551221788,43.83189774,-99.65195465,-115.5200729
660,4144227339,-41.90793991,30.83411407,42.59112549,-8.707941055,-1.75305593,-0.634637117,37.21588135,-85.99842834,-97.8862915
661,4144244006,-41.55740738,29.08008003,42.34595108,-8.769189835,-1.817674994,-0.562312126,29.70102692,-70.49369812,-78.80579376
662,4144260673,-41.3107338,27.75040245,42.15955353,-8.812602043,-1.777062058,-0.363057166,21.4516983,-53.74360275,-59.41607666
663,4144277340,-41.18603897,26.83322906,42.01866913,-8.429513931,-1.748587728,-0.041256752,12.69420624,-36.86170578,-41.19050598
664,4144294007,-41.16410446,26.29602432,41.87614059,-7.681476116,-1.746719956,0.129474923,6.481255531,-19.66328812,-26.24755859
665,4144310674,-41.17353439,26.11262894,41.6954689,-7.117037773,-1.72194159,0.382785708,5.565452099,-2.317150831,-13.8433485
666,4144327341,-41.12651443,26.28884888,41.4907341,-6.954748154,-1.669131875,0.679496765,9.596196175,14.78073788,-0.629394293
667,4144344008,-40.99031067,26.8735981,41.31972885,-8.029047012,-1.592515826,0.797682405,14.11606026,32.0478096,16.8331852
668,4144360675,-40.84605026,27.88572502,41.27917099,-9.192967415,-1.391739607,0.775523126,11.13068581,46.86974335,38.84188461
669,4144377342,-40.93120956,29.31866837,41.39109039,-9.556793213,-1.05611074,0.63855511,-6.960634232,60.70394897,61.42893219
670,4144394009,-41.41862488,31.11165619,41.61983109,-8.897016525,-0.856743753,0.817842185,-34.77862167,72.73616028,80.43492889
671,4144410676,-42.37839508,33.18644714,41.85487366,-8.060344696,-1.267596245,1.408760309,-63.70590591,84.2579422,92.69837952
672,4144427343,-43.58572006,35.50154114,42.01184082,-8.031873703,-1.987003088,2.124563932,-76.36114502,95.88806152,101.0652008
673,4144444010,-44.67462158,38.04800034,42.14570999,-8.725995064,-2.445380688,2.391841173,-68.74308777,104.7596359,111.6720276
674,4144460677,-45.26703262,40.86628342,42.34170151,-9.637734413,-2.518522501,2.269781351,-41.62171173,112.7827301,126.6057663
675,4144477344,-45.22462463,43.93980789,42.70379639,-10.30206966,-2.670845747,2.337052822,-10.71194839,118.0127029,142.9223175
676,4144494011,-44.60326767,47.20874405,43.30028915,-10.20285034,-2.602718115,2.618005991,13.1082468,120.7698517,156.8931427
677,4144510678,-43.76826096,50.61203384,44.146492,-9.689330101,-1.795844913,2.862155676,13.22378254,122.7249908,166.9200592
678,4144527345,-43.14381409,54.08141708,45.18840408,-9.285429955,-1.181161165,2.862346172,-10.62898445,124.3916626,171.5635834
679,4144544012,-42.92676926,57.5835228,46.35749817,-9.088607788,-1.094228506,2.790591478,-43.6167984,126.24617,172.8706207
680,4144560679,-42.98928452,61.11813736,47.66711044,-9.242843628,-1.369915485,2.869065285,-69.942276,127.4507446,174.5129547
681,4144577346,-43.03287888,64.69637299,49.19248199,-9.455052376,-1.800865769,3.453768015,-82.68566132,128.0917511,177.6103058
682,4144594013,-42.80688477,68.27760315,51.06890106,-10.09941101,-2.549076557,4.05002737,-88.27437592,126.2931366,179.8925018
683,4144610680,-41.746521,71.79998016,53.56313324,-10.15949059,-3.625169992,4.189671993,-75.66927338,121.5113068,180.6417389
684,4144627347,-39.35238266,75.23596954,57.01626205,-10.45850086,-3.920269251,3.981349707,-53.69105148,117.9041748,179.3315582
685,4144644014,-35.0380249,78.51770782,62.11984634,-10.8139658,-4.041001797,3.684718609,-38.05902481,114.2155228,174.999054
686,4144660681,-27.39124489,81.52923584,70.36519623,-11.38933468,-4.230774403,4.067565441,-27.22737122,109.2835464,167.3664856
687,4144677348,-13.32659531,84.04833221,84.96476746,-12.0114212,-4.318156719,4.797916889,-24.06175232,101.9305725,155.7065887
688,4144694015,11.51841831,85.66266632,110.50103,-12.1311636,-4.061434746,5.436738014,-34.25118256,91.84467316,138.4756927
689,4144710682,42.91776657,85.98633575,142.9217682,-11.97123623,-4.45472002,6.120451927,-55.00407028,80.05941772,116.4960785
690,4144727349,65.60618591,85.39963531,166.8276215,-12.0277853,-5.454809666,6.481734753,-67.75474548,66.23360443,91.17362976
691,4144744016,77.82331085,84.63516998,-179.793869,-11.95983219,-6.107751846,6.616612434,-65.34546661,51.30842972,65.82597351
692,4144760683,84.25351715,84.04438019,-172.4225159,-11.78974247,-6.357445717,6.428224564,-52.98955917,37.10472488,42.48689651
693,4144777350,87.52810669,83.72777557,-168.4504852,-11.41933537,-6.284257412,6.086168289,-39.16246796,23.51358986,21.52383614
694,4144794017,88.7258606,83.70901489,-166.7001648,-10.89847851,-5.930243969,5.781215191,-31.22061729,11.01454639,2.268429518
695,4144810684,88.23095703,83.9821701,-166.6212921,-10.29345989,-5.755614758,5.468978405,-33.09810638,0.515432358,-15.59178352
696,4144827351,86.52098846,84.49829102,-167.7196503,-10.04550457,-5.995005131,5.152564049,-35.75092316,-5.611600399,-30.45899391
697,4144844018,83.86577606,85.1438446,-169.9420624,-10.52459621,-6.552422047,5.464794159,-25.23360825,-9.167901039,-38.80802536
698,4144860685,80.0635376,85.81829834,-173.8827057,-11.66539574,-7.528379917,5.997696877,8.837825775,-13.20469952,-41.85207748
699,4144877352,73.47566986,86.42144012,178.4423828,-13.48533058,-8.242526054,6.401171207,65.42059326,-22.46170807,-41.47120667
700,4144894019,59.97401428,86.87638855,163.0245361,-13.75030422,-7.387655735,5.747281075,114.6424866,-39.25274277,-45.33889771
701,4144910686,36.58958054,87.00003815,137.337326,-13.21449757,-6.160717487,4.117425919,137.2310181,-56.52925491,-58.93218613
702,4144927353,9.557016373,86.40452576,107.9260635,-13.68811798,-5.107937336,2.907641888,141.1323395,-71.54521179,-78.02976227
703,4144944020,-10.11391258,84.94739532,85.98618317,-15.27649212,-4.086643219,2.493236303,133.7806396,-85.74410248,-98.25946045
704,4144960687,-21.49149132,82.76609039,72.65547943,-16.32546616,-3.045840025,2.348773479,113.9567642,-102.2270889,-116.7632599
705,4144977354,-28.15360641,80.03016663,64.5500946,-15.78765774,-2.195500612,1.959891558,82.46880341,-118.5095367,-133.8898163
706,4144994021,-32.59630203,76.88261414,59.18138885,-14.6932478,-2.15431881,1.527500272,50.35843658,-130.5714874,-150.1602173
707,4145010688,-35.90278625,73.42651367,55.26547623,-13.58055115,-2.300770521,1.242220521,30.03561974,-137.838913,-165.5605164
708,4145027355,-38.44365311,69.74608612,52.21016312,-12.67475033,-2.498812437,1.017945647,22.77464294,-141.3242493,-178.686264
709,4145044022,-40.47940445,65.91405487,49.76942062,-11.91696835,-1.983953714,1.213694334,14.77497005,-142.767807,-187.929306
710,4145060689,-41.94636917,62.01319885,47.82566452,-11.38307571,-3.068117142,1.008117676,18.06278038,-142.7405853,-191.8651886
711,4145077356,-42.81761551,58.11273193,46.25379944,-10.97639751,-3.011710167,0.770136356,30.71951103,-141.5598602,-191.6660309
712,4145094023,-43.22732544,54.27054596,44.91445541,-10.69999504,-2.933321714,0.43714717,43.45745087,-138.4551697,-189.1366119
713,4145110690,-43.23715973,50.5401001,43.77944183,-10.38097858,-2.641830921,0.310341239,54.63765335,-135.0496216,-182.7476349
714,4145127357,-42.97689438,46.96196365,42.80660629,-10.07052612,-2.269042492,0.193545431,60.76586533,-130.8793182,-173.974823
715,4145144024,-42.56296921,43.56810379,41.96143723,-9.805336952,-2.00003314,0.10506501,62.13437653,-125.6858902,-163.6591644
716,4145160691,-42.10843277,40.37770081,41.21568298,-9.487205505,-1.7636801,0.031494424,58.47937012,-119.5427094,-152.6940002
717,4145177358,-41.66145706,37.43571472,40.55142212,-9.005027771,-1.616704702,-0.111687705,53.14221573,-111.1530762,-140.1339417
718,4145194025,-41.24603653,34.79566193,39.95983505,-8.653951645,-1.508803606,-0.234568715,47.14723206,-100.1837234,-125.5600281
719,4145210692,-40.87672424,32.49843216,39.44869232,-8.539825439,-1.397271514,-0.163555488,40.46496201,-87.59780884,-109.0051193
720,4145227359,-40.56383133,30.57055473,39.03817368,-8.430544853,-1.424605489,-0.045020998,32.97383499,-74.41439819,-90.5949707
721,4145244026,-40.28034973,29.02766991,38.71451569,-8.382374763,-1.444045544,0.095572203,27.98346138,-59.99065781,-72.08969879
722,4145260693,-40.08919907,27.85955811,38.45301819,-8.15285778,-1.314577579,0.213314682,20.27371407,-45.08101654,-55.01028442
723,4145277360,-40.01964188,27.04851151,38.22158051,-7.574458122,-1.307090282,0.328662097,11.91270447,-29.75601387,-40.00271606
724,4145294027,-39.97885132,26.57721901,37.98607254,-7.039819717,-1.345119119,0.507979751,10.16193962,-13.99355316,-27.10248566
725,4145310694,-39.88592529,26.43421936,37.72224426,-6.668985844,-1.441465378,0.699275851,13.98428059,2.076341391,-15.64285088
726,4145327361,-39.66525269,26.63725281,37.44145966,-7.009145737,-1.398837805,0.891321957,22.11411476,18.56953812,-3.071727276
727,4145344028,-39.33198547,27.24568558,37.22245789,-8.303681374,-1.001471162,0.835960448,27.30086327,35.18322372,14.8922987
728,4145360695,-39.03694534,28.34129333,37.15599442,-9.903887749,-0.709689677,0.50376159,20.91729355,52.74715042,39.50157547
729,4145377362,-38.84440231,29.9549942,37.31992722,-10.5984602,-0.692255616,0.199670583,8.125159264,69.47444153,68.22346497
730,4145394029,-38.82696915,32.04282379,37.69999313,-9.428314209,-0.496846229,0.402685255,-9.330079079,84.88208008,94.46388245
731,4145410696,-39.27421951,34.52109909,38.11433411,-8.604038239,-0.542126298,1.098729968,-39.09442139,101.9458694,110.4934464
732,4145427363,-40.12641144,37.3184967,38.48487473,-8.789775848,-1.225177169,1.977257729,-62.77971268,117.2015152,121.7373199
733,4145444030,-41.01570129,40.39996719,38.83034897,-9.593734741,-2.066358089,2.540899038,-64.9648056,129.5012817,133.183075
734,4145460697,-41.54069138,43.72180939,39.23401642,-10.63803291,-2.471218109,2.815939665,-46.3156662,137.4857025,145.667038
735,4145477364,-41.47301483,47.24932098,39.83570099,-11.23434162,-2.255884886,2.906260967,-20.29052162,141.2767792,159.8878937
736,4145494031,-40.88066864,50.93200302,40.72558975,-10.95106411,-2.010877371,2.761297703,-3.409800529,142.8449402,172.4531555
737,4145510698,-39.91826248,54.69947052,41.94287491,-10.23995495,-1.871570706,2.429642677,0.936460376,143.0703735,180.7863007
738,4145527365,-38.77842331,58.47821426,43.49471283,-9.499180794,-1.589583874,2.153578758,-7.944304943,142.3485107,184.058609
739,4145544032,-37.69174576,62.212883,45.35381699,-9.118645668,-1.139417887,2.110476494,-30.35421562,141.3654633,182.6942749
740,4145560699,-36.76316452,65.88085938,47.51323318,-9.232304573,-1.009164572,2.35934639,-59.395504,140.4363708,178.954483
741,4145577366,-35.79931641,69.46300507,50.09303284,-9.751513481,-1.32809031,3.094514132,-83.9743576,137.9479218,175.2503052
742,4145594033,-34.32757187,72.90937805,53.41659164,-10.33195877,-2.326239109,3.790338993,-99.07886505,131.7740936,172.0757141
743,4145610700,-31.58134651,76.16970062,57.99045944,-11.06885624,-3.449374199,4.106688023,-98.4016571,123.7560654,168.4079285
744,4145627367,-26.37862778,79.17259979,64.7818985,-11.55818272,-4.198905468,3.847893,-84.63350677,114.7347641,163.9285889
745,4145644034,-16.88909912,81.82320404,75.54501343,-11.7322731,-4.453212261,3.532368898,-66.3431778,107.464035,158.0550842
746,4145660701,-0.209085912,83.90670776,93.21165466,-11.83480167,-4.450427532,3.719392061,-49.88288879,102.1845093,148.7838287
747,4145677368,25.26407051,85.02973175,119.5206909,-12.05102539,-4.250335693,4.660950184,-41.71416473,96.30780029,133.753067
748,4145694035,52.02597046,84.98382568,147.118454,-12.16537571,-4.444696903,5.673846722,-42.71859741,86.58094025,113.8981323
749,4145710702,70.63012695,84.23925018,166.6144867,-11.95572281,-4.671395302,6.171508312,-47.09440231,74.33395386,91.8208847
750,4145727369,81.60592651,83.37197113,178.5082703,-11.8772068,-5.00508213,6.136196613,-49.59950638,61.74166489,69.44392395
751,4145744036,88.08554077,82.65650177,-174.1450653,-11.68534851,-5.28477335,6.23921442,-47.42885971,49.05747604,48.22756958
752,4145760703,91.95635223,82.18943024,-169.5520172,-11.51040554,-5.447588921,6.600502491,-39.59910583,35.89204407,28.75382042
753,4145777370,94.05981445,82.00537109,-166.845108,-11.09352112,-5.320016384,6.557012558,-33.34994507,22.43980789,10.62591553
754,4145794037,94.8963623,82.10691071,-165.4635315,-10.57641125,-5.173979759,6.332187176,-30.61403465,10.51275921,-6.201952934
755,4145810704,94.83995819,82.4728775,-165.0066833,-10.69820404,-5.31571722,6.190813541,-29.25614929,1.375901341,-21.4104557
756,4145827371,93.9956131,83.03505707,-165.5159149,-11.88835621,-5.693460941,6.564230919,-19.08000374,-6.860684872,-32.55176163
757,4145844038,91.86999512,83.72558594,-167.7698975,-12.72912598,-6.200571537,6.937677383,8.065188408,-18.10051155,-39.78360367
758,4145860705,87.47555542,84.5141983,-173.0011444,-13.05111408,-6.436584473,6.822882652,49.82423401,-32.28238678,-46.64445496
759,4145877372,78.51319122,85.37153625,176.5460205,-13.15709114,-6.020305157,5.99124527,88.2485199,-48.95214081,-56.78046799
760,4145894039,60.73389435,86.10600281,156.8305359,-13.66492939,-5.084359646,5.028240204,114.2011795,-67.27615356,-70.35387421
761,4145910706,32.22699356,86.1625824,126.2799377,-14.3346262,-3.800506353,4.122069359,119.8399887,-86.70597839,-85.66490936
762,4145927373,5.379867554,85.02993011,97.65055084,-15.27606297,-2.705031395,3.42988348,103.3477631,-104.8162689,-101.537117
763,4145944040,-11.08786774,82.90283966,79.89602661,-16.25255394,-2.048611641,3.063993931,72.78585815,-120.7851105,-116.864006
764,4145960707,-20.63872147,80.12438965,69.63699341,-16.19751549,-1.732464194,2.722299099,37.16644669,-135.3154297,-131.8370361
765,4145977374,-26.74621773,76.88826752,63.26851273,-15.07231236,-2.090450287,2.501709461,9.377961159,-147.346405,-146.7720795
766,4145994041,-31.09145927,73.32765198,58.82440567,-13.65209579,-2.466433287,2.049356699,-1.662039399,-154.1316681,-162.3836365
767,4146010708,-34.43863297,69.54488373,55.34956741,-12.7661047,-2.841283798,1.45530045,-1.861966968,-155.2634888,-177.7582245
768,4146027375,-36.95342255,65.62194824,52.5007019,-12.30675411,-2.605446815,1.236496091,8.46646595,-153.4797668,-189.4116516
769,4146044042,-38.7380867,61.64223862,50.18594742,-11.80631351,-2.978972912,1.125516415,18.65377998,-151.1014862,-194.3496246
770,4146060709,-39.69258499,57.65896988,48.31983948,-11.46277905,-3.033085108,1.050316334,40.65422058,-149.8012085,-194.0940857
771,4146077376,-40.01931,53.74582291,46.73856735,-11.06850243,-2.933149338,0.722497702,60.05608368,-146.3920441,-190.6717529
772,4146094043,-39.86047363,49.95142746,45.39108276,-10.77222443,-2.416151285,0.507655382,74.38660431,-142.9147797,-183.6255951
773,4146110710,-39.430336,46.31378174,44.23814774,-10.27632236,-1.952644706,0.419368625,78.60050964,-139.0349121,-173.9891663
774,4146127377,-38.89023972,42.858078,43.24119568,-9.698267937,-1.665909529,0.250089765,75.66886139,-134.3080139,-163.1510773
775,4146144044,-38.32024384,39.61454773,42.36399078,-9.168514252,-1.638078809,0.053486794,70.18935394,-127.819191,-151.561554
776,4146160711,-37.74933243,36.60263824,41.5731163,-8.586470604,-1.481708884,-0.092992529,64.84921265,-119.765213,-139.9698944
777,4146177378,-37.24260712,33.84619904,40.84883499,-8.041344643,-1.316656113,-0.200950205,56.77754211,-110.0478058,-128.0503998
778,4146194045,-36.8320694,31.38394737,40.19646454,-7.676413059,-1.297586203,-0.211234391,47.04872131,-98.50644684,-114.5342865
779,4146210712,-36.55768585,29.24012947,39.62874603,-7.545697689,-1.235060215,-0.105042867,34.97794724,-86.00842285,-99.6762619
780,4146227379,-36.43072891,27.45416069,39.1665802,-7.361473083,-1.294380784,-0.019353159,22.11397743,-72.07131195,-82.59444427
781,4146244046,-36.37973404,26.0676403,38.80846786,-7.316007137,-1.434990287,0.07731387,14.06906605,-56.00862503,-64.07112122
782,4146260713,-36.40594864,25.08457947,38.54068756,-7.03965807,-1.405333996,0.249699235,6.702219486,-39.32271576,-45.92306519
783,4146277380,-36.54458237,24.50027847,38.32204056,-6.661052704,-1.426311493,0.357815206,-1.473678231,-21.54983711,-29.6907959
784,4146294047,-36.7394104,24.30464935,38.11724472,-6.292477131,-1.430339456,0.54780972,-5.268773556,-3.182374001,-15.25945091
785,4146310714,-36.90805054,24.50084686,37.91530228,-5.990697861,-1.447623134,0.73348099,-3.763545752,15.59843636,-1.063926816
786,4146327381,-36.96325302,25.12126541,37.71965027,-6.072552681,-1.539743662,0.861495495,2.963398695,35.71699905,14.56258011
787,4146344048,-36.86816788,26.2001133,37.56980133,-7.225356579,-1.515231133,1.129370809,10.95137882,56.18297958,33.10441208
788,4146360715,-36.67346954,27.75254059,37.54684448,-8.764847755,-1.294833541,1.383471608,13.66545486,74.90843964,55.47106934
789,4146377382,-36.48284912,29.76402473,37.7232666,-9.790976524,-1.046198845,1.518918514,7.705366135,90.94655609,80.06523895
790,4146394049,-36.45465088,32.1664772,38.08203125,-9.610472679,-0.856325746,1.465971828,-8.017149925,104.5029755,101.2073746
791,4146410716,-36.71252823,34.90218735,38.51821899,-8.968774796,-0.885038793,1.589030504,-28.5517807,118.3570328,116.0220642
792,4146427383,-37.23806,37.94091415,38.95533371,-9.129366875,-1.13579011,2.0128088,-45.71859741,132.513916,127.2006073
793,4146444050,-37.81870651,41.24701691,39.41343689,-9.954601288,-1.605186701,2.533848286,-50.9574585,143.966568,138.2990875
794,4146460717,-38.16928864,44.77363968,39.945961,-11.02422237,-2.036002874,2.883719683,-41.43035126,151.9199219,149.3377838
795,4146477384,-38.01867676,48.46915817,40.66733551,-11.83722115,-2.208772182,3.198701382,-21.02555847,155.7061462,160.8581238
796,4146494051,-37.32030487,52.2385788,41.67088318,-11.74146461,-2.143840551,3.535040379,-3.080979586,155.0746155,169.2924194
797,4146510718,-36.19423294,55.96985245,42.99889755,-11.03153515,-2.082089901,3.535191774,4.3885355,150.9306183,172.0708771
798,4146527385,-34.79215622,59.57779312,44.64840317,-10.2120657,-1.911468267,3.243632078,1.782252192,145.1254272,169.3220215
799,4146544052,-33.31840897,63.01749039,46.57137299,-9.70072937,-1.511786819,2.787751913,-11.401577,139.4622803,162.1481171
800,4146560719,-31.89084435,66.27804565,48.7513237,-9.62246418,-1.094852567,2.505237103,-31.17686272,134.1179199,153.2652893
801,4146577386,-30.44582558,69.37924194,51.2519722,-9.861146927,-0.794251978,2.724455357,-50.86263657,129.3935242,145.4176636
802,4146594053,-28.9725914,72.31668091,54.20060349,-10.67967701,-0.988814652,3.456804037,-77.35651398,123.7891922,138.4304504
803,4146610720,-27.02518082,75.04532623,57.93975067,-11.28145218,-2.144528389,3.999350786,-97.09535217,114.4133453,133.1759033
804,4146627387,-24.08210182,77.56011963,62.84704971,-11.3851738,-2.859509468,3.893778563,-108.1198654,105.4625244,128.6213684
805,4146644054,-19.50323677,79.86026764,69.42399597,-11.41754913,-3.561294794,3.796923637,-110.9147949,98.79469299,123.5635757
806,4146660721,-12.20187473,81.8918457,78.6229248,-11.48418713,-3.975516558,4.174820423,-105.5710144,92.52262115,118.0184174
807,4146677388,-0.736565113,83.53031158,91.73309326,-11.37395382,-4.388190269,4.74570322,-91.0650177,85.3504715,110.6847
808,4146694055,15.76491547,84.60398865,109.5357132,-10.98744678,-4.604631901,5.136864662,-71.07626343,77.02227783,101.4314117
809,4146710722,35.14426041,85.03308105,129.9187164,-10.49576855,-4.544298172,5.273790359,-53.95937347,69.63485718,89.05142975
810,4146727389,52.8217392,84.93125153,148.3765564,-10.5438118,-4.498678207,5.437591076,-41.27997208,62.17366791,74.33689117
811,4146744056,66.09165955,84.5296936,162.2619629,-11.10569954,-4.393023491,5.548810959,-32.10100555,53.12963104,60.13586044
812,4146760723,74.98284149,84.03583527,171.7167511,-11.74728203,-4.140403748,5.595108509,-29.67057037,42.9323082,47.4089241
813,4146777390,80.3835907,83.58252716,177.786026,-11.99431133,-3.951200485,5.601199627,-36.6617775,32.10976028,35.6722908
814,4146794057,83.17975616,83.25875854,-178.5799408,-11.75507164,-4.206279278,5.613358021,-47.53131104,21.5093708,23.5486412
815,4146810724,84.04935455,83.13710785,-176.7474365,-11.12427902,-4.474372387,5.559339523,-55.6932869,11.69490147,9.477750778
816,4146827391,83.60448456,83.26437378,-176.1657257,-10.6785965,-4.808806896,5.39447546,-60.04695129,4.501746178,-6.371555328
817,4146844058,82.36552429,83.61119843,-176.5226135,-10.90672874,-5.384711742,5.523141384,-51.77936554,-0.311191261,-20.17185211
818,4146860725,80.40859222,84.09611511,-178.0786133,-10.86178112,-5.912806511,5.925931454,-23.31968117,-5.944488525,-29.47388268
819,4146877392,77.44260406,84.67189026,178.628006,-10.75570869,-6.49044466,5.911345005,19.94805908,-12.75417995,-36.8058815
820,4146894059,72.62423706,85.28715515,172.5586853,-11.39899063,-6.759993553,5.563566685,74.91995239,-21.66337776,-43.03500748
821,4146910726,63.7959137,85.84933472,161.6940765,-12.47086143,-6.150649548,5.200376987,121.4791794,-34.64761353,-49.03953934
822,4146927393,48.45671463,86.16912079,143.8730469,-12.98858452,-5.119805813,4.462905884,147.5702972,-51.37469101,-56.25164032
823,4146944060,28.02717018,85.97503662,120.9634476,-13.66689014,-3.929033279,3.680770636,146.8664551,-67.25997162,-65.59603119
824,4146960727,8.803004265,85.07096863,99.61444092,-14.92847633,-3.179296017,3.365371227,124.9098206,-82.37827301,-76.67384338
825,4146977394,-5.196446896,83.45719147,84.02469635,-15.71926498,-2.538012981,3.396679163,92.08790588,-99.21691895,-89.32097626
826,4146994061,-14.83958721,81.23178101,73.40843964,-14.93459988,-2.183608294,3.2383883,54.065979,-116.5828857,-105.7552948
827,4147010728,-21.80809784,78.49593353,65.92901611,-13.51299953,-2.592766523,2.807855844,25.0007515,-131.0813293,-125.5977783
828,4147027395,-27.19420052,75.34281921,60.26603317,-12.4299202,-2.907029867,2.159491301,9.154783249,-140.4582214,-147.4871216
829,4147044062,-31.41510963,71.85286713,55.73825836,-12.0615921,-3.254525423,1.447268724,8.719895363,-145.3220673,-168.4687805
830,4147060729,-34.52798462,68.10923004,52.14057541,-11.80156803,-3.232475519,1.050092697,17.38512993,-148.5466766,-183.3385468
831,4147077396,-36.79012299,64.23436737,49.22986984,-11.54962158,-2.693711042,0.934229255,25.33698082,-148.131012,-191.9790802
832,4147094063,-38.33916473,60.30857849,46.84705734,-11.46447659,-3.184923649,0.732288837,34.91598129,-146.5387878,-195.4713745
833,4147110730,-39.15712738,56.41640091,44.96251297,-11.36410522,-2.771900654,0.772746444,48.48729324,-145.4101563,-191.5793915
834,4147127397,-39.47186279,52.63218689,43.41560745,-10.9261198,-2.574305296,0.653134346,57.9824791,-141.9548492,-184.6901093
835,4147144064,-39.46376801,48.99932861,42.12111282,-10.61652756,-2.291532755,0.601769149,61.96511078,-137.5057068,-175.6034241
836,4147160731,-39.24185562,45.54748917,41.02539063,-10.16760445,-2.115573406,0.531769514,62.90659714,-132.2897797,-165.0067139
837,4147177398,-38.91020966,42.29593658,40.06981659,-9.820502281,-2.027029514,0.322046369,60.96402359,-125.8550491,-154.2269897
838,4147194065,-38.49884415,39.2834816,39.22535324,-9.458099365,-2.053979397,0.013842672,59.08198547,-117.5025864,-142.1556702
839,4147210732,-38.0687294,36.55667877,38.47013092,-9.308750153,-1.849695325,-0.181802601,54.97441101,-106.7093735,-128.6387177
840,4147227399,-37.66082382,34.16679764,37.80524063,-9.342505455,-1.733188629,-0.267945349,48.87396622,-93.67915344,-112.9102249
841,4147244066,-37.32138443,32.15327454,37.23943329,-9.387410164,-1.604312539,-0.197787642,40.26625824,-78.99783325,-95.31414032
842,4147260733,-37.06449509,30.54012489,36.75761795,-9.512264252,-1.588106394,-0.051282451,31.78089142,-62.62260437,-77.41213989
843,4147277400,-36.90130997,29.3143692,36.34314346,-9.241881371,-1.513007641,0.264411598,23.5388031,-46.22640991,-60.71071243
844,4147294067,-36.82387161,28.45492554,35.96151352,-8.273141861,-1.33368361,0.594956815,17.05572701,-29.66909599,-46.24569702
845,4147310734,-36.79356766,27.94142151,35.56708908,-7.4640975,-1.410369873,0.942534447,14.35041904,-12.61419678,-34.43203354
846,4147327401,-36.67720032,27.7753582,35.15562439,-7.194185257,-1.621495962,1.147758245,19.86997032,4.626802444,-22.73007965
847,4147344068,-36.35800934,27.97321701,34.77031708,-7.91903019,-1.613550067,1.300443053,31.31850433,21.26053429,-8.650152206
848,4147360735,-35.852211,28.54055977,34.51180267,-8.822727203,-1.163647294,1.22725296,39.05386734,35.11152267,9.722793579
849,4147377402,-35.3482666,29.49197578,34.42963409,-9.191131592,-0.657973409,1.03832984,33.98947525,48.47861481,30.42178535
850,4147394069,-35.02456665,30.80313492,34.53041077,-8.938954353,-0.412370265,0.91840905,17.75361443,60.83542252,50.29280472
851,4147410736,-35.01736069,32.42208862,34.7454071,-8.317592621,-0.292929024,0.919307053,-4.953496933,72.79810333,65.418396
852,4147427403,-35.40499496,34.3300972,35.00749207,-7.962467194,-0.30900231,1.300683022,-30.53045845,85.51023102,77.41383362
853,4147444070,-36.07198334,36.51801682,35.3032074,-8.253726959,-0.724512994,1.771852612,-48.91170502,97.66049194,89.0793457
854,4147460737,-36.77848816,38.98697662,35.66682434,-8.826008797,-1.210916042,2.04600668,-54.35259247,108.5017929,102.5072556
855,4147477404,-37.28323364,41.74256134,36.18256378,-9.335829735,-1.41284585,2.282703876,-48.92651749,117.3358231,119.0572052
856,4147494071,-37.49585724,44.75794983,36.92598724,-9.528185844,-1.443372726,2.527242422,-41.92241287,123.5592194,136.3403625
857,4147510738,-37.43107224,47.96749496,37.9389267,-9.340954781,-1.441288233,2.666878939,-38.70034027,126.8762741,151.0847626
858,4147527405,-37.16914368,51.29204559,39.21758652,-9.058439255,-1.476799369,2.619789124,-41.33319092,128.0923615,161.064682
859,4147544072,-36.80348969,54.66161346,40.7518959,-8.742515564,-1.335306168,2.402070522,-50.16587448,127.6645813,166.5703888
860,4147560739,-36.41228104,58.04257202,42.53280258,-8.521202087,-1.206933975,2.187236071,-64.0847702,127.0461502,169.1579132
861,4147577406,-36.03274918,61.41797638,44.54445267,-8.610090256,-1.318264127,2.053913593,-80.0821991,126.9333954,169.4214935
862,4147594073,-35.58174515,64.78214264,46.8322258,-8.924710274,-1.558460593,2.252147198,-93.95109558,126.8646851,169.1173096
863,4147610740,-34.93636703,68.11131287,49.5115242,-9.569832802,-1.953189135,2.718008518,-107.2615738,125.5060959,168.4226685
864,4147627407,-33.71356583,71.3910141,52.83001709,-10.2567606,-2.783147573,3.040488482,-112.0613174,123.1191635,168.5170898
865,4147644074,-31.24143982,74.585495,57.26720047,-11.08339977,-3.382074356,3.248469591,-104.915535,119.2810593,169.2417755
866,4147660741,-26.61166382,77.63246155,63.63843155,-11.74225521,-3.681071758,3.400836468,-92.02277374,114.9132233,169.2834473
867,4147677408,-18.40113449,80.41287994,73.36303711,-12.08220291,-4.008437634,3.591514349,-78.96430206,110.607666,166.8737793
868,4147694075,-4.435883522,82.69158173,88.62785339,-12.35171318,-4.428439617,3.921741486,-66.90132141,105.7935867,159.0556183
869,4147710742,17.01692772,84.13265228,111.2469254,-12.3622961,-4.516547203,4.38582325,-59.94060135,100.7537994,145.210022
870,4147727409,42.42154694,84.46313477,137.7038116,-12.62107563,-4.949052811,5.228097916,-54.16335297,93.79302979,126.9357986
871,4147744076,63.16545486,83.90995789,159.3092041,-13.01572514,-5.425369263,5.955931187,-43.80951309,83.78675079,105.6359711
872,4147760743,76.5581131,83.04777527,173.3412018,-13.34403133,-5.56124258,6.498727798,-31.62633705,71.40994263,81.79103851
873,4147777410,84.67632294,82.26950073,-178.0648346,-13.30257511,-5.505065441,6.734328747,-23.00724602,56.89998245,57.42195511
874,4147794077,89.48845673,81.76989746,-172.8864136,-12.58622742,-5.299746513,6.834479332,-17.66276932,41.09581757,32.86053085
875,4147810744,92.06278229,81.64154053,-169.9185181,-11.63245964,-4.89951849,6.769352913,-20.43142891,25.34891319,8.127198219
876,4147827411,92.98046112,81.89295959,-168.4736023,-10.77233124,-4.593950748,6.539050579,-29.43959808,11.30632591,-14.84507275
877,4147844078,92.76753998,82.43945313,-168.140686,-10.77239418,-4.968472004,6.425665379,-31.27331543,0.653429449,-32.09512711
878,4147860745,91.51379395,83.13481903,-169.0797119,-11.03974819,-5.366327763,6.835614681,-18.06145477,-9.041098595,-40.63758469
879,4147877412,88.92128754,83.88041687,-171.7851563,-10.85760021,-5.896822929,6.884572506,7.005745411,-18.93218422,-43.85587311
880,4147894079,84.43144989,84.63790894,-177.0389099,-11.4243536,-6.556799412,6.370203018,45.50602722,-29.2376194,-46.35303497
881,4147910746,76.29045105,85.37522125,173.3896332,-12.27417469,-6.267467976,5.787957191,84.89041138,-42.24032211,-51.01512909
882,4147927413,61.43245697,85.97927094,156.6803436,-12.78041744,-5.401308537,4.91037941,109.5040817,-57.7022438,-59.78507614
883,4147944080,38.46764374,86.12464905,131.6752319,-13.17815113,-4.475520611,4.001105309,120.1660843,-73.35691071,-71.66049194
884,4147960747,14.00836849,85.43254089,105.2402878,-14.28837395,-3.545543909,3.399837971,115.6015778,-87.8207016,-85.10942078
885,4147977414,-3.635578632,83.87874603,85.90425873,-15.84206295,-2.984373569,3.19338274,97.8802948,-101.6390457,-97.98625183
886,4147994081,-14.45074081,81.65936279,73.77198792,-16.33854294,-2.551989079,3.092833996,74.60163879,-116.7862396,-110.3105469
887,4148010748,-21.24492836,78.94603729,66.03173065,-15.41633892,-2.454199553,2.848176956,51.46311569,-131.0445709,-123.3638458
888,4148027415,-25.93694496,75.8442688,60.61021805,-14.07208633,-2.635727167,2.475683212,37.26732635,-142.3475189,-138.5971832
889,4148044082,-29.47856331,72.41469574,56.41178894,-13.06778145,-2.674636364,1.886805058,31.12918091,-150.4295349,-155.7582245
890,4148060749,-32.26097488,68.72916412,52.92909241,-12.49172592,-2.6995368,1.267116189,31.43202591,-154.4659729,-172.2254639
891,4148077416,-34.40801239,64.89126587,50.0095787,-11.98016548,-2.138083935,1.072767973,33.51233673,-154.8297882,-183.2953033
892,4148094083,-36.04239273,60.97193146,47.55325699,-11.853302,-2.957060814,0.722095311,34.47679901,-153.7885895,-189.557785
893,4148110750,-37.04454803,57.04256439,45.51323318,-11.69922924,-2.729264736,0.615310133,46.09011459,-152.2757874,-190.1633148
894,4148127417,-37.58475113,53.17982864,43.77028656,-11.27412701,-2.604165316,0.47081542,54.6570816,-148.4712524,-187.2237244
895,4148144084,-37.77366638,49.4414978,42.2785759,-10.80981255,-2.216866016,0.333444059,59.81198883,-143.7401428,-180.5452728
896,4148160751,-37.73586655,45.87771988,40.98692322,-10.20070934,-2.001224518,0.21930626,60.84157562,-137.5232697,-171.368927
897,4148177418,-37.52877426,42.52761841,39.86586761,-9.581015587,-1.924629569,0.150030494,60.61915207,-130.1718903,-160.1073151
898,4148194085,-37.20938873,39.41512299,38.87359238,-9.011468887,-1.899458766,0.060840361,59.50526428,-121.5637512,-148.2731628
899,4148210752,-36.83315277,36.56943512,37.97486115,-8.556684494,-1.817902565,-0.056833759,57.07752991,-111.1680756,-135.9418793
900,4148227419,-36.44408035,34.02524567,37.15829468,-8.256607056,-1.710311174,-0.183423728,52.9728508,-99.06233978,-122.4008026
901,4148244086,-36.07217789,31.82681656,36.42607498,-8.176099777,-1.635676861,-0.240097284,47.52119446,-84.992836,-106.9752502
902,4148260753,-35.70578384,30.01134872,35.79013443,-8.262605667,-1.601208448,-0.163525254,42.92086029,-69.4991684,-89.61312866
903,4148277420,-35.34295654,28.59390068,35.26329422,-8.289542198,-1.446786284,0.042099919,38.58275223,-53.63908005,-71.10560608
904,4148294087,-35.00688934,27.56740189,34.83392715,-8.080746651,-1.365929723,0.291960418,33.6347847,-37.69211197,-53.32170105
905,4148310754,-34.74316025,26.91052818,34.47312927,-7.64421463,-1.219780564,0.600057721,27.08267593,-21.76979256,-37.59972763
906,4148327421,-34.53479385,26.60100746,34.1463356,-7.198412418,-1.345284462,0.80553782,22.68058205,-5.774873257,-24.23740005
907,4148344088,-34.28504562,26.63674164,33.84478378,-7.192478657,-1.48507762,0.948947728,24.44846916,10.46590519,-11.4243927
908,4148360755,-33.94517136,27.03775597,33.6058197,-8.129271507,-1.32533443,1.147588134,28.22445107,26.64593124,3.610808134
909,4148377422,-33.55939865,27.81538582,33.51568222,-9.20359993,-0.995536983,1.114702106,27.00130081,41.01068115,22.62796402
910,4148394089,-33.26734161,28.97900009,33.62154007,-9.669033051,-0.695744872,0.980950356,15.86950779,54.74886322,43.79652786
911,4148410756,-33.20172119,30.49794579,33.90186691,-9.190156937,-0.512072861,0.895824015,-3.028363943,67.77523804,62.83488083
912,4148427423,-33.50342178,32.31709671,34.25541306,-8.330264091,-0.541503191,1.145585179,-27.7746563,80.76275635,75.80006409
913,4148444090,-34.1276741,34.39993668,34.59503174,-8.011910439,-0.852000773,1.667766333,-47.26931763,93.90235138,84.35103607
914,4148460757,-34.91273117,36.72995377,34.91560745,-8.43823719,-1.239447951,2.098845959,-56.89538193,105.8610458,92.77671051
915,4148477424,-35.60957336,39.31847,35.28339767,-9.268182755,-1.522372603,2.217042208,-54.00457001,116.3186798,104.5161667
916,4148494091,-36.02408981,42.16837311,35.79789352,-10.05735302,-1.496884584,2.289370537,-43.61052704,124.5100479,119.6809235
917,4148510758,-36.15086746,45.26073456,36.54113007,-10.25171947,-1.469904661,2.31470108,-37.02273941,130.4837036,135.9899902
918,4148527425,-36.02649689,48.5477562,37.56124496,-9.739233017,-1.505096197,2.391780615,-35.81911469,134.2717743,150.61026
919,4148544092,-35.74028397,51.94979095,38.83926392,-9.123167992,-1.617525935,2.419018269,-40.37785721,136.157196,160.0190582
920,4148560759,-35.36388779,55.39128876,40.36118698,-8.67772007,-1.497039557,2.492332458,-49.57296753,136.0538788,164.7231445
921,4148577426,-34.93280029,58.83027649,42.11370468,-8.511375427,-1.424259543,2.523144245,-61.03509521,135.3450775,166.1288452
922,4148594093,-34.41466522,62.24650574,44.12466049,-8.628505707,-1.399571538,2.712928057,-72.55805969,134.3050842,166.0635834
923,4148610760,-33.67484665,65.63575745,46.49000168,-9.098631859,-1.64862287,3.050863743,-81.7121582,133.0788727,166.1563721
924,4148627427,-32.49534225,68.97921753,49.42366791,-9.954304695,-1.981237411,3.450850725,-90.24183655,130.4748077,167.0466461
925,4148644094,-30.4417057,72.23226929,53.32313919,-10.75577545,-2.593444824,3.64951992,-96.1038208,125.3478928,168.776825
926,4148660761,-26.81402588,75.34012604,58.77028656,-11.40559101,-3.294564247,3.673602104,-94.85585022,119.296936,170.015274
927,4148677428,-20.72169876,78.20960236,66.60271454,-11.81937885,-3.600092888,3.733911991,-90.67517853,113.4134598,168.2535706
928,4148694095,-10.9047823,80.6999054,78.06278229,-12.06869125,-3.992031097,3.9116714,-85.77405548,108.326973,162.1101685
929,4148710762,3.96799159,82.5750885,94.43299866,-12.26556492,-4.423074245,4.658079624,-78.25338745,102.0686874,149.5676575
930,4148727429,23.38140488,83.58296204,115.1571426,-12.3446722,-4.673732281,5.735383987,-68.4177475,92.55571747,131.4646912
931,4148744096,42.6808815,83.74825287,135.6160278,-12.0930624,-4.917759895,6.226504803,-60.83835983,81.14176941,108.3606033
932,4148760763,57.60671234,83.44863129,151.5389252,-12.09557724,-5.230870724,6.275415897,-52.56027985,69.63179779,82.45101929
933,4148777430,67.86408234,83.0537262,162.533783,-12.49264145,-5.553258419,6.37486887,-38.36109161,57.54040527,57.17292404
934,4148794097,74.57375336,82.76902008,169.7404327,-13.00876236,-5.453250885,6.560667038,-25.17935371,44.54281616,34.06390762
935,4148810764,78.532547,82.66762543,174.0492249,-12.8969965,-5.205041885,6.683488369,-17.59471321,30.00258255,14.29369926
936,4148827431,80.20450592,82.77857208,176.0568085,-11.95087528,-4.710476875,6.596854687,-17.86233902,15.78603458,-2.957152128
937,4148844098,80.00785065,83.11530304,176.2778931,-11.0236969,-4.510789394,6.269051075,-23.66224098,4.646805763,-18.84244156
938,4148860765,78.35996246,83.64807129,175.0735474,-11.23060036,-4.777460098,6.05615139,-25.80874634,-2.604193211,-32.17135239
939,4148877432,75.22070313,84.26739502,172.2138824,-12.12665462,-5.066755772,6.215977192,-16.45766068,-9.506544113,-39.4990921
940,4148894099,70.1605072,84.85147858,167.0084534,-12.02653408,-5.593478203,6.442915916,8.567344666,-18.25223732,-41.43912506
941,4148910766,62.38080978,85.35438538,158.4491272,-11.51310444,-6.073230743,6.156570435,46.15599442,-28.39147758,-44.36387253
942,4148927433,50.61907959,85.71788025,145.2698364,-11.26956558,-5.875139236,5.310498714,83.90511322,-39.64920044,-51.14946365
943,4148944100,34.64744568,85.77696228,127.3559113,-11.71300316,-5.292963982,4.421540737,114.8388672,-51.5842247,-59.95625687
944,4148960767,17.40236664,85.31253052,107.8027802,-12.53038216,-4.403588295,3.921971798,136.2241974,-64.85812378,-68.63512421
945,4148977434,2.997869968,84.23686981,91.02550507,-13.50605774,-3.451359272,3.572566986,139.4762115,-79.41760254,-77.77966309
946,4148994101,-7.201457024,82.61743927,78.69761658,-14.49992943,-2.681395292,3.309859753,124.1629944,-93.8219223,-87.17144775
947,4149010768,-14.10347176,80.53456879,70.0818634,-15.2536459,-2.336761951,3.11640954,98.54103851,-108.8766403,-96.56745911
