PacketCounter,SampleTimeFine,Euler_X,Euler_Y,Euler_Z,Acc_X,Acc_Y,Acc_Z,Gyr_X,Gyr_Y,Gyr_Z
0,4133127117,179.1860352,31.33285141,-108.3231049,0,0,0,0,0,0
1,4133143784,179.0386963,31.51769066,-108.3969727,-5.425541878,0.231232688,-8.60036087,-5.951415539,-11.40995884,5.245419979
2,4133160451,178.8518524,31.75285721,-108.4879532,-5.36114645,0.078732625,-8.757007599,-7.768461704,-14.45365238,6.022435188
3,4133177118,178.6134949,32.0561142,-108.6205368,-5.937229633,0.064435221,-8.580406189,-9.517586708,-18.59971237,7.984683514
4,4133193785,178.3208771,32.40162659,-108.7713928,-5.852946758,0.253493637,-8.568616867,-12.15255737,-21.18659973,8.735744476
5,4133210452,178.013092,32.80578613,-108.954071,-5.513272285,0.915877938,-8.54149437,-11.98388004,-24.78895187,10.08850288
6,4133227119,177.6641083,33.23457336,-109.1748505,-5.340393066,1.171670556,-8.55152607,-13.1403389,-26.38357162,11.76441383
7,4133243786,177.3243561,33.70682526,-109.4215088,-5.250097752,0.915122628,-8.267572403,-11.63890076,-29.10395241,12.72762871
8,4133260453,176.9830475,34.19668198,-109.6433258,-5.081689358,0.288309872,-8.122048378,-12.46062469,-30.16122818,11.19934082
9,4133277120,176.6790619,34.69612503,-109.8139954,-4.810422897,0.138246909,-8.227593422,-11.86173153,-30.64654732,8.406443596
10,4133293787,176.3934021,35.20014572,-109.9185944,-4.890229702,0.185188785,-8.329137802,-12.96009827,-30.75918007,4.939646721
11,4133310454,176.1328278,35.7276268,-109.9657288,-5.469730854,0.34851563,-8.268261909,-13.41196156,-31.9968586,1.868659496
12,4133327121,175.8979034,36.28630829,-109.9782562,-5.930007935,0.455589324,-8.108064651,-13.07212925,-33.74950027,-0.089875378
13,4133343788,175.6694641,36.89469528,-109.9968796,-6.144267559,0.555784523,-7.830292702,-12.45851135,-36.7375412,-0.154349342
14,4133360455,175.4379578,37.52273941,-110.0169601,-6.099844933,0.624596953,-7.912467003,-12.58062649,-37.90917969,-0.330219954
15,4133377122,175.1703339,38.26309586,-110.0257187,-6.210754395,0.94875437,-7.84563303,-15.1540575,-44.57089615,-1.591335893
16,4133393789,174.8752441,39.07544327,-110.0405655,-6.232506752,1.025028229,-7.793268204,-16.56753159,-48.88206863,-1.903137088
17,4133410456,174.3942871,40.1953392,-110.0057678,-7.041889668,1.038825512,-7.080630779,-29.60666084,-67.01283264,-6.252761364
18,4133427123,173.9787903,41.32482529,-109.9917145,-5.780597687,0.968303502,-7.907194614,-24.89689445,-67.61486053,-5.869073391
19,4133443790,173.7243347,42.34716797,-110.0326385,-5.740329742,1.011381626,-7.713916302,-13.04553604,-61.44736862,-3.123166323
20,4133460457,173.5391388,43.38863754,-110.0841827,-6.14540863,0.82879734,-7.415924072,-8.422387123,-62.62207031,-3.048908234
21,4133477124,173.4217987,44.40819168,-110.1326981,-6.550773144,0.51498878,-6.970705986,-4.438400269,-61.28474808,-3.233883142
22,4133493791,173.4110413,45.39822388,-110.1598816,-6.273670197,0.459431499,-7.082664967,1.087349534,-59.41268158,-4.036848545
23,4133510458,173.5255127,46.26391983,-110.1690445,-5.923573494,0.461144358,-6.997092724,7.843196869,-51.92019272,-3.898758173
24,4133527125,173.720993,47.07226944,-110.1062241,-6.457299709,0.367291272,-6.824373245,9.567463875,-48.19044876,-6.327460766
25,4133543792,173.9888306,47.81091309,-109.9629974,-6.672934532,0.205714077,-6.283979416,10.31743336,-43.72107697,-8.893593788
26,4133560459,174.3406982,48.47795486,-109.6989899,-7.352930069,0.133207768,-6.098104,9.888933182,-39.02054596,-12.95377445
27,4133577126,174.7246399,49.14458466,-109.3192291,-7.8504529,0.289598227,-5.974799156,6.461357117,-38.66492844,-17.11563683
28,4133593793,175.1414948,49.7762413,-108.8424911,-8.355163574,0.070605896,-5.692261219,3.843964815,-36.38477325,-20.23447227
29,4133610460,175.5974426,50.41574097,-108.2845001,-8.110513687,0.271625787,-6.261888504,2.246133566,-36.78070068,-22.8701725
30,4133627127,176.0373535,51.05653763,-107.7353973,-7.798297405,0.731032133,-6.239873886,1.453004956,-37.09367371,-21.96639252
31,4133643794,176.4516754,51.70490265,-107.247963,-7.646029472,0.655380487,-6.066561699,2.577447891,-37.88962936,-19.13002205
32,4133660461,176.8923187,52.36562347,-106.7970886,-7.453104973,-0.306236506,-5.912742615,5.681010246,-38.87815857,-17.28148079
33,4133677128,177.4259491,53.07824326,-106.3034134,-7.685183048,-1.007136106,-5.894537926,9.01541996,-42.08398056,-18.40347481
34,4133693795,177.9737396,53.83013153,-105.8134308,-8.099919319,-0.061467003,-5.983105183,9.810092926,-44.64167404,-17.66440201
35,4133710462,178.4377899,54.58604431,-105.3274078,-8.470726967,0.041675285,-5.271682262,4.75002861,-45.06450653,-16.82628822
36,4133727129,178.927597,55.33817291,-104.8667526,-8.229561806,0.007556142,-5.426281929,7.320150375,-45.01682281,-15.26156616
37,4133743796,179.4684601,56.09147263,-104.4424286,-8.29024601,0.421070635,-5.583668709,11.97516823,-45.25632095,-13.33369637
38,4133760463,179.9723358,56.82553101,-104.0720444,-8.501004219,0.554505289,-5.034715652,12.26858521,-44.24736786,-10.8570776
39,4133777130,-179.5045319,57.50179291,-103.7040329,-8.332777977,-0.171341404,-4.990277767,13.39902878,-40.88480377,-10.17063618
40,4133793797,-178.9170532,58.17113876,-103.3312073,-8.241566658,0.089925736,-5.354896069,16.87243462,-40.57998657,-9.717162132
41,4133810464,-178.4871979,58.85942078,-103.0677185,-8.714598656,1.738448143,-5.676790237,12.87144184,-41.73477936,-5.682811737
42,4133827131,-178.2725372,59.48311234,-102.9392548,-9.524276733,1.110197425,-4.827656269,6.827151299,-37.77910995,-1.261579037
43,4133843798,-178.1216278,60.04141998,-102.9135513,-10.38598728,-0.282414377,-4.289298058,8.293638229,-33.76332855,1.904139161
44,4133860465,-177.9671326,60.57886124,-102.937355,-9.566000938,-0.776173353,-4.268203735,11.07879925,-32.45601654,3.433108091
45,4133877132,-177.8248596,61.10534668,-102.97995,-8.405770302,-0.489376962,-4.875343323,11.33491421,-31.76722336,4.032908916
46,4133893799,-177.7510681,61.62537003,-103.0644226,-8.027350426,-0.46632272,-4.945449352,9.440391541,-31.33441162,5.258307934
47,4133910466,-177.7171326,62.13450623,-103.1558456,-8.837906837,-0.659967721,-4.397587776,7.440336704,-30.67200279,5.421664715
48,4133927133,-177.6895599,62.61839676,-103.290062,-9.437631607,-0.066391878,-4.105672359,9.352279663,-29.10914612,6.525471687
49,4133943800,-177.6860657,63.05729675,-103.4866333,-9.436717033,0.516319156,-4.377319336,11.26648808,-26.33980942,8.074608803
50,4133960467,-177.7411499,63.47351456,-103.7334595,-9.151151657,0.66925317,-4.514120579,10.48608685,-24.93292618,9.280288696
51,4133977134,-177.8488617,63.86577225,-104.0060806,-9.393766403,0.521309555,-4.330405712,8.76292038,-23.48258972,9.780080795
52,4133993801,-178.0068817,64.17386627,-104.3277206,-9.140679359,0.110205166,-4.080203533,8.437697411,-18.41253662,10.73998833
53,4134010468,-178.091095,64.34397888,-104.6390152,-9.283551216,0.186597675,-4.086728096,12.34037876,-10.16644096,10.07630348
54,4134027135,-178.030304,64.41120148,-104.8911591,-9.026147842,0.409280807,-4.161415577,17.85700798,-4.051518917,8.295580864
55,4134043802,-177.8894958,64.46318817,-105.1138153,-9.495221138,0.362430185,-4.273360729,21.07006073,-3.151597023,7.491247177
56,4134060469,-177.676712,64.55337524,-105.3260269,-9.18449688,0.048990257,-4.668375015,24.83276367,-5.433536053,7.303479671
57,4134077136,-177.391922,64.68275452,-105.5336609,-9.162508965,0.481474191,-4.73005867,28.91449928,-7.767282009,7.285063744
58,4134093803,-177.1058197,64.86006927,-105.6822052,-9.142949104,0.115669847,-4.360104084,25.80490494,-10.68693542,5.92067337
59,4134110470,-176.7550964,65.10234833,-105.7314453,-9.358268738,-0.314125538,-4.447521687,24.29831696,-14.69089222,3.639114618
60,4134127137,-176.3023987,65.49320984,-105.6562347,-9.364557266,0.001483379,-4.449637413,23.64048767,-23.76478958,1.153446794
61,4134143804,-175.8080597,66.02629852,-105.4765396,-9.231842995,0.572187781,-4.250793457,20.40621567,-32.4585495,-0.603585601
62,4134160471,-175.2820587,66.64069366,-105.1720352,-9.245675087,0.187014714,-4.190405846,15.40290165,-37.56758881,-2.838768244
63,4134177138,-174.7097321,67.3397522,-104.7441177,-9.559715271,-0.013789829,-4.001540184,11.28869724,-42.90291977,-4.731229782
64,4134193805,-174.0345917,68.08664703,-104.1613464,-9.288527489,0.030527752,-3.71341753,8.732898712,-46.14256287,-7.196118355
65,4134210472,-173.2935944,68.85511017,-103.394043,-8.68926239,-0.303689152,-3.64795208,2.21355772,-47.93218994,-10.09747505
66,4134227139,-172.4396667,69.57033539,-102.3618546,-8.485673904,-0.510625184,-3.530572653,-6.084340572,-45.55398941,-14.87553787
67,4134243806,-171.5106812,70.26508331,-101.1576309,-8.492020607,-0.329264015,-3.270498037,-11.53995991,-44.98324966,-17.14268303
68,4134260473,-170.5848389,70.89936829,-99.88395691,-9.233430862,-0.613515913,-3.06669879,-15.94180012,-41.7914238,-17.56907845
69,4134277140,-169.7910919,71.53868866,-98.75833893,-9.869653702,-0.62225455,-2.936673641,-15.73644161,-41.74618149,-13.28355789
70,4134293807,-169.1885071,72.15947723,-97.77471924,-9.181700706,-1.421021223,-2.532377243,-19.34837341,-40.21781921,-9.677828789
71,4134310474,-168.713501,72.74832916,-96.93019867,-8.969452858,-1.274230242,-2.907881737,-19.23675156,-37.84513474,-6.612876415
72,4134327141,-168.3921967,73.33537292,-96.22935486,-9.769094467,-0.443648279,-2.672697783,-20.37030029,-37.19746399,-3.419131517
73,4134343808,-168.2799988,73.86237335,-95.68655396,-9.6609869,-1.034756541,-2.438934565,-23.9361515,-33.06510162,-1.003530622
74,4134360475,-168.2992249,74.41430664,-95.2600174,-9.349572182,-2.286125898,-2.617240429,-25.20080948,-34.08725357,1.485161781
75,4134377142,-168.2903748,75.05875397,-94.94437408,-8.949601173,-1.394835591,-2.925282955,-17.17092323,-39.11433029,4.581796169
76,4134393809,-168.338974,75.73948669,-94.70176697,-9.857975006,-0.098403424,-3.002188683,-16.43873596,-40.98261642,6.301394939
77,4134410476,-168.2890015,76.51727295,-94.14064026,-10.4610033,0.358433515,-3.012213469,-29.11872482,-47.57538605,3.169657469
78,4134427143,-168.0776367,77.32924652,-93.30977631,-10.71680355,0.65309751,-2.781110287,-35.31066513,-50.24131012,0.553344071
79,4134443810,-167.7932892,78.17372131,-92.15299225,-10.82647228,0.848897457,-3.010507584,-50.19340897,-52.87077713,-2.196464539
80,4134460477,-167.1845398,79.13144684,-90.37490082,-9.807524681,0.762407005,-2.363801718,-67.50162506,-60.885952,-6.437985897
81,4134477144,-166.6030121,80.03421783,-88.29329681,-9.205444336,1.107969999,-2.814257622,-87.3717804,-58.11794281,-8.110878944
82,4134493811,-165.2863617,81.01882935,-85.20722961,-9.648169518,0.007291043,-1.795969844,-103.057724,-64.93758392,-13.62380409
83,4134510478,-163.5300598,81.99673462,-81.72109985,-9.559348106,-1.078213811,-1.337328553,-100.9169388,-65.03746796,-12.39242363
84,4134527145,-160.8641663,83.04308319,-77.1975708,-9.637994766,-0.504378855,-1.006639838,-108.5761566,-70.77679443,-12.8590107
85,4134543812,-157.6607056,84.04790497,-72.13365936,-7.904325485,-0.041093528,-1.278766394,-109.1331329,-68.66055298,-9.015201569
86,4134560479,-156.3619843,84.75701141,-69.29576111,-9.08597374,-0.224430546,-1.919023633,-90.96630096,-45.89242935,2.918488264
87,4134577146,-156.3508148,85.42371368,-67.83343506,-10.53649712,-0.894185185,-1.520308733,-86.16432953,-39.89154053,10.75397301
88,4134593813,-158.7402191,86.05548859,-68.75578308,-10.56773281,-0.793027222,-1.478888869,-87.58666229,-33.69680023,19.87162209
89,4134610480,-162.1516266,86.64666748,-70.47932434,-11.0440464,-1.712060094,-1.58343935,-100.8864441,-31.46179199,19.67360878
90,4134627147,-163.3540497,87.34023285,-69.22960663,-9.792595863,0.494931787,-2.665635109,-146.4336395,-41.14431381,10.18109417
91,4134643814,-161.2037811,87.76026154,-63.31407928,-6.301743031,1.226189256,-7.77167511,-225.0175323,-28.83908081,-5.203868866
92,4134660481,-163.8431091,87.75318909,-60.78197098,-9.323879242,7.797011375,-12.33790302,-309.5917969,-1.68400228,-4.212792397
93,4134677148,-167.1833649,87.84106445,-56.82200623,-10.03318596,8.532265663,-10.37363529,-437.2259216,-7.723195553,-5.989955902
94,4134693815,-176.2769165,87.02046967,-58.39944458,-6.873318195,0.509715497,-10.90879345,-450.43927,48.96821213,-1.377256632
95,4134710482,176.7265472,85.63722992,-60.50146103,-9.355207443,-2.768026829,-10.84378242,-293.3292847,82.60479736,9.235961914
96,4134727149,170.7918243,84.04718018,-64.63994598,-10.30638695,0.103191242,-7.316487789,-108.1693802,91.90428925,34.03453827
97,4134743816,167.1913605,82.18701935,-67.95797729,-9.833005905,0.97435236,-5.539525509,-17.79031563,104.4868088,46.19395447
98,4134760483,165.4200287,80.28547668,-70.14118195,-10.5094347,0.264003694,-3.977307558,23.76882935,105.62854,47.86955643
99,4134777150,164.015976,78.48270416,-71.82497406,-10.38485622,1.923311472,-2.619461298,15.63539219,98.94078827,47.93378067
100,4134793817,162.499588,76.80823517,-72.64989471,-10.25435162,1.407574058,-1.891468525,-42.04416656,92.67423248,40.5532608
101,4134810484,160.6893005,75.33504486,-72.9107666,-10.08426094,0.692329586,-1.340562344,-92.83358002,82.20651245,32.95140457
102,4134827151,158.400177,74.01995087,-72.87290192,-9.812081337,-0.607346296,-1.015106559,-138.9402771,73.68306732,28.47740173
103,4134843818,155.957901,72.98880005,-72.74839783,-9.888098717,-2.25883317,-0.105785258,-153.1028137,57.40510559,23.50511932
104,4134860485,153.6585693,72.35261536,-72.6162796,-9.789237022,-2.782712221,0.084735237,-144.9308014,35.1194458,15.58536148
105,4134877152,151.8543854,72.08596802,-72.43554688,-8.943572998,-3.895059347,0.900963247,-117.9965973,15.33176708,5.863111496
106,4134893819,151.1867065,72.16029358,-72.11733246,-8.347520828,-4.365382195,1.167952418,-57.65967941,-1.520208478,-5.77675581
107,4134910486,151.3955078,72.62137604,-71.84844971,-8.933670044,-3.328913927,1.30663228,-2.285196543,-22.29496765,-16.04346657
108,4134927153,152.1940613,73.35132599,-71.54150391,-10.10329151,-2.765035629,0.850914001,30.86242867,-36.40879059,-23.90247154
109,4134943820,153.1898193,74.19496918,-71.32808685,-10.86424065,-2.07026577,0.369896114,48.00840759,-43.67815018,-24.83382797
110,4134960487,153.9881592,75.06896973,-71.29705811,-10.99880409,-0.604014397,-0.199590176,46.65518188,-47.08052063,-22.18557549
111,4134977154,154.0137024,75.97241974,-71.57732391,-10.32285213,0.059104044,0.945430815,18.37460136,-50.88415527,-18.38740158
112,4134993821,153.5603638,76.76551056,-71.92202759,-9.417384148,-0.454559028,1.067076206,-6.547997952,-45.15449905,-15.04848671
113,4135010488,152.7381744,77.38135529,-72.47743988,-10.72469234,2.080970526,0.2151995,-16.28809357,-36.62763214,-8.430124283
114,4135027155,151.245636,78.96215057,-72.2700882,-12.18652439,-3.524191856,6.512273788,-101.1545181,-82.82744598,-45.18782425
115,4135043822,152.791153,80.3286438,-70.55751038,-7.815246105,-6.652794838,2.695152521,-7.781200886,-63.97494125,-53.14415741
116,4135060489,154.6262512,81.35321045,-68.40219116,-11.61181164,1.102179408,-4.454117298,-17.00911713,-46.2195816,-44.02270889
117,4135077156,156.4830017,82.40888214,-66.29642487,-11.4435091,-0.955088019,-3.972583532,-13.11568451,-50.50603867,-40.79300308
118,4135093823,157.8493042,83.51892853,-64.79120636,-10.44065666,-1.753549576,3.580844402,-7.102643013,-57.32971191,-34.37617111
119,4135110490,160.1907349,84.3290863,-62.77394104,-8.789843559,-2.436011314,0.144725204,20.68382835,-41.01799011,-27.69072151
120,4135127157,163.220871,84.99507904,-60.32115936,-10.98410988,1.939523578,-2.375820875,35.82529068,-33.85814667,-23.85488319
121,4135143824,165.9968872,85.7029953,-58.04154205,-10.45536423,2.145381451,1.018208861,30.7998848,-38.21323013,-20.2836113
122,4135160491,171.0239258,86.15361023,-53.46146011,-10.67713642,1.049832702,-0.087199695,28.04440308,-22.8178215,-22.83918381
123,4135177158,177.6490784,86.62293243,-47.24333954,-10.60906887,0.671532929,-0.625531495,25.70999146,-25.87343407,-24.49806213
124,4135193825,-173.9858551,87.01810455,-39.25074387,-9.618582726,-0.721024334,-0.457900286,23.62534332,-24.69680214,-24.16335106
125,4135210492,-164.4227905,87.32219696,-30.06137466,-10.10571575,-0.727144122,-0.489204437,23.61128235,-23.17310333,-21.66446877
126,4135227159,-153.8666534,87.58411407,-19.84723854,-10.53818417,-0.45385164,-0.187043607,21.63265038,-24.52684021,-18.20946312
127,4135243826,-142.926712,87.75223541,-9.16351223,-10.15504265,0.013280015,0.063189507,16.39456177,-22.42593193,-15.28828907
128,4135260493,-133.2107697,87.78874969,0.406519592,-9.980686188,-0.287224114,0.13452971,9.704177856,-16.78715897,-13.48675251
129,4135277160,-125.9253006,87.75833893,7.596930027,-9.967841148,-0.491147578,0.263473302,6.540216446,-11.97839355,-10.43342113
130,4135293827,-121.4347916,87.71424103,12.0573864,-10.08177757,-0.671969891,0.195590749,2.545128822,-7.556863308,-6.406442642
131,4135310494,-119.6471024,87.68768311,13.88964748,-9.579776764,-0.923530459,0.221633762,-2.029358149,-3.212088585,-1.945412517
132,4135327161,-120.8132858,87.66300964,12.7985754,-9.346978188,-0.924945652,0.213510662,-3.982135296,2.817698002,1.743949652
133,4135343828,-123.9199295,87.62669373,9.787500381,-9.804875374,-0.396516651,0.217775941,-5.305429459,7.222558975,3.819962263
134,4135360495,-127.9630203,87.54600525,5.894284248,-9.734888077,0.18331866,-0.109606281,-8.621591568,10.60034752,3.53232646
135,4135377162,-131.7753906,87.40837097,2.26951766,-9.675820351,-0.10256651,-0.444218695,-10.90010834,12.42994976,1.479448557
136,4135393829,-134.6224365,87.26483917,-0.456664741,-9.871760368,-0.363332301,-0.445000529,-6.849927902,11.22255039,0.604645729
137,4135410496,-137.1679077,87.15222168,-2.958004475,-10.1759758,-0.855466127,-0.516390562,-2.262434483,9.729058266,2.218131065
138,4135427163,-139.7253723,87.08167267,-5.562391281,-10.20806217,-0.398416877,-0.001644333,3.184998035,8.171638489,4.749011993
139,4135443830,-143.4643555,86.99417114,-9.327068329,-10.47191906,-1.215784192,0.218065679,1.81843245,11.14453506,7.571548462
140,4135460497,-148.9307556,86.88605499,-14.85199356,-9.593379974,-0.517825007,0.108001247,3.617728472,15.02423096,12.77777672
141,4135477164,-155.1424255,86.65450287,-21.04193497,-9.41944313,-0.558505654,-0.16418086,-1.308184505,21.83283424,13.66692257
142,4135493831,-160.8926544,86.38947296,-26.75575256,-9.651485443,-0.498909563,-0.525394022,-2.241283178,22.30219269,15.02182674
143,4135510498,-165.9162598,86.10439301,-31.69425011,-9.607496262,-0.017875528,-0.869318962,-5.167426586,21.70391846,15.38919353
144,4135527165,-169.5671539,85.90107727,-35.10578537,-9.825774193,-0.097326174,-0.566337943,-14.2946434,14.72663593,13.03758907
145,4135543832,-171.6911316,85.93997192,-36.84554291,-9.613650322,-0.062348258,-0.877839029,-22.75054359,-1.295019388,9.38640213
146,4135560499,-173.3368988,85.92855072,-38.31631851,-8.803162575,0.501909971,-2.646668673,-10.16151714,1.283299446,7.794012547
147,4135577166,-174.3366852,85.96473694,-39.20168304,-9.942854881,0.964952886,-1.701361418,-6.443259239,-1.978965402,5.642548561
148,4135593833,-174.6841583,86.06452942,-39.43784332,-10.61856461,0.37163955,-1.006182671,-6.154477119,-6.083542824,3.222891331
149,4135610500,-175.1017609,86.22166443,-39.78028107,-10.91119957,-0.20389463,-0.751743257,-3.998502493,-9.489099503,3.883635759
150,4135627167,-174.8993378,86.40659332,-39.62610245,-9.874448776,0.102031492,-0.578148603,3.467378616,-11.33295918,2.042837858
151,4135643834,-174.9868164,86.59716797,-39.71760559,-9.930805206,0.007806675,-0.746341944,0.790337801,-11.58119774,3.00894928
152,4135660501,-174.865036,86.82436371,-39.55714417,-9.835065842,0.121245459,-0.947496831,-1.73862958,-13.83657837,2.321606874
153,4135677168,-174.9969025,87.05323792,-39.63594437,-9.470729828,0.07783854,-0.862052441,-2.6341784,-13.8797245,3.130482435
154,4135693835,-175.237793,87.23147583,-39.7975235,-9.375873566,-0.053465478,-0.367625982,-4.21434164,-10.8336401,3.057050228
155,4135710502,-175.5373535,87.3860321,-40.02435303,-9.935618401,0.166616991,-0.1429106,-3.811977625,-9.408162117,3.04827714
156,4135727169,-175.9624786,87.51501465,-40.32785034,-10.02954578,0.161483943,-0.282477379,-6.761434555,-7.88820076,3.046420336
157,4135743836,-176.4056702,87.63686371,-40.61571121,-9.977999687,0.072486416,-0.551728964,-8.754323959,-7.447229385,2.878978014
158,4135760503,-176.9197845,87.75284576,-40.98150253,-9.852530479,-0.170134723,-0.234704897,-8.373883247,-7.13686657,2.950372934
159,4135777170,-177.5378265,87.85597992,-41.46731949,-9.826776505,-0.358711839,-0.343044221,-7.372962952,-6.329937458,3.080280066
160,4135793837,-178.3800354,87.96452332,-42.18641663,-9.791554451,-0.04356214,-0.494616896,-6.852462292,-6.672122955,3.471271038
161,4135810504,-179.4356689,88.06507874,-43.10662079,-9.790131569,-0.017815758,-0.376898497,-7.599316597,-6.240164757,3.696316957
162,4135827171,179.1956635,88.13912201,-44.35652161,-9.703676224,0.065105602,-0.369482875,-6.592403412,-4.660155296,4.144526958
163,4135843838,177.7739563,88.17974091,-45.66578674,-9.68985939,-0.151143685,-0.195733473,-6.208941936,-2.70856905,4.128159523
164,4135860505,176.2133026,88.17683411,-47.11687851,-9.814676285,-0.213236466,-0.433169007,-6.061169147,-0.213853285,4.443336487
165,4135877172,174.3880768,88.16666412,-48.81820679,-9.606370926,0.014527407,-0.537559509,-6.914687157,0.124432921,4.969984531
166,4135893839,172.1459656,88.17008972,-50.93089676,-9.776068687,0.410058022,-0.410646468,-7.276351929,-0.928473294,5.671184063
167,4135910506,170.5679779,88.24264526,-52.39558792,-10.0510931,-0.217113957,-0.095711716,-6.271923542,-4.945364952,3.735503912
168,4135927173,170.0586243,88.35063934,-52.9147377,-9.976784706,0.09803386,-0.097902477,1.146149397,-6.757029533,1.494456649
169,4135943840,169.7725372,88.48612976,-53.19661331,-9.497308731,0.358057827,-0.015398584,0.347647667,-8.27435112,0.711399317
170,4135960507,170.8602295,88.6166153,-52.10261154,-9.789887428,-0.101271369,-0.124316365,0.187120005,-7.66165638,-1.292544961
171,4135977174,172.8353882,88.72605133,-50.14473724,-10.19395638,-0.205028608,0.104525633,1.659299731,-6.290646076,-1.964558363
172,4135993841,174.3451233,88.81965637,-48.69060135,-10.33113956,0.152241156,0.029796809,3.904368401,-5.592610836,-0.823871076
173,4136010508,175.9151611,88.89429474,-47.15534592,-9.89358902,0.362975895,-0.306726426,2.66562295,-4.515967846,-0.552914202
174,4136027175,178.2892303,88.95901489,-44.79437637,-9.654845238,0.748942137,-0.218107313,1.360015273,-3.948505163,-1.195255041
175,4136043842,-178.4868317,89.02361298,-41.54711533,-9.996555328,0.396279365,-0.21283032,-0.816840231,-4.043066978,-1.797909021
176,4136060509,-175.9386292,89.06959534,-38.96986008,-10.15647984,0.382212013,-0.267446697,-1.182973742,-3.105232239,-0.795645654
177,4136077176,-172.8197632,89.12822723,-35.73090744,-9.744935036,-0.717774153,-0.226109624,-6.678883553,-4.049393654,-1.060660362
178,4136093843,-170.8922882,89.17031097,-33.71360016,-9.378333092,-0.386550516,-0.332906097,-4.781263828,-2.871183872,0.206969842
179,4136110510,-168.2839813,89.1988678,-31.09091187,-9.279022217,-0.639171779,-0.067303717,-0.373420388,-2.411205053,-0.237237632
180,4136127177,-165.7454376,89.19838715,-28.56907272,-9.716648102,-0.319535583,-0.099395126,1.556093097,-0.620839,-0.437567353
181,4136143844,-164.5984344,89.17196655,-27.47789383,-9.763134956,-0.130264536,-0.026836647,3.898721218,1.045721769,0.354575843
182,4136160511,-164.6022186,89.1159668,-27.52243996,-9.881417274,-0.239343226,0.280907542,2.989597797,2.962973356,0.827962577
183,4136177178,-166.0002289,89.02542114,-28.96059418,-9.787684441,-0.562520564,0.04512921,2.969235897,5.373424053,1.654766321
184,4136193845,-168.5252686,88.94519806,-31.61037827,-9.808335304,-0.515675604,0.111092739,8.030806541,5.055583477,3.377938747
185,4136210512,-170.6854095,88.86288452,-33.93408585,-9.782229424,-0.384543806,-0.057517868,10.36018181,5.085486889,3.421122074
186,4136227179,-172.1803894,88.79212189,-35.61001205,-9.994578362,0.390013784,-0.535757184,11.40395069,4.267609596,3.085570097
187,4136243846,-172.5997772,88.72773743,-36.17401505,-9.984523773,0.661849618,-0.911256015,9.222720146,3.686776161,1.888495207
188,4136260513,-172.0142517,88.67795563,-35.68848801,-10.10439587,0.666405976,-0.198488086,6.554732323,2.628407717,0.61247021
189,4136277180,-170.0568237,88.62100983,-33.78457642,-9.777155876,0.032486454,0.178030744,3.765418768,2.696011782,-1.533816576
190,4136293847,-167.6926117,88.56796265,-31.42474747,-9.921274185,-0.078748949,-0.245467559,0.856687188,2.245958567,-2.374233484
191,4136310514,-164.7187653,88.54303741,-28.4264164,-9.870606422,-0.209657982,-0.14899838,-0.885968864,0.101855293,-3.101736307
192,4136327181,-161.7481232,88.51049805,-25.44103432,-9.846345901,-0.166976422,-0.43342036,-0.290153474,0.298804164,-3.318163872
193,4136343848,-157.7805786,88.5182724,-21.44160652,-9.982133865,0.022625476,-0.407597989,-1.306478262,-2.830677271,-4.023870468
194,4136360515,-152.9577332,88.54357147,-16.52134705,-10.02162647,0.552195191,-0.667216182,-5.232264996,-4.730128288,-4.621082306
195,4136377182,-148.0096893,88.58059692,-11.41489124,-10.15197468,0.954200327,-0.598831892,-8.888634682,-5.981156826,-3.944216251
196,4136393849,-143.852951,88.60058594,-7.088840485,-10.01099873,0.625774026,-0.51548332,-9.559123993,-4.814766884,-2.974826336
197,4136410516,-141.0050964,88.59361267,-4.097378254,-9.653749466,-0.053012781,-0.508350849,-8.022168159,-2.583873749,-2.100997448
198,4136427183,-139.2019958,88.5682373,-2.239969969,-9.552640915,-0.808116198,-0.237210006,-2.694776297,-0.835268557,-1.457016706
199,4136443850,-137.919342,88.54546356,-1.03389132,-9.684461594,-0.806605756,-0.06453044,5.182275772,-0.446647167,-0.598991454
200,4136460517,-136.8682098,88.51615143,-0.088256955,-9.789621353,-0.650322556,0.072849683,6.901337624,0.068802141,-0.604818463
201,4136477184,-135.7209167,88.48392487,0.96053648,-9.874648094,-0.329112738,0.063092045,6.497117043,0.008074405,-0.857205987
202,4136493851,-134.6915894,88.44770813,1.869738936,-9.943297386,0.069767304,-0.051874835,7.76082325,0.285716146,-0.921621978
203,4136510518,-133.3383179,88.40554047,3.127986908,-9.930544853,-0.086239286,-0.047516581,6.277180195,0.033430982,-1.607568502
204,4136527185,-131.4623108,88.36171722,4.926655293,-9.889316559,-0.602626622,-0.08796604,5.223959923,-0.709548593,-2.344816923
205,4136543852,-129.634079,88.33235168,6.675159454,-9.74152565,-0.756244302,-0.29047066,5.389827728,-1.401514173,-1.641261816
206,4136560519,-128.0064545,88.29750824,8.19194603,-9.4879179,-1.150795937,-0.254184365,7.230114937,-1.013763666,-1.647831917
207,4136577186,-127.6140518,88.2538147,8.378501892,-9.636350632,-0.83809793,-0.204239935,12.93179607,1.094994903,-0.596801877
208,4136593853,-127.5027237,88.23574829,8.258084297,-9.908455849,0.091363132,-0.045036823,14.42702293,0.619334698,0.92210263
209,4136610520,-127.6813965,88.21984863,7.966044426,-10.10248566,0.573970556,-0.274018079,7.348957539,0.775520742,1.246397614
210,4136627187,-127.4682541,88.20212555,8.195388794,-10.02907276,0.489164352,-0.21481204,-0.395165533,0.060606051,0.574127853
211,4136643854,-126.7520142,88.18038177,8.986588478,-9.941824913,0.068028219,-0.242979378,-3.91332674,-0.653892338,-0.274055958
212,4136660521,-125.6050873,88.1621933,10.20927048,-9.859078407,-0.309782773,-0.296223521,-3.960235834,-1.476392984,-0.617009997
213,4136677188,-124.3885117,88.15326691,11.49311638,-9.868146896,-0.498058528,-0.284413457,-3.418322802,-1.974457622,-0.181862995
214,4136693855,-123.0162735,88.15772247,12.91320419,-9.833441734,-0.512537777,-0.255964696,-2.304079771,-2.655588388,0.335865736
215,4136710522,-121.9751434,88.15985107,13.98458958,-9.834935188,-0.317676485,-0.339338839,-1.212582111,-2.062027216,0.674350441
216,4136727189,-121.3696365,88.15390015,14.60780048,-9.737875938,-0.281505495,-0.151942715,-0.497257799,-1.075682163,0.724666536
217,4136743856,-121.1772156,88.13303375,14.80546665,-9.780147552,-0.23720625,-0.035919428,0.252714097,0.079021573,0.399487644
218,4136760523,-121.1453323,88.09906006,14.8367424,-9.874736786,-0.07595364,-0.126935169,0.5665465,0.776813924,-0.137091964
219,4136777190,-121.2751617,88.05680847,14.72400093,-9.888461113,-0.105603926,-0.162416309,-0.490342319,1.281473756,-0.407741368
220,4136793857,-121.3460999,88.01396942,14.67227077,-9.85020256,-0.275398403,-0.172681719,-0.565682054,1.17168498,-0.451961666
221,4136810524,-121.286377,87.97948456,14.74195099,-9.910353661,-0.338441521,-0.240027875,-0.033360537,0.712833405,-0.182477683
222,4136827191,-121.2320328,87.95598602,14.80373669,-9.881135941,-0.301921308,-0.261603147,0.110397138,0.382762581,0.383863926
223,4136843858,-121.2111893,87.94091034,14.82457066,-9.797727585,-0.303060263,-0.264395922,0.56538111,0.187773108,0.870313048
224,4136860525,-121.4054565,87.92557526,14.62568378,-9.774250031,-0.260817349,-0.174774826,0.804904759,0.620698214,1.075259566
225,4136877192,-121.9683304,87.89997101,14.06188583,-9.799833298,-0.258500636,-0.13057141,0.619590402,1.601581216,1.026358485
226,4136893859,-122.7468872,87.86999512,13.28519726,-9.845554352,-0.315283954,-0.151498944,0.416071922,2.179429531,1.061025262
227,4136910526,-123.6856689,87.83526611,12.34596539,-9.846672058,-0.332083702,-0.214049652,0.526373029,2.681655884,1.058732867
228,4136927193,-124.7160187,87.80197906,11.31878567,-9.809393883,-0.263442189,-0.279481858,0.358673871,2.807542562,1.356634259
229,4136943860,-125.7662582,87.76699829,10.27641296,-9.805474281,-0.267189801,-0.260551751,0.032380853,2.957210064,1.328857183
230,4136960527,-126.7556381,87.73445129,9.292243004,-9.843781471,-0.323689938,-0.245229244,0.202692509,2.785272121,1.457701921
231,4136977194,-127.6309891,87.70211792,8.420080185,-9.883568764,-0.23960951,-0.256103396,0.331178606,2.592293262,1.377444625
232,4136993861,-128.3914795,87.67240906,7.667681217,-9.909442902,-0.236061096,-0.304845035,0.032444887,2.293508291,1.379365563
233,4137010528,-129.0238342,87.64250183,7.041074753,-9.847013474,-0.231240988,-0.313847303,0.168742865,2.096636534,1.201523781
234,4137027195,-129.6904755,87.61042023,6.377064228,-9.811132431,-0.284845501,-0.273823321,0.3814179,2.245087385,1.230747819
235,4137043862,-130.4755402,87.576828,5.59260273,-9.808796883,-0.335768878,-0.286440641,0.497571498,2.56069994,1.401187658
236,4137060529,-131.2647247,87.54290009,4.799593925,-9.825304031,-0.345436513,-0.273126215,0.736397147,2.625717878,1.443307757
237,4137077196,-132.0869751,87.50974274,3.973744869,-9.840620041,-0.295653492,-0.316040277,0.714703143,2.692631006,1.582243681
238,4137093863,-132.8840332,87.47795868,3.176002502,-9.851920128,-0.301006705,-0.333939195,0.568749249,2.582919359,1.675896645
239,4137110530,-133.5944366,87.44472504,2.46023488,-9.853327751,-0.267062962,-0.345887065,0.835620821,2.507041693,1.512359619
240,4137127197,-134.115387,87.4150238,1.939355373,-9.844314575,-0.208697498,-0.424475104,0.517677486,2.007709265,1.339934826
241,4137143864,-134.5415955,87.38618469,1.506381035,-9.842522621,-0.284108311,-0.387672096,0.926763594,1.822836637,1.231093764
242,4137160531,-134.8840942,87.35795593,1.14867866,-9.841935158,-0.358582914,-0.298464,1.454564452,1.640230894,1.153896928
243,4137177198,-135.1263733,87.33383942,0.88143909,-9.908467293,-0.275461793,-0.388181299,2.029146671,1.309852719,1.153743148
244,4137193865,-135.1853943,87.31591034,0.807295263,-9.899837494,-0.287474215,-0.350509942,1.47102046,0.660071135,1.05025506
245,4137210532,-135.0911865,87.30238342,0.889349759,-9.874872208,-0.292625487,-0.349992782,1.282716155,0.169306353,0.918272972
246,4137227199,-134.8704681,87.29427338,1.101578355,-9.86885643,-0.284463406,-0.388711184,1.080875039,-0.328457236,0.890086114
247,4137243866,-134.571701,87.29441833,1.401050925,-9.868398666,-0.318147212,-0.398840517,0.539589167,-0.855477035,1.066506386
248,4137260533,-134.2591705,87.29709625,1.717338324,-9.824935913,-0.343710005,-0.346420854,0.35621503,-1.002519488,1.147365689
249,4137277200,-134.0937958,87.2986145,1.88719213,-9.819026947,-0.30905661,-0.324072689,0.279889196,-0.641700625,1.373820424
250,4137293867,-134.0808258,87.29615021,1.906786084,-9.805254936,-0.349915415,-0.314021498,0.170574203,-0.18870157,1.517469287
251,4137310534,-134.2234802,87.29051208,1.76880765,-9.81687355,-0.326755673,-0.326431274,0.257529259,0.278442055,1.677689314
252,4137327201,-134.461853,87.28575134,1.53648448,-9.825819016,-0.331328183,-0.352222443,0.171214491,0.429518551,1.908818245
253,4137343868,-134.7918243,87.28199768,1.212974429,-9.806072235,-0.357283801,-0.326210618,0.153003871,0.56107825,2.148745537
254,4137360535,-135.1827087,87.27753448,0.824779749,-9.833961487,-0.358367383,-0.329714626,0.367151648,0.730711162,2.242436647
255,4137377202,-135.5669403,87.2778244,0.438907236,-9.871108055,-0.342088699,-0.368232131,0.612726212,0.528165817,2.437797546
256,4137393869,-135.9246979,87.28055573,0.076159202,-9.871423721,-0.296482056,-0.408478498,0.83539027,0.352001756,2.516723156
257,4137410536,-136.2293396,87.28473663,-0.235555425,-9.853796005,-0.289669961,-0.371423542,0.96122545,0.194240317,2.462769985
258,4137427203,-136.5296936,87.28575134,-0.543582082,-9.849909782,-0.290229291,-0.359231502,0.995866537,0.302991807,2.342428684
259,4137443870,-136.9098358,87.28725433,-0.932671845,-9.841656685,-0.273510396,-0.376468241,1.059168339,0.460356295,2.508411646
260,4137460537,-137.3627777,87.28502655,-1.39109087,-9.831423759,-0.333181113,-0.342607737,0.85028398,0.73934257,2.518029213
261,4137477204,-137.911087,87.28242493,-1.948379755,-9.825056076,-0.321314692,-0.376406997,1.070976019,0.928261876,2.729181051
262,4137493871,-138.5095062,87.27839661,-2.553527117,-9.822059631,-0.2740843,-0.369497359,0.914085388,1.090018988,2.771864653
263,4137510538,-139.192215,87.27056885,-3.241499901,-9.835688591,-0.28851372,-0.358711034,0.81930536,1.405310988,2.81882453
264,4137527205,-139.8851776,87.26219177,-3.939099073,-9.821787834,-0.27000773,-0.369727343,0.79366076,1.424207091,2.854061604
265,4137543872,-140.569809,87.25305939,-4.630694866,-9.865105629,-0.256121367,-0.404421389,0.927717626,1.440266132,2.834416389
266,4137560539,-141.2414856,87.24459076,-5.308944225,-9.848546982,-0.250498027,-0.416917592,0.897468925,1.384776115,2.84607029
267,4137577206,-141.875824,87.23416901,-5.951897621,-9.846909523,-0.262424201,-0.385971755,1.030302882,1.396077871,2.72197032
268,4137593873,-142.6174316,87.21878052,-6.702434063,-9.774027824,-0.293593228,-0.390975356,1.037820101,1.81630528,2.813382149
269,4137610540,-143.4404755,87.19928741,-7.540812492,-9.793468475,-0.283606231,-0.392175227,1.419692874,2.164292574,2.905447245
270,4137627207,-144.2555695,87.17825317,-8.373576164,-9.849948883,-0.243110657,-0.409818769,1.55828321,2.212098837,2.892961264
271,4137643874,-145.0839386,87.15428162,-9.218907356,-9.820214272,-0.232527435,-0.450697958,1.510682106,2.382794619,2.863493919
272,4137660541,-145.9045868,87.12751007,-10.058424,-9.831849098,-0.276888192,-0.462026566,1.630536318,2.496783257,2.816532373
273,4137677208,-146.6786499,87.10193634,-10.8549242,-9.896692276,-0.249783233,-0.396021307,1.84492743,2.355555058,2.808502674
274,4137693875,-147.3624115,87.07544708,-11.56293964,-9.966916084,-0.172506154,-0.427629918,1.952744484,2.266615152,2.593907356
275,4137710542,-147.9165344,87.05496979,-12.13145065,-9.971385956,-0.126158491,-0.470013142,1.374204636,1.731245518,2.466932058
276,4137727209,-148.3168335,87.04051208,-12.53800964,-9.820619583,-0.212991372,-0.500589252,0.898884177,1.141577244,2.265731573
277,4137743876,-148.6009064,87.03165436,-12.82736206,-9.861164093,-0.290007114,-0.481334865,0.850713074,0.668670774,2.141106606
278,4137760543,-148.844986,87.03192139,-13.07723045,-9.882361412,-0.255073667,-0.448176235,0.882620096,0.142400235,2.322079659
279,4137777210,-149.1059723,87.03244781,-13.33278656,-9.827406883,-0.210887983,-0.468633413,0.203127906,0.142233729,2.341544867
280,4137793877,-149.4681396,87.03152466,-13.68293285,-9.795735359,-0.245754108,-0.46912086,-0.197998986,0.352219462,2.559291601
281,4137810544,-150.0261993,87.01856232,-14.22528267,-9.695637703,-0.278321415,-0.432392299,-0.43353343,1.280641556,2.71374917
282,4137827211,-150.8469391,86.99189758,-15.02774811,-9.736169815,-0.334983528,-0.410601437,-0.608032703,2.383908749,3.05085063
283,4137843878,-151.9500732,86.95367432,-16.11322975,-9.766262054,-0.281924307,-0.446635067,-0.59130764,3.404062271,3.578485012
284,4137860545,-153.3373108,86.90219116,-17.47897339,-9.783472061,-0.260292768,-0.388406783,-0.845116615,4.515217781,4.13351202
285,4137877212,-154.9602661,86.82849121,-19.07959747,-9.744179726,-0.260323346,-0.374852657,-0.92651397,6.014420033,4.454618931
286,4137893879,-156.7571869,86.73505402,-20.86064148,-9.77877903,-0.283557653,-0.420619398,-0.558356881,7.317708492,4.838015556
287,4137910546,-158.5952911,86.62914276,-22.69457054,-9.810585022,-0.221827224,-0.493474543,0.124356084,8.033905029,5.137517929
288,4137927213,-160.5272522,86.507164,-24.62248421,-9.753647804,-0.232264116,-0.519724131,0.10755416,9.044224739,5.582091331
289,4137943880,-162.4730225,86.36406708,-26.57285118,-9.766828537,-0.223444298,-0.518997788,0.608039379,10.19896317,5.830906868
290,4137960547,-164.3307495,86.20501709,-28.44880486,-9.761385918,-0.177825347,-0.557398081,1.418156624,10.96863747,5.922292709
291,4137977214,-166.0618896,86.03113556,-30.20027542,-9.826046944,-0.082754366,-0.670832217,1.535885572,11.64953995,5.868839741
292,4137993881,-167.7377319,85.83989716,-31.89606476,-9.772492409,-0.092947327,-0.676224411,1.500578761,12.55986786,6.077058315
293,4138010548,-169.4928894,85.60992432,-33.66622543,-9.664978027,-0.164503142,-0.657780409,1.160070658,14.82514954,6.695710182
294,4138027215,-171.1642151,85.34693146,-35.3772316,-9.74446106,-0.413757324,-0.217942506,2.617934942,16.66460991,6.980308056
295,4138043882,-172.7539063,85.03691101,-37.02752304,-9.786032677,-0.225411773,-0.573248625,3.842710972,19.32251358,7.270720005
296,4138060549,-174.2389679,84.70683289,-38.57886887,-9.83468914,-0.064890809,-0.881837189,4.156403542,20.3640461,7.678028107
297,4138077216,-175.6106415,84.35798645,-40.01029968,-9.69548893,-0.03830998,-0.910183847,3.757063866,21.32740974,7.953942299
298,4138093883,-176.8174591,83.99041748,-41.27029037,-9.822544098,-0.172757536,-0.91756916,3.35151124,22.25958633,7.854374409
299,4138110550,-177.8152618,83.6282196,-42.32986832,-9.852954865,0.055446282,-1.116473794,3.890007019,21.77859116,7.484268665
300,4138127217,-178.732666,83.26053619,-43.28829575,-9.867764473,0.140847817,-1.009894013,2.643075228,22.00820541,7.550093651
301,4138143884,-179.4758301,82.8838501,-44.07699203,-9.846487045,0.167028874,-1.153283596,2.941259384,22.43831253,7.006258965
302,4138160551,179.935379,82.53018951,-44.67696381,-10.04580879,0.219218552,-1.375833392,0.931887746,20.9871006,6.135372639
303,4138177218,179.501709,82.2181778,-45.09261703,-10.02501392,0.33277595,-1.664244652,-0.747405112,18.4616127,5.051567554
304,4138193885,179.1848755,81.95587921,-45.35984039,-9.927527428,0.25331378,-1.708749056,-2.571286917,15.46016598,4.036417961
305,4138210552,178.9398041,81.72471619,-45.53701019,-9.871502876,0.062806606,-1.495199919,-3.630372763,13.59158802,3.382435083
306,4138227219,178.7415009,81.50830841,-45.68237686,-9.80742836,0.061197594,-1.544877648,-2.713526487,12.70506573,3.181259394
307,4138243886,178.5717316,81.31621552,-45.80939102,-9.874417305,-0.020668183,-1.471023917,-2.094902277,11.2485466,3.055244684
308,4138260553,178.4184723,81.15033722,-45.92124939,-9.852247238,0.021138437,-1.653685093,-2.01007247,9.67073822,2.930599928
309,4138277220,178.3063202,81.03316498,-45.97002029,-9.928751945,0.042774566,-1.565734267,-3.281934977,6.763411999,2.302114725
310,4138293887,178.2440796,80.95091248,-45.94703293,-9.835747719,0.153427705,-1.780675769,-4.543578625,4.689347267,1.579721212
311,4138310554,178.2112274,80.89198303,-45.89704895,-9.715110779,0.254030049,-1.774253011,-4.379336357,3.297014475,1.283343673
312,4138327221,178.2233582,80.84523773,-45.81917191,-9.601726532,0.15997538,-1.668139935,-3.32910037,2.575529814,0.99215275
313,4138343888,178.274292,80.80796814,-45.72670364,-9.681637764,0.136222467,-1.808910251,-1.866461277,2.011141062,0.830165148
314,4138360555,178.3326569,80.79550934,-45.63848495,-9.654660225,0.131581992,-1.792549849,-1.170526028,0.517972052,0.820675671
315,4138377222,178.4036102,80.79668427,-45.53504944,-9.567465782,0.066680051,-1.75617075,-1.313111782,-0.29510951,0.650671422
316,4138393889,178.4918823,80.8125,-45.41661835,-9.676389694,0.035842523,-1.664876819,-1.166754484,-1.172350883,0.483887911
317,4138410556,178.5855865,80.83892822,-45.29825974,-9.653015137,0.148615941,-1.653848648,-0.839929938,-1.815555811,0.471484929
318,4138427223,178.7065125,80.8611145,-45.14456558,-9.631866455,0.287273794,-1.567515373,-1.29444015,-1.553486824,0.146587864
319,4138443890,178.8290405,80.87705994,-44.99843979,-9.743803978,0.044311263,-1.592195749,-0.750452161,-1.17901659,0.231737331
320,4138460557,178.897049,80.89273834,-44.92027664,-9.739926338,-0.103597738,-1.583012938,0.006089419,-1.179490447,0.882555962
321,4138477224,178.9085083,80.90528107,-44.89252472,-9.659136772,-0.033320684,-1.616253138,-0.407863051,-1.008545041,1.365105748
322,4138493891,178.877243,80.91677856,-44.89998245,-9.643451691,0.097915731,-1.638443828,-0.877100587,-0.945845008,1.702245712
323,4138510558,178.813797,80.93583679,-44.9557991,-9.582824707,-0.002169164,-1.730715632,0.048196696,-1.411836147,2.148540497
324,4138527225,178.7356415,80.94920349,-45.0532074,-9.463926315,0.259414405,-1.704532266,1.634737015,-1.080138803,2.546574831
325,4138543892,178.6309814,80.9504776,-45.19908524,-9.579465866,-0.037946071,-1.610278726,2.913220167,-0.368771613,3.017015934
326,4138560559,178.4355927,80.93600464,-45.44836426,-9.676176071,-0.174712598,-1.480074525,3.604833841,0.552581191,4.020400047
327,4138577226,178.1299896,80.89402771,-45.78666687,-9.692075729,-0.088153742,-1.45451355,2.254794836,2.156467676,4.922985077
328,4138593893,177.6947021,80.81981659,-46.23768997,-9.7688694,0.023549177,-1.435827136,1.149965525,4.034442425,6.103923321
329,4138610560,177.1203156,80.73757935,-46.7506218,-9.685868263,0.033723619,-1.027947187,-3.534489155,4.444950581,6.794929028
330,4138627227,176.3696594,80.62212372,-47.36302948,-9.271222115,-0.105856329,-1.151073813,-8.226861,6.323126316,7.980025291
331,4138643894,175.3386688,80.2208252,-48.33352661,-9.042685509,-0.369679749,-0.848075092,-3.890278101,23.05470467,13.05056095
332,4138660561,174.0531158,79.45855713,-49.58908463,-9.811099052,-0.574945807,0.359927177,-2.421636343,44.06213379,19.10987473
333,4138677228,172.710434,78.40309906,-50.88022995,-10.71179104,-1.22262013,0.655418277,-3.977673769,60.93754959,23.72376823
334,4138693895,171.6252594,77.08013153,-51.9528656,-11.85073853,0.331979066,-0.920298755,-1.65783298,76.53923798,26.01267242
335,4138710562,170.6060181,75.59508514,-52.69852448,-13.33063126,1.260968089,-0.75582087,-17.11699867,86.16713715,25.85985184
336,4138727229,169.2138519,74.00901794,-53.50492859,-16.30611229,2.082528353,1.094263792,-36.260952,91.2495575,30.81875038
337,4138743896,167.5296631,72.29168701,-54.41689301,-16.88490105,1.354133129,2.065843821,-48.08730698,97.52922058,37.96009064
338,4138760563,165.8470764,70.54119873,-55.21366882,-18.01761818,0.837107956,3.966826439,-55.02734375,98.53186035,40.67277908
339,4138777230,164.5216064,68.53026581,-55.72012329,-14.84450626,0.361548334,1.57532537,-50.42201614,113.8003311,42.7999382
340,4138793897,164.0782471,66.06882477,-55.55495834,-12.51950264,-3.038083792,-2.275094509,-35.10022354,143.1055145,37.97021484
341,4138810564,164.8216095,63.78515625,-55.15083313,-10.97450638,-4.438122749,-5.072566509,23.26281738,134.6651459,28.54296684
342,4138827231,165.7913055,62.51526642,-54.75733566,-11.37604809,-3.172866344,-1.696466804,37.73408508,76.3152771,10.74532413
343,4138843898,166.2628784,62.55199432,-54.63936996,-7.754405022,0.556540072,6.190328598,22.62401199,-1.424747229,-1.948809624
344,4138860565,165.6145935,63.29145813,-54.25556564,-6.402667999,1.552311301,7.894759655,-58.76556015,-40.5288353,-19.1860199
345,4138877232,164.884491,64.52246094,-53.34786987,-5.840602398,-1.949492812,6.060164928,-92.05080414,-65.32125854,-40.19772339
346,4138893899,164.7493896,66.54323578,-52.52646637,-6.315593719,-0.850132763,5.977125645,-52.28326035,-111.6307983,-49.66007233
347,4138910566,164.7686157,69.20883179,-52.00226212,-7.222789764,0.172333464,5.548012257,-27.29180908,-151.1283569,-51.67183685
348,4138927233,165.0088654,72.36365509,-51.66247177,-8.122168541,0.87008208,4.663461685,-4.127428532,-180.8902283,-54.02006149
349,4138943900,165.4217834,75.90384674,-51.57587051,-9.543240547,0.868450642,3.124988794,20.50899887,-204.8778381,-53.77975464
350,4138960567,165.5228424,79.79128265,-52.27106094,-10.66279125,0.93293488,1.490539193,47.59931564,-227.8262024,-48.22524261
351,4138977234,164.4057312,83.82914734,-54.46786499,-11.43614769,0.93470788,0.13935709,64.28672028,-238.6033478,-42.93231964
352,4138993901,156.3929901,87.77366638,-63.70767593,-12.52322292,0.784479141,-1.340128422,73.37024689,-235.5544281,-39.13513184
353,4139010568,8.933299065,88.21974182,147.5666656,-13.41641521,1.00205183,-2.076443434,75.2877121,-228.8773041,-35.05173492
354,4139027235,-1.823518395,84.63173676,135.6500854,-13.25704002,1.055740476,-2.51254797,69.30898285,-216.1524963,-29.50530052
355,4139043902,-3.507548332,81.32273102,133.1898651,-12.97227573,0.552762628,-4.085289478,46.27763367,-197.2501678,-25.60898209
356,4139060569,-4.31332159,78.33574677,131.8677979,-12.4585247,-0.27598986,-5.963366032,30.49239731,-177.684082,-24.55953789
357,4139077236,-4.789739132,75.65055847,130.9683075,-11.32601929,-0.292228341,-5.876638412,24.72360229,-159.5309448,-23.26130676
358,4139093903,-5.364882469,73.46135712,130.22435,-9.868979454,0.447689325,-5.437367916,9.214367867,-129.7196808,-21.83508682
359,4139110570,-6.251161098,71.93997192,129.5347748,-8.296315193,0.774478137,-6.466386795,-12.99763298,-89.544487,-19.84923744
360,4139127237,-7.269535065,71.06717682,128.8803406,-7.511300087,0.255593628,-7.250520229,-23.21223259,-50.55131912,-16.90440178
361,4139143904,-8.145913124,70.8228302,128.3512421,-6.828912258,0.119846687,-7.571315289,-21.94232941,-13.19808102,-10.60163689
362,4139160571,-8.895802498,71.24121857,127.8459015,-6.761537075,0.35773769,-8.322319031,-15.70647812,26.18261337,-4.384921551
363,4139177238,-9.678513527,72.24120331,127.2013702,-6.843471527,0.535904229,-9.297170639,-9.642823219,61.0148468,-0.627109706
364,4139193905,-10.64087772,73.6365509,126.3687897,-8.945700645,-0.01262965,-6.973671436,-9.40849781,84.78804016,1.992373705
365,4139210572,-10.50197697,74.5997467,126.4116669,-10.70466328,-1.952526808,3.42899704,6.414329052,56.43590546,12.95240688
366,4139227239,-10.36021614,74.70375061,126.4907608,-11.91684818,-5.130271435,25.91542053,4.490413666,5.674552917,4.029141426
367,4139243906,-8.363292694,76.07269287,126.9783249,-10.91583633,2.581273794,1.83654964,92.09851837,79.69740295,22.31012917
368,4139260573,-8.828917503,78.79236603,125.6688995,-20.03461647,5.87702179,-14.52627182,49.34746552,163.7380981,9.13819313
369,4139277240,-10.62374878,79.51131439,123.7425079,-16.31910896,2.864799738,-2.284560204,6.387916565,45.95230103,-12.51884556
370,4139293907,-11.85929489,80.63452148,122.7068253,-9.079126358,1.341386795,0.708102822,-12.37296104,67.9236908,4.251338005
371,4139310574,-15.27004623,81.70729065,119.7350235,-9.293958664,-1.856321812,-0.454651207,-27.89791489,68.70435333,-9.896787643
372,4139327241,-19.5130558,82.53005981,115.7730865,-9.988743782,-2.580028057,-2.775554895,-18.5575943,56.55899811,-14.73091698
373,4139343908,-22.63057137,82.96879578,112.6040573,-12.31589413,-0.536252081,-1.904519439,2.095633268,32.88953781,-11.2976675
374,4139360575,-25.1926918,83.16925049,109.9997025,-10.67832279,1.155558944,0.999078333,1.930886865,18.34115028,-10.72737122
375,4139377242,-29.02489281,83.51895905,106.0794678,-9.438329697,-1.410464764,1.778075218,4.222533226,30.78392982,-13.08420944
376,4139393909,-32.8448143,83.88855743,101.9102707,-9.650260925,-0.441822231,0.18224737,19.96977806,32.80738449,-10.50702858
377,4139410576,-36.9421196,84.17260742,97.61962891,-9.649250031,0.101131961,1.059074521,10.73432922,28.98616219,-10.58248901
378,4139427243,-42.18797684,84.47465515,92.40242004,-9.404384613,-0.894615412,1.269100666,-2.734090805,33.36878967,-10.70885849
379,4139443910,-48.78391647,84.77258301,85.91376495,-10.00262737,-1.077682137,0.733672321,-7.622573853,38.21711349,-11.21208668
380,4139460577,-55.71483231,85.0173645,78.95186615,-9.6848526,-1.539326668,0.68975842,0.741318762,38.05955124,-9.522288322
381,4139477244,-62.83361053,85.208992,71.6592865,-9.698699951,-1.133113146,0.500340223,9.358643532,37.59247208,-7.544453621
382,4139493911,-70.18182373,85.32404327,64.05291748,-9.638611794,-0.770927727,0.400171161,14.48334122,36.97864151,-7.04458189
383,4139510578,-78.09220123,85.33809662,55.88074112,-9.740878105,-0.576982439,0.44576326,14.62308311,38.30620575,-8.458857536
384,4139527245,-86.03325653,85.2493515,47.68165588,-9.695314407,-0.650900483,0.251421243,14.37874699,38.92954636,-9.193172455
385,4139543912,-93.5008316,85.07956696,39.97457123,-9.825558662,-0.645795166,0.023197532,13.27686596,38.62882996,-8.679031372
386,4139560579,-100.5631409,84.84577179,32.72961426,-9.583613396,-0.784611642,0.204095036,9.825120926,39.29069519,-7.594888687
387,4139577246,-107.5349731,84.53359985,25.68322372,-9.631258011,-0.867710531,0.091765806,3.239649773,42.18959427,-6.989072323
388,4139593913,-114.1573334,84.14723206,19.05877495,-9.556591988,-0.919419765,0.133654505,-1.249024987,44.56362915,-6.041348457
389,4139610580,-120.4713974,83.6657486,12.77657223,-9.640462875,-1.237400055,-0.152505323,-3.491526604,48.49356079,-5.644881248
390,4139627247,-126.2521667,83.14238739,7.000514984,-9.697520256,-1.352824926,0.300972581,-2.002303362,50.19730759,-2.659364462
391,4139643914,-131.6297913,82.55503082,1.579387069,-9.818780899,-1.036436439,-0.496619314,0.642251313,53.32889557,-0.292295039
392,4139660581,-136.4891815,81.91803741,-3.307689905,-9.981827736,-0.680563927,-1.289273381,-0.466489017,54.7332077,1.740843296
393,4139677248,-140.7321777,81.23236084,-7.52255249,-9.995542526,-1.09699285,-1.207130909,-3.860592365,55.05906677,2.2502985
394,4139693915,-144.3153839,80.53980255,-11.11553955,-10.23764896,-0.954446316,-1.438008785,-1.574902296,53.44435883,3.473584414
395,4139710582,-147.4969482,79.80819702,-14.27014923,-10.15511417,-0.388687015,-2.242705345,-3.842521429,54.1635437,3.78735733
396,4139727249,-150.4542236,79.02256012,-17.16607475,-9.90084362,-0.546858132,-1.683790803,-6.083610058,56.54457855,4.69859457
397,4139743916,-153.2584839,78.12763214,-19.94102478,-9.588834763,-1.176060081,-1.195069551,-4.505977154,62.603508,5.393783569
398,4139760583,-156.0946045,77.10081482,-22.75512123,-9.657155991,-0.794498742,-1.536154509,-4.693841934,70.87457275,8.02740097
399,4139777250,-159.0101624,75.92508698,-25.53883171,-9.601010323,-1.206845641,-1.30672574,-11.956954,79.77072906,10.70759487
400,4139793917,-161.9003601,74.56848907,-28.24840355,-9.526491165,-1.757436037,-1.860888839,-15.63405514,90.25619507,13.42714024
401,4139810584,-164.6406097,72.99863434,-30.83043861,-10.13165283,-1.331170678,-1.94664228,-15.09058762,102.3574982,15.96568489
402,4139827251,-167.2007141,71.29110718,-33.17816925,-10.97059059,-0.934120715,-2.214107752,-18.95997047,109.5859299,18.61518669
403,4139843918,-169.4476471,69.59095001,-35.18146133,-12.21341419,-0.237501159,-2.301183939,-20.98848152,107.7593842,20.40834808
404,4139860585,-171.5939178,67.97277832,-36.90629196,-12.47275734,0.207403883,-2.672804832,-31.73252678,101.6680298,22.5970211
405,4139877252,-173.6577606,66.35169983,-38.49526978,-13.02886581,0.807944477,-2.249073029,-35.3964653,100.9487762,25.85176086
406,4139893919,-175.758316,64.63331604,-40.03577423,-13.03554916,1.075515747,-1.758245468,-41.34753799,105.9547958,30.30548096
407,4139910586,-177.9201965,62.75289154,-41.48827744,-13.39543533,1.552648664,-1.634642959,-50.99319077,114.5545731,33.97818375
408,4139927253,179.8054962,60.67474365,-42.80812073,-13.71580791,0.897826552,-0.4753263,-66.11113739,125.0805893,37.10390472
409,4139943920,177.6102753,58.33319855,-43.98485184,-14.85028744,0.349776298,0.737351298,-70.2468338,139.4685669,40.62748718
410,4139960587,175.3588104,55.74873734,-45.06906509,-17.42644882,-0.209563866,2.905308008,-79.85386658,152.4589386,46.48448563
411,4139977254,172.900238,53.14438629,-46.0659523,-18.64819717,-1.71719408,5.703576565,-98.17307281,151.789978,52.25717545
412,4139993921,170.6811218,50.07910919,-46.74848557,-15.7559166,-6.981708527,2.61323905,-100.3447647,178.3671875,53.14500809
413,4140010588,169.6147003,45.26012802,-46.85800171,-17.60840034,-5.748094082,-5.742911816,-58.42503738,284.1300354,55.60102463
414,4140027255,169.2915192,41.26905441,-46.93358994,-22.79500961,-2.75516963,1.019154549,-15.62855721,234.8514404,48.89152145
415,4140043922,168.2360382,38.06010818,-47.56264877,-17.01155472,-4.572678089,4.456390858,-38.56320572,183.286087,67.87944794
416,4140060589,168.1886902,34.48104477,-48.19261169,-13.45379448,-3.190763712,-0.937077999,20.17921829,204.1500397,75.61684418
417,4140077256,167.7017212,32.2833786,-48.72606277,-11.6343708,-1.074081779,-4.586972237,-10.95214176,123.5719757,55.62617111
418,4140093923,167.3217773,31.89913177,-48.24073029,-9.123381615,-2.553399563,-3.674482584,-37.62122726,28.0725708,-17.12846947
419,4140110590,167.4402924,32.91077423,-47.98888779,-13.07975674,-3.716978788,7.678711414,-0.349342555,-56.19519424,-23.7110157
420,4140127257,167.5102844,34.40553284,-48.21763229,-5.382823944,-1.614681721,4.548482895,12.45879745,-89.71901703,-6.26435709
421,4140143924,167.8633575,36.23529434,-48.19810486,-5.283180237,-1.602074742,2.135537863,21.17434692,-106.7194824,-22.30075836
422,4140160591,168.5233612,38.95915985,-48.07014084,-7.147977352,-1.701219916,2.416027546,35.58485413,-158.3676758,-37.35058212
423,4140177258,169.2961273,42.46642685,-47.95061874,-7.106835365,0.0625505,1.945956707,42.36977768,-205.0662231,-43.76314163
424,4140193925,169.9789734,46.44629669,-47.84261703,-7.613478661,1.191260576,0.716325283,37.13837814,-233.6392517,-45.46135712
425,4140210592,170.7175446,50.87977219,-47.6421051,-8.384332657,0.924131393,-0.216532767,36.00971222,-260.4575806,-50.40825653
426,4140227259,171.6552582,55.70682907,-47.3303833,-9.666558266,0.933380961,-0.815586448,42.01388168,-284.010376,-53.41908646
427,4140243926,172.7765198,60.93875122,-46.89953613,-10.34431458,1.177521706,-1.294853926,46.03382874,-308.6724243,-53.98983383
428,4140260593,174.1552429,66.39573669,-46.12791443,-11.60260296,1.603404999,-2.190207958,41.98840714,-322.4170227,-55.72338486
429,4140277260,175.9194031,72.07288361,-44.75204468,-13.31509972,1.655118942,-2.687992096,29.39536858,-336.2427063,-56.7301178
430,4140293927,178.8192444,77.93929291,-42.0508461,-14.86269569,1.02149415,-2.825606823,18.08545113,-349.0228271,-56.18906021
431,4140310594,-173.2201233,83.84442139,-34.19805908,-16.90400505,0.818313956,-3.999950886,12.64938545,-356.0954285,-55.39311981
432,4140327261,-93.17932129,88.3184433,45.81156158,-19.01484299,0.669062376,-5.834157944,7.60295248,-360.5803223,-55.45015335
433,4140343928,-24.3163414,83.48419189,114.7907867,-20.12721062,0.336628914,-7.267755032,-0.363552034,-361.5857239,-58.01206207
434,4140360595,-18.26581192,77.61090851,121.2197266,-19.90234375,-0.299164712,-8.69086647,-17.07273674,-350.2974854,-67.01526642
435,4140377262,-17.0878315,72.09659576,122.8001251,-18.19454575,-0.876121283,-10.72550297,-20.12202072,-322.2777405,-75.14990234
436,4140393929,-17.13064766,67.2906723,123.0143204,-15.49302483,1.244769216,-13.49266529,-13.84943867,-276.5282593,-78.88876343
437,4140410596,-17.58110809,63.49182129,122.7953262,-12.10259342,3.844528437,-17.33325958,-14.34010696,-215.6312103,-71.54637909
438,4140427263,-18.08215523,61.05377579,122.5269699,-7.736768246,4.482933521,-21.43893433,-15.11601639,-136.7744598,-50.26701736
439,4140443930,-18.31207275,60.42098236,122.3114624,-4.609640121,3.130473614,-23.1810894,-1.859004617,-34.01913452,-16.20435143
440,4140460597,-18.05926132,61.53364563,122.0896301,-5.733038425,2.875800371,-20.93478775,27.43197441,65.40488434,16.36336708
441,4140477264,-17.71578789,63.84072113,121.6951218,-8.673947334,2.207746029,-19.43316078,42.23405838,134.9343567,33.84847641
442,4140493931,-17.77438164,66.82099915,121.0419388,-14.95460606,-0.726808965,-10.04857349,32.67450333,175.0641174,40.59147263
443,4140510598,-18.50153542,68.06619263,120.5386047,-16.78115463,-7.001644135,18.37971497,-15.18827629,74.31478119,13.92920208
444,4140527265,-16.33985901,69.4213028,120.1809082,-6.033687592,-2.329003334,20.67429924,150.2677307,79.67624664,18.60723686
445,4140543932,-15.11321735,73.58239746,119.4197235,-17.6645565,13.14889145,-15.04260159,117.4682846,244.0732117,55.3986702
446,4140560599,-18.5617466,75.87408447,115.5372391,-29.03572845,11.86573029,-7.369318485,18.40126991,149.045105,-17.28002739
447,4140577266,-22.83958244,77.953125,112.1009445,-8.295984268,-2.967292786,0.238507003,-55.28530502,132.8242645,1.999812603
448,4140593933,-29.89538002,80.34732819,104.9665146,-10.16563797,-4.1956954,-0.466326296,-2.311176538,163.9085693,-6.878623962
449,4140610600,-39.62614059,82.2949295,95.4581604,-7.143055439,-7.642756462,-4.373889446,-19.26783752,144.3773651,-2.647040129
450,4140627267,-51.31281281,83.75402069,82.97602081,-10.65803623,-7.006425381,-5.173064232,42.78334427,125.4187622,0.006205061
451,4140643934,-60.0549736,84.75738525,73.15276337,-14.1831646,6.396224499,-2.434836388,62.41876984,82.13221741,17.96315575
452,4140660601,-74.33094788,85.28150177,58.641716,-11.43957901,2.342997551,-0.206370071,11.37197495,81.25351715,1.165303111
453,4140677268,-91.15979767,85.35645294,41.6932373,-12.02194691,1.075858593,-1.686590075,4.379345417,82.26289368,-4.400380611
454,4140693935,-104.073616,85.06748199,28.68809319,-10.19362259,0.349918783,-1.254390836,3.326021194,66.37024689,-6.829835892
455,4140710602,-113.546608,84.54109955,19.32261276,-9.719809532,-0.665747464,-0.947922051,-8.201282501,57.92609024,-11.77838516
456,4140727269,-120.5238266,83.91959381,12.75805283,-10.18909836,-1.663323164,-1.251533866,-26.19594955,51.82840347,-13.54243755
457,4140743936,-125.759491,83.29279327,7.926357746,-9.905421257,-1.388091445,-1.164325595,-25.49432182,47.22444916,-12.18906116
458,4140760603,-130.0039063,82.66671753,3.949658871,-9.689994812,-1.013482571,-1.068390965,-17.30712509,45.71895599,-10.0953083
459,4140777270,-133.5540771,82.03664398,0.639327884,-9.620432854,-1.168309808,-0.990285873,-15.62097549,44.55277634,-8.945934296
460,4140793937,-136.8184357,81.36891937,-2.372436047,-9.591094017,-0.940862119,-0.966761172,-16.50065231,46.45218277,-8.09883213
461,4140810604,-140.1471863,80.63586426,-5.368968964,-9.620677948,-1.182630062,-0.762326241,-21.60517693,51.22924423,-6.467098236
462,4140827271,-143.5581512,79.82621765,-8.475428581,-9.560403824,-1.605461717,-0.911166012,-20.42124557,57.38985825,-3.494552612
463,4140843938,-146.8686218,78.97284698,-11.5400629,-9.793341637,-1.508630276,-1.258624315,-17.33999062,61.01209259,0.205602422
464,4140860605,-150.0458679,78.06555939,-14.51210976,-9.860855103,-0.990180016,-1.686945677,-15.33178234,64.63018799,3.406779051
465,4140877272,-153.0753784,77.07962799,-17.33583641,-9.865724564,-0.833277643,-1.699757457,-15.76643467,69.05153656,5.52417469
466,4140893939,-155.8374329,76.01716614,-19.97136688,-10.04021931,-0.449828774,-2.079244137,-11.37962437,73.05573273,7.33546114
467,4140910606,-158.4221344,74.93003082,-22.40759277,-10.17486191,-0.381954193,-1.746892691,-13.0277586,74.02571869,10.06550789
468,4140927273,-160.9174194,73.76160431,-24.62940025,-10.70413303,-0.89594388,-1.586990595,-20.79687691,77.92410278,11.00261497
469,4140943940,-163.2403717,72.5222702,-26.66822243,-11.36252689,-0.979202986,-1.60775733,-21.74897766,81.3653717,12.50271702
470,4140960607,-165.5668793,71.17345428,-28.60621834,-11.24537373,-0.369581193,-1.408662677,-28.53881264,87.38680267,14.76334858
471,4140977274,-168.022934,69.64226532,-30.58379364,-11.04368973,-0.655118763,-0.954662085,-35.01474762,98.23795319,19.37737083
472,4140993941,-170.4956665,67.88414764,-32.65462494,-11.32335186,-1.269759297,-1.154653192,-31.97920227,111.7326202,26.1886692
473,4141010608,-172.9029083,65.97744751,-34.77403641,-12.02302265,-1.329422474,-1.441020846,-26.86408806,120.1153793,34.42193985
474,4141027275,-175.6003571,63.95175934,-36.86697769,-12.38372612,-0.159743294,-1.597741008,-47.48594666,125.9763489,42.33308029
475,4141043942,-177.9385071,61.73802567,-38.78732681,-12.92952347,0.294828922,-0.757029831,-37.18401718,135.3087006,46.65275574
476,4141060609,179.5140991,59.27946472,-40.63324738,-13.29859257,0.025321968,0.402438104,-55.84191132,147.9908447,54.12666702
477,4141077276,177.0198975,56.63147736,-42.26292419,-14.5312252,-0.520751238,1.961075306,-66.16691589,156.9962158,58.29902649
478,4141093943,174.345932,53.81801987,-43.68335342,-16.75378418,-0.593305826,4.557458401,-89.81856537,164.4486847,62.82517242
479,4141110610,171.5826111,50.55773163,-44.71892929,-16.39006042,-3.413076639,4.012689114,-116.0764465,189.2863617,63.42670059
480,4141127277,169.6460419,45.86732864,-45.022789,-17.67186546,-5.828052998,-2.083509922,-101.9480209,275.5059204,59.55221558
481,4141143944,168.9750824,40.77138138,-44.63411713,-25.28960609,-5.920475006,-1.745054483,-55.65774918,303.4337769,41.72050858
482,4141160611,168.0042419,36.71825027,-45.11314392,-22.89323425,-3.090815067,2.603310823,-39.66352463,233.679184,72.19865417
483,4141177278,167.3864136,33.09835434,-45.71323395,-17.05684853,-5.546301365,1.127168894,-15.87573719,205.7887573,76.85842896
484,4141193945,167.3434753,29.89323807,-46.68399048,-16.46120071,-2.516989946,-3.488873959,28.42819786,176.673172,92.26731873
485,4141210612,166.9176636,29.3403759,-47.17300415,-9.415873528,-1.851409316,-8.598682404,-10.47695923,26.56339264,33.99974823
486,4141227279,166.7066498,30.14406013,-46.75462341,-10.01593113,-5.221712589,3.312016487,-24.55085564,-42.07028961,-30.47940445
487,4141243946,166.8045044,31.85770416,-47.01133728,-8.361988068,-3.458672285,6.172869205,14.36764336,-103.1953812,-8.953314781
488,4141260613,166.893631,34.04130936,-47.48818588,-3.491517067,-0.719173372,3.789154768,21.47394371,-133.1207886,-4.678024292
489,4141277280,167.2747955,36.63542938,-47.71693802,-5.44562149,-1.761406064,0.373114318,31.37333679,-154.2917633,-22.13064003
490,4141293947,168.2349701,40.0997963,-47.82685852,-7.750019073,-2.087454557,-0.180097699,62.25865173,-204.3113098,-37.2901001
491,4141310614,169.4434662,44.28820419,-47.94219971,-7.963524342,0.166637167,0.441214204,77.70011902,-247.6260834,-41.87664413
492,4141327281,170.449234,48.81219482,-48.0102272,-7.790864468,1.467831969,0.533930182,63.85983658,-267.8371887,-42.88739395
493,4141343948,171.2384796,53.58732605,-47.8780098,-8.872577667,1.904441237,-1.662270784,41.72962952,-282.1407471,-48.7766037
494,4141360615,172.0976868,58.58786774,-47.40197372,-9.710221291,1.328798056,-2.536558867,28.39779854,-294.6267395,-57.53391647
495,4141377282,173.1374359,63.83764648,-46.6351738,-11.8764286,1.391672611,-2.907881498,22.60115814,-309.5938721,-60.74300385
496,4141393949,174.4135742,69.25647736,-45.53554535,-13.23692799,1.182026744,-3.611741066,16.5578022,-320.4266052,-59.66461945
497,4141410616,176.4702606,74.74680328,-43.72360229,-14.25148869,0.523024619,-4.63845253,20.47090721,-325.7407837,-57.98252869
498,4141427283,-179.4164124,80.30967712,-40.11056137,-14.95663452,0.156880423,-4.590338707,35.45422745,-332.3730164,-53.70513535
499,4141443950,-165.9062042,85.75609589,-27.26887512,-15.94134808,0.512979209,-5.116808891,45.45110321,-334.0348206,-49.40738678
500,4141460617,-53.94202423,87.64482117,84.13354492,-17.38268471,0.279269457,-6.678199291,38.77988052,-329.5674438,-49.86476135
501,4141477284,-22.25940132,82.73232269,115.459938,-18.42053795,0.310000062,-9.209588051,26.87180519,-319.5122681,-50.78960419
502,4141493951,-17.40928459,77.53871918,120.229538,-16.84807777,-0.518625438,-9.741643906,9.383469582,-309.6261597,-57.85515213
503,4141510618,-16.41998291,72.67636871,121.3274384,-15.76979542,0.281938612,-10.42362309,-3.772360563,-284.1816406,-67.01911163
504,4141527285,-16.74494743,68.38135529,121.3942642,-14.70181751,2.219744682,-12.23524189,-22.69565773,-247.5343018,-70.6112442
505,4141543952,-17.68984604,64.84779358,121.1393585,-12.01866817,2.846684694,-14.90321541,-42.06720352,-200.9139709,-66.9057312
506,4141560619,-18.59590149,62.33565521,120.9091721,-8.906699181,2.580833435,-17.13430977,-41.42147064,-141.5449677,-51.12539291
507,4141577286,-19.47003365,61.12759018,120.6035919,-7.102627277,2.760498047,-19.59590912,-35.73984528,-65.9380188,-30.19957542
508,4141593953,-20.33115578,61.21016312,120.1798859,-6.069347858,2.82556057,-19.7313385,-28.84080505,8.560771942,-8.195847511
509,4141610620,-21.29590607,62.54864502,119.3142776,-6.645515442,2.145207882,-19.28532982,-11.5268898,83.46635437,7.29755497
510,4141627287,-22.2191658,64.8321991,117.9350357,-8.868034363,1.628329158,-18.13774872,19.34719658,140.5235443,18.35900116
511,4141643954,-22.58861732,67.15144348,116.7726212,-17.13715553,-2.332567215,-1.636345267,42.09024048,139.1228333,28.44089508
512,4141660621,-22.65548515,67.46569061,115.8672485,-13.9650507,-9.624227524,34.13917923,46.65173721,25.1282692,-10.44693851
513,4141677288,-19.65184021,69.90895081,115.0026169,-6.082185745,3.014231205,3.833953381,229.0707703,143.2390442,36.97041321
514,4141693955,-20.87427139,73.86203003,112.1923981,-28.88006401,20.09075737,-15.68820667,87.50915527,240.291748,34.58069992
515,4141710622,-25.08155632,75.20319366,108.6641998,-16.74514198,7.105998993,-0.943527699,-47.85528564,95.76500702,-18.94285011
516,4141727289,-32.44231033,77.66702271,102.2633438,-10.0999651,-4.183014393,-1.278267264,-67.664711,172.3891144,-6.293776035
517,4141743956,-41.39330673,79.59857941,94.01739502,-8.981215477,-8.214116096,-2.327796459,-51.3770256,150.6194153,-6.851382256
518,4141760623,-51.08930969,81.19230652,84.2719574,-8.362560272,-11.26848984,-6.454598904,-4.620954037,135.9534607,3.034547329
519,4141777290,-56.91088104,82.31428528,77.17092896,-12.78363609,-0.628114581,-3.866084576,72.92520905,88.58364105,20.09489822
520,4141793957,-62.62769318,83.10610962,70.9026413,-12.22701168,3.129643679,-0.133755952,30.5841732,64.76821136,18.59991264
521,4141810624,-72.56786346,83.72515106,60.50245667,-11.74668121,2.388529778,0.0163908,24.03581429,79.84188843,8.588170052
522,4141827291,-83.27267456,84.00714111,49.59992981,-10.70241261,1.280072331,-0.720580876,8.705153465,71.46570587,3.503452539
523,4141843958,-93.69600677,83.93572998,39.11283875,-9.881729126,-0.007485158,-1.180802822,0.899717331,65.54964447,-4.389033318
524,4141860625,-102.7649689,83.63274384,30.2486515,-9.870905876,-1.652826548,-1.263331771,-14.83732605,59.2244606,-8.066351891
525,4141877292,-110.1094131,83.24152374,23.13734245,-9.737252235,-1.744554639,-0.844844699,-16.21439934,53.0643158,-7.042417526
526,4141893959,-116.5165558,82.78811646,16.90717316,-9.63096714,-1.267897844,-0.609865069,-12.82659435,52.17052078,-5.325466633
527,4141910626,-122.271019,82.27574921,11.27660275,-9.440904617,-1.269288421,-0.603670895,-9.727471352,53.00183105,-3.567219734
528,4141927293,-127.7712021,81.66871643,5.927270889,-9.561646461,-1.220700145,-0.548862815,-11.63238811,57.27014542,-2.445593357
529,4141943960,-133.3113251,80.91840363,0.601512849,-9.566901207,-1.30150342,-0.510397434,-15.9695816,65.66944122,-1.103668809
530,4141960627,-138.6620026,80.02805328,-4.473920345,-9.624889374,-1.510349393,-0.879455984,-20.14224815,73.08847809,0.791941583
531,4141977294,-143.505722,79.05684662,-9.11779213,-9.806731224,-1.561595201,-1.23307097,-16.04514885,76.76274109,4.402393818
532,4141993961,-147.9199066,77.98535156,-13.32622051,-9.740607262,-1.138365269,-1.368719101,-16.8248024,81.08290863,6.954195499
533,4142010628,-151.8733826,76.79603577,-17.06362343,-9.822379112,-1.107582331,-1.613920927,-17.80147934,85.95375061,8.208999634
534,4142027295,-155.3321838,75.50698853,-20.32180214,-10.16971302,-1.159677029,-1.921523929,-17.15006828,89.75510406,9.170969963
535,4142043962,-158.2993469,74.14793396,-23.13354492,-10.86514473,-0.544519186,-1.944438577,-14.63737869,92.02637482,10.12783527
536,4142060629,-161.0425568,72.74416351,-25.55747986,-11.39885712,-0.022916075,-1.455457449,-24.61507034,93.06784058,11.23395634
537,4142077296,-163.7193756,71.23622131,-27.80078697,-11.57903099,-0.019664818,-1.672157645,-32.03746033,98.52307892,13.91264439
538,4142093963,-166.3158875,69.62915039,-29.9756546,-11.70603657,-0.528725445,-1.435963154,-32.26203537,104.1446457,18.92643166
539,4142110630,-168.8045959,67.91828918,-32.12710953,-11.9341774,-1.042175889,-1.707963228,-28.42419052,110.0117416,25.15952301
540,4142127297,-171.1915283,66.10928345,-34.22101212,-12.00509834,-1.175857306,-1.766689062,-26.98374748,115.1170044,31.09780312
541,4142143964,-173.5229492,64.19447327,-36.18840027,-12.5488205,-0.323246807,-2.023147583,-32.19548798,120.1763763,35.51679993
542,4142160631,-176.0068817,62.17239761,-38.03269196,-13.02506542,0.782780409,-0.763765097,-49.70026016,125.0896454,40.27553558
543,4142177298,-178.3172913,59.9921608,-39.66790771,-12.78837585,-0.739526212,-0.682952523,-52.1635437,132.7280273,42.54065704
544,4142193965,179.2306366,57.57425308,-41.21861267,-14.21396065,-0.382032573,1.305212259,-66.96531677,145.185379,48.69877243
545,4142210632,176.7077789,54.97718048,-42.62113953,-15.35256863,-1.27534306,3.685600042,-80.78812408,153.8110352,53.84828949
546,4142227299,173.8731842,52.18133545,-43.84605789,-16.14406204,-2.09689784,5.88838625,-110.3339767,163.3574219,58.90029907
547,4142243966,170.8956451,48.03903198,-44.65843964,-16.44432449,-6.106940746,0.313447118,-140.602478,241.9826202,65.56983948
548,4142260633,169.4201355,42.80334473,-44.55176544,-23.73601532,-8.129224777,-0.787613928,-92.47169495,310.0685425,50.91539001
549,4142277300,168.190918,38.30305862,-44.62324524,-26.30832291,-5.25984478,3.350533009,-70.37094879,264.0383911,57.27338791
550,4142293967,167.0948181,34.28388214,-45.21659088,-20.98683167,-4.857750416,4.103462219,-44.10842133,229.2239685,81.30645752
551,4142310634,166.709137,30.27645302,-46.13456726,-17.42066193,-4.237560272,-3.126286268,6.843034267,223.4456635,101.5215988
552,4142327301,165.9722443,29.27902412,-46.28569794,-9.029105186,-3.381612062,-9.985484123,-39.15705872,56.12185669,23.46186447
553,4142343968,166.2583008,29.87986183,-45.5067215,-15.02635098,-5.464221478,3.366926193,-5.365427494,-25.41238022,-46.43223953
554,4142360635,166.6440277,31.8651371,-45.92416382,-7.58239603,-4.150302887,9.101151466,36.53705597,-120.9985123,-5.321876049
555,4142377302,167.0839691,33.76475525,-46.17166519,-3.203127861,-0.863475323,2.350403786,34.99304199,-113.985405,-12.05240917
556,4142393969,167.9442444,36.28649139,-46.06390381,-5.766515255,-3.292827368,0.550993979,48.44136429,-146.7352753,-36.19619751
557,4142410636,169.4197388,39.79817963,-45.8458786,-7.436581612,-1.52064395,0.74242878,80.98387909,-204.735611,-49.76980209
558,4142427303,171.0495453,43.97760773,-45.63729095,-7.248761177,1.173163533,0.908595324,89.93859863,-245.7037659,-50.02484131
559,4142443970,172.3707886,48.53943253,-45.3932724,-7.895844936,2.383345127,1.251163244,69.1993866,-269.5352173,-47.80147171
560,4142460637,173.546524,53.35546875,-44.89613724,-8.288352013,2.276878357,-0.760098934,47.8849678,-284.6177063,-52.39854431
561,4142477304,174.8209686,58.41427231,-44.08824158,-10.17679119,1.757656813,-2.485899925,36.82820129,-299.3422852,-56.13659286
562,4142493971,176.2314301,63.79463577,-42.96799469,-12.02699089,2.000156879,-3.207183361,26.25642776,-319.4269714,-55.89727402
563,4142510638,177.9650879,69.43423462,-41.34467316,-13.26359463,1.599050522,-3.479952335,15.0582037,-336.0909119,-54.08244324
564,4142527305,-179.2958527,75.15052032,-38.63142014,-14.5210743,1.022237539,-4.220621586,9.629243851,-342.4144592,-51.8407135
565,4142543972,-173.0902863,80.83078003,-32.54859543,-15.57680798,0.041673005,-4.248960972,15.44539356,-344.7603455,-51.51263428
566,4142560639,-148.3049164,86.03054047,-8.045928001,-17.46373749,0.177078485,-6.048970222,25.34052658,-343.0572815,-55.21275711
567,4142577306,-53.03323746,86.11219025,86.77882385,-19.02417564,-0.032307085,-8.027999878,35.23461914,-341.9278564,-59.36790848
568,4142593973,-27.51079369,80.89157104,111.9235764,-18.95148849,-0.668640614,-8.014052391,31.24725914,-342.9396057,-66.63510895
569,4142610640,-21.9935894,75.42137146,117.3327179,-17.88422394,-0.001295801,-9.241261482,13.60261726,-325.7756653,-75.11452484
570,4142627307,-20.88175011,70.39553833,118.7799301,-16.48012352,0.128273427,-12.49924183,-15.79440975,-290.1766357,-84.78679657
571,4142643974,-20.8297596,66.04521942,119.1663284,-14.44950676,3.052348614,-15.1808176,-17.84528542,-247.1779327,-83.23729706
572,4142660641,-21.14948273,62.79527664,119.2547913,-11.06761265,5.105683327,-18.97244453,-23.41997719,-183.1016693,-66.05345154
573,4142677308,-21.25710678,61.07444,119.1585541,-6.937491894,3.879670858,-23.52695084,-0.80397433,-95.52107239,-38.23274994
574,4142693975,-20.99206161,61.0513649,118.9917984,-5.026255131,3.866318941,-23.75113678,25.21379471,0.190065861,-3.373392582
575,4142710642,-20.8391571,62.54278564,118.4395523,-6.846267223,4.130926609,-22.68961143,38.93482971,88.89421844,18.95365906
576,4142727309,-20.6180191,65.05070496,117.6883698,-10.78691006,-1.035076618,-17.29296684,54.25956726,147.4715576,36.27993011
577,4142743976,-22.61054993,67.27391052,116.1550293,-20.66520691,-2.200389862,5.838948727,-34.8221817,137.3790131,16.19805145
578,4142760643,-20.77475166,68.27201843,116.2788467,-9.32142067,-3.554780483,27.71920586,103.8197784,54.29154587,26.38405418
579,4142777310,-21.71214294,73.37188721,113.528923,-18.93455505,12.98926163,-18.29191971,100.2257309,304.4655457,61.94866943
580,4142793977,-26.29198456,75.15068817,108.7665405,-27.86796761,8.831079483,-7.792943954,0.83009392,128.6209564,-25.78667068
581,4142810644,-30.67886734,77.42961884,104.8005371,-6.359240055,-5.231760979,1.294560909,-31.43350792,146.6795654,17.22959137
582,4142827311,-37.7050972,79.66960907,97.52576447,-9.258716583,-3.218618393,-1.762429118,6.859278202,159.2864227,5.36237669
583,4142843978,-47.72198868,81.48345947,87.8089447,-9.192663193,-6.660132408,-5.171842098,-25.23191071,144.0311737,5.116977215
584,4142860645,-57.62300873,82.64411163,77.31083679,-11.58123398,-4.804370403,-3.834784269,30.38506317,110.7917175,4.101712704
585,4142877312,-66.25590515,83.51042938,67.86056519,-13.00468826,3.842457533,-1.996939182,45.47531128,84.29023743,15.22523594
586,4142893979,-78.16881561,84.03668976,55.59977341,-11.90311909,1.436769009,-1.022367001,17.12030983,85.10972595,7.190630436
587,4142910646,-90.40524292,84.20201111,42.98293304,-10.77577782,0.932560086,-0.902052641,19.42529488,77.69449615,3.728429079
588,4142927313,-101.541748,84.02768707,31.6379528,-9.846809387,0.194222555,-1.039804697,9.517365456,70.08119965,-1.464419007
589,4142943980,-110.9891357,83.563797,22.32056046,-9.679390907,-1.195177317,-0.848258317,-10.4786911,65.39597321,-8.086248398
590,4142960647,-118.3612671,82.99666595,15.2853384,-9.91261673,-1.568538904,-0.952515602,-22.52641296,58.71968842,-8.614319801
591,4142977314,-124.5308762,82.38278961,9.459856987,-9.769471169,-1.134438634,-0.84363234,-22.91404533,56.80790329,-6.557694912
592,4142993981,-129.9075775,81.73449707,4.341733456,-9.765507698,-1.291505814,-0.884055734,-17.88072205,56.96390915,-3.650009155
593,4143010648,-134.861084,81.04476166,-0.374438614,-9.681315422,-1.337614775,-1.048332214,-16.85245323,58.84618378,-0.355035096
594,4143027315,-139.5028076,80.27878571,-4.806084633,-9.676901817,-1.285362601,-1.057245731,-15.55663681,62.69545364,2.061679602
595,4143043982,-143.9998627,79.39034271,-9.032162666,-9.807121277,-0.777976274,-1.031205893,-19.66176987,69.22451019,3.796057463
596,4143060649,-148.2796173,78.37692261,-13.00798416,-9.929521561,-1.248900294,-1.446766138,-22.13619995,75.77739716,5.961442471
597,4143077316,-152.1548615,77.28813934,-16.63246536,-10.13216305,-1.135680795,-1.730087996,-19.35586548,79.12975311,8.977398872
598,4143093983,-155.5720367,76.10173798,-19.87707329,-10.26962376,-0.705297887,-1.992364883,-15.00470829,83.30905151,10.5061245
599,4143110650,-158.6213074,74.84281158,-22.75208092,-10.72410488,-0.129039347,-2.075803757,-15.39763546,86.09899139,12.10219765
600,4143127317,-161.314743,73.54229736,-25.23412132,-11.03360176,-0.338604003,-1.844615221,-17.74464607,86.88812256,13.02043629
601,4143143984,-163.7377472,72.19915771,-27.33923721,-11.3594389,-0.50345552,-1.509016752,-24.10640717,87.73088837,12.92071819
602,4143160651,-166.1292572,70.72982025,-29.3240242,-11.44794941,-0.88515681,-1.269152522,-30.00986481,94.66535187,15.27122402
603,4143177318,-168.5629578,69.10682678,-31.31092262,-11.62560654,-1.104251504,-1.016835332,-33.48213577,103.6784515,20.23906517
604,4143193985,-171.089859,67.26573181,-33.33893967,-11.84320736,-1.255088687,-0.790099144,-38.06629944,116.4143982,26.6272049
605,4143210652,-173.644043,65.18186951,-35.40011215,-12.21838665,-1.14113009,-0.938024402,-39.49346161,130.2453156,34.44321823
606,4143227319,-176.1209717,62.90348053,-37.39456177,-12.93728733,-0.961201787,-0.973657489,-40.43373489,140.5365906,41.60960007
607,4143243986,-178.6410675,60.40267563,-39.30384064,-13.44021416,0.187328234,-0.443805546,-49.79142761,152.088974,49.115242
608,4143260653,178.6251678,57.70012665,-41.04933929,-14.12815285,-0.25697118,1.726591229,-73.60675049,161.8670654,55.51687622
609,4143277320,175.9008484,54.78242493,-42.4831543,-15.84865952,-1.659032702,3.706457853,-91.33271027,172.3124084,57.74729156
610,4143293987,172.9285431,51.67744827,-43.69271469,-17.66193771,-2.94774127,6.28337574,-119.5894852,180.9405365,63.01008606
611,4143310654,170.0967407,47.37023544,-44.32369995,-16.89082146,-5.22432518,0.436311007,-140.4606934,251.7546844,64.09747314
612,4143327321,168.4980164,41.90190125,-44.03333282,-25.35804176,-6.228709221,-1.952060223,-107.5406876,324.4811707,50.39056015
613,4143343988,167.0181427,37.38860321,-43.95232773,-26.67170906,-4.572737217,2.828662157,-91.29290009,265.2296448,55.41789627
614,4143360655,165.5035858,33.23133469,-44.19108582,-20.06843376,-6.772180557,2.159556389,-82.00003052,239.3326416,72.26319122
615,4143377322,165.1825409,29.20485115,-44.72224808,-18.69729805,-4.077260494,-3.072234631,-2.187865257,226.6465607,89.17030334
616,4143393989,164.2528076,28.36200714,-44.90417862,-9.516910553,-4.358269215,-8.116218567,-49.98013306,46.09381104,24.23704529
617,4143410656,164.5432434,28.59600449,-44.54561234,-14.86490631,-5.647454262,2.788828611,7.70485878,-8.601670265,-20.31049919
618,4143427323,165.431015,30.39113808,-45.13714218,-7.027216911,-4.021369457,8.381596565,71.26932526,-112.1864395,3.624147177
619,4143443990,166.3244019,32.16785431,-45.64945602,-3.96837759,-0.029755022,2.855298042,70.09799957,-109.9393463,1.159729481
620,4143460657,167.3745575,34.63360596,-45.85807419,-5.696260929,-2.171902657,0.89415288,70.43299103,-146.5885315,-21.79483604
621,4143477324,168.731308,38.21068954,-45.91286087,-7.462574482,-1.786018252,0.976059079,83.86631775,-210.6664124,-40.16150665
622,4143493991,170.0455933,42.59270859,-46.01164627,-7.513868809,-0.039332427,0.954874992,83.20864105,-259.3973389,-42.28796387
623,4143510658,171.0619965,47.46362686,-46.08711243,-7.478198528,1.584958076,1.354117393,64.69235229,-288.9515381,-43.12704086
624,4143527325,171.8669586,52.62704468,-45.92555618,-8.600592613,1.762390733,-0.63485682,41.38398361,-305.5802002,-50.4552002
625,4143543992,172.8066254,58.06342697,-45.40936661,-10.10144901,1.167605996,-2.072220087,31.40320969,-321.0422363,-59.27933502
626,4143560659,174.1929321,63.79264069,-44.5134697,-11.56436539,1.168160319,-2.580132484,36.6608963,-338.7004395,-63.19776154
627,4143577326,176.1735992,69.71709442,-43.06828308,-13.03366089,1.530886889,-3.166416168,39.58013153,-351.4355164,-62.28836823
628,4143593993,179.3871765,75.82266998,-40.38639832,-14.65812302,0.664348066,-3.394495487,39.42034531,-364.2366943,-60.16084671
629,4143610660,-173.1051025,81.98587799,-33.38956451,-16.43027306,0.306113958,-3.801742077,38.41041183,-373.0922241,-58.77339554
630,4143627327,-130.8196564,87.30274963,8.555339813,-18.8175106,0.427172214,-5.466837883,28.35288239,-371.0532227,-61.27273178
631,4143643994,-36.28882599,84.61296844,102.8356094,-21.08151054,0.394983947,-8.685061455,23.18628502,-365.8427734,-67.48840332
632,4143660661,-23.22858238,78.79846954,115.9088135,-21.5815239,0.583857,-12.33766174,7.001711369,-357.0906677,-72.29270935
633,4143677328,-20.4394207,73.0530014,119.0791473,-18.18994141,-0.682685256,-13.83186817,-16.8096962,-337.2459106,-83.55042267
634,4143693995,-20.03371048,68.11595154,119.7550735,-15.9411068,1.664697528,-16.11807251,-13.36430931,-282.7807312,-88.15202332
635,4143710662,-20.41083527,64.2409668,119.7717361,-13.01201534,5.26073885,-19.50570488,-22.97389221,-218.5158691,-78.33351135
636,4143727329,-20.91609192,61.76787949,119.6428375,-8.404878616,4.97466898,-24.19239616,-22.86196327,-137.8368683,-54.00170898
637,4143743996,-21.16183472,61.07580566,119.460556,-4.95988512,3.715883255,-26.02145386,-4.581473827,-37.1381073,-18.15087128
638,4143760663,-21.36799812,62.12314606,119.0222092,-6.033685684,3.857390404,-23.90338135,11.32077026,62.80953217,12.76965141
639,4143777330,-22.05704498,64.4647522,117.9734879,-9.419475555,1.615523696,-21.18172646,15.43705082,140.6756897,27.33364677
640,4143793997,-22.37796974,67.17485809,117.1170654,-15.5766449,-0.576128542,-8.652470589,28.18739128,158.1555634,43.62760925
641,4143810664,-22.29577065,67.83387756,116.7497635,-19.37640762,-6.632507801,34.57732391,25.85487556,39.44206238,8.858843803
642,4143827331,-20.37041855,71.42930603,115.265976,-6.507365227,6.280635834,-2.615784407,199.5066376,211.9116669,51.24810791
643,4143843998,-23.62899399,75.47296143,110.8639679,-30.96363449,16.20376015,-16.79482079,58.35106659,252.6499786,22.70112419
644,4143860665,-27.58441925,77.03242493,107.8097763,-12.74423027,0.181598917,0.782644987,-58.75076675,102.8301926,2.772001028
645,4143877332,-34.19158554,79.73700714,100.8902969,-7.768918037,-5.856098652,-2.019999266,10.89242935,181.551651,13.06539631
646,4143893999,-44.83686447,81.83261871,90.47122955,-9.255046844,-4.914817333,-4.153312683,-20.96879959,159.8762054,4.14760828
647,4143910666,-57.30162048,83.23529053,77.91353607,-10.18731117,-7.280587196,-6.077923298,-0.174957708,128.247757,5.290553093
648,4143927333,-67.73152924,84.13085175,66.12893677,-13.64066219,1.64599967,-4.480647087,77.57207489,93.2342453,13.19485092
649,4143944000,-78.38345337,84.675354,55.07564926,-12.8404398,3.717381477,-0.674671233,21.48990059,70.92340851,13.90705681
650,4143960667,-92.40088654,84.85076141,40.63408661,-10.8485117,1.049855232,0.454833865,22.44871712,79.14672089,5.705115795
651,4143977334,-105.735672,84.64855957,27.24423981,-10.44173908,1.389149666,-0.401905149,0.545529008,74.01435852,1.293280482
652,4143994001,-116.3199921,84.10565186,16.84509468,-9.71765995,-0.859669089,-1.356467485,-13.50465393,68.30045319,-6.730671406
653,4144010668,-124.3042679,83.45829773,9.211448669,-9.813942909,-1.975311518,-1.186207652,-23.13924789,62.03113556,-6.803787708
654,4144027335,-130.85672,82.79638672,3.013551712,-9.65139389,-2.005534887,-0.961198688,-23.35726929,59.10603333,-2.66470623
655,4144044002,-136.5390167,82.11133575,-2.359767437,-9.637423515,-1.42200911,-0.82415539,-20.74782372,58.63856888,1.19038558
656,4144060669,-141.6584778,81.33716583,-7.148940563,-9.639071465,-0.76276505,-1.038941264,-22.22748566,61.82182693,2.505388975
657,4144077336,-146.3845978,80.38902283,-11.49431419,-9.796043396,-0.460770696,-1.215074778,-25.57445717,69.99854279,1.731151223
658,4144094003,-150.7508698,79.30778503,-15.4770174,-9.971207619,-0.898355961,-1.332508922,-26.17006111,76.95425415,3.756253958
659,4144110670,-154.5951996,78.14261627,-18.97463036,-10.17436504,-0.913712621,-1.434574127,-24.27690125,80.59423828,5.998894215
660,4144127337,-158.008728,76.86197662,-22.06337166,-10.48798275,-1.259008169,-1.571914315,-23.29813576,86.13128662,7.479510784
661,4144144004,-160.9470062,75.51823425,-24.76797104,-10.94626236,-0.789657295,-2.173862219,-18.13625526,88.75502014,9.646747589
662,4144160671,-163.5830231,74.15975952,-27.13018036,-11.54513931,0.466690719,-1.639208436,-20.78204536,88.6004715,12.11165237
663,4144177338,-166.0680237,72.69772339,-29.22400284,-11.42573547,-0.406347245,-1.279306293,-28.11301613,93.72136688,13.25117874
664,4144194005,-168.5013428,71.05335999,-31.24351501,-12.13339233,-0.763623834,-0.570649981,-30.26277924,104.2215729,16.68455887
665,4144210672,-171.0414581,69.16009521,-33.30932617,-12.6684761,-0.707344711,0.05847238,-35.27362442,118.9631805,22.96538353
666,4144227339,-173.5938568,67.00195313,-35.48600388,-13.38319016,0.255639136,-0.153206527,-31.39302254,134.5293121,32.6356926
667,4144244006,-176.2042236,64.59836578,-37.62791443,-13.78984356,0.742148101,-0.095747694,-38.80925369,148.0184326,41.27902603
668,4144260673,-178.8041229,61.95632553,-39.67002106,-13.89485264,-0.138586864,1.089146972,-45.95449448,160.467804,49.76992798
669,4144277340,178.5548401,58.99462509,-41.5199585,-14.83723831,-1.597628117,2.476328611,-61.26887512,177.2921906,56.71525574
670,4144294007,175.8612976,55.87620544,-43.10074997,-16.17736435,-3.186363697,4.901146412,-81.06249237,184.1219635,61.7376709
671,4144310674,172.8821411,52.6699295,-44.49384689,-16.82778931,-3.508678913,7.155601978,-110.2712936,186.4096222,69.07966614
672,4144327341,169.4569397,48.09498978,-45.39803696,-16.10734558,-5.450975418,-0.065686584,-163.0414276,265.7161255,77.97193146
673,4144344008,167.5099945,42.47904968,-45.12998581,-23.85831451,-8.862997055,-1.08169961,-127.6010666,332.2264709,57.82686234
674,4144360675,166.2016144,37.72520828,-45.01359177,-27.32527351,-3.337385893,3.565947056,-82.40195465,278.7697144,61.32168579
675,4144377342,164.4922638,33.25520706,-45.12656021,-21.78810692,-7.055813313,2.291567326,-98.01667023,257.9006958,74.86037445
676,4144394009,164.1008911,28.88912964,-45.29537582,-20.16657829,-6.529166222,-5.960578442,-17.70214081,249.6710052,80.9256134
677,4144410676,163.5997925,28.00508881,-44.96931076,-12.93019676,-4.956844807,-9.5983181,-38.85016251,55.58092499,-0.088147536
678,4144427343,164.546875,29.09609413,-45.14797211,-17.83749008,-6.484580517,13.4003849,62.47238922,-65.67834473,-7.221876621
679,4144444010,165.4887848,30.45892143,-45.92442703,-3.988631964,-2.972060919,6.163615704,80.17189789,-89.56880188,19.61124229
680,4144460677,166.5903015,32.18719101,-46.15500259,-4.492958069,-1.213426828,1.835014939,73.80088806,-103.6057129,-11.8631773
681,4144477344,168.0448914,34.8707962,-46.15373993,-6.76949358,-2.86460638,2.129275322,87.74541473,-157.1955566,-33.72620773
682,4144494011,169.4618378,38.68527603,-46.12574005,-7.650743484,-1.176697016,1.708285093,84.50914001,-224.3296204,-44.26543808
683,4144510678,170.6249695,43.22626495,-46.15086746,-7.655343533,1.158859968,0.887331903,71.27070618,-268.6635132,-44.30072403
684,4144527345,171.6064758,48.24284744,-46.07213593,-8.288790703,1.754393935,0.638983965,56.00849915,-296.980896,-48.05127335
685,4144544012,172.5129242,53.66558075,-45.70883942,-9.54033947,1.595971942,-0.695301414,37.94135666,-320.4472961,-56.87113953
686,4144560679,173.6628876,59.33117676,-44.96451569,-10.50494003,1.767647505,-2.402413368,32.22964478,-334.5905151,-63.7062149
687,4144577346,175.3800964,65.26961517,-43.69868851,-11.93766117,1.433441877,-2.777881145,36.20652771,-351.3842163,-67.49300385
688,4144594013,177.9931183,71.47266388,-41.59713745,-13.52722454,1.500562906,-2.857642174,39.90641022,-368.9097595,-66.24691772
689,4144610680,-177.1697388,77.86647797,-37.29033279,-15.37600899,0.714659572,-3.162900448,41.11798096,-383.9387207,-63.91193008
690,4144627347,-162.4068604,84.14024353,-23.01376915,-18.42097664,0.596484721,-5.139672279,38.84752274,-391.3832092,-63.69075012
691,4144644014,-70.43820953,86.84005737,68.48994446,-21.34658241,0.092896305,-7.92181921,37.84921646,-397.5671997,-69.60723114
692,4144660681,-28.25297928,81.14399719,110.2601242,-22.68620682,0.863456964,-10.24442101,35.3723526,-402.9282532,-73.29232025
693,4144677348,-21.59710121,74.81796265,117.070137,-21.2913723,-0.101804897,-13.9283371,-0.338869423,-379.5918884,-80.85437012
694,4144694015,-20.35231781,69.09940338,118.595787,-18.50415993,-0.746952653,-17.14827156,-11.88537407,-330.6570435,-94.66440582
695,4144710682,-20.29815102,64.42758942,118.8860397,-14.88921928,4.991864204,-21.04015541,-12.19690609,-265.4295044,-89.26132202
696,4144727349,-21.16730118,61.28417969,118.6762695,-8.854314804,7.059902668,-27.92660141,-40.37408066,-174.5787964,-70.48915863
697,4144744016,-22.02360153,60.26117325,118.2638016,-2.886109591,4.438823223,-31.61572647,-29.22184181,-52.88193893,-32.18621445
698,4144760683,-22.83389282,61.55466843,117.4924774,-4.26767683,3.406860352,-28.55511665,-7.612117767,80.03027344,10.44402027
699,4144777350,-23.23194122,64.27629089,116.3278885,-8.54254055,3.452312231,-25.89764023,38.90519714,162.3986359,36.23888397
700,4144794017,-23.76076317,67.39118958,115.1007614,-18.54883385,-0.611316741,-7.817982674,36.02645111,183.0579681,48.49175262
701,4144810684,-23.77651405,67.99017334,114.6966476,-17.11011696,-9.869426727,37.69181442,22.05677032,36.24239349,7.688349724
702,4144827351,-21.39204407,71.38381958,113.1870575,-4.03246212,4.698249817,3.103421688,228.5354614,199.7691956,50.80322647
703,4144844018,-26.54037857,76.84786987,106.3943329,-37.59072495,18.77367973,-26.37702942,84.0544281,344.0396423,32.65890884
704,4144860685,-31.21821976,77.89340973,102.7323456,-16.69532204,0.991006374,-1.23704195,-65.70130157,77.74337769,-10.16487694
705,4144877352,-39.25326157,80.90529633,93.71796417,-5.543534756,-2.442811966,-0.357366443,50.27450562,204.1432037,24.34797859
706,4144894019,-55.26079178,82.86716461,78.44556427,-9.016300201,-4.611919403,-5.881495476,-52.51066971,173.5411682,-0.245129108
707,4144910686,-74.30795288,83.70612335,59.36925507,-10.833745,-9.817376137,-8.096409798,-5.38013649,141.3086548,-10.22738838
708,4144927353,-84.80010986,84.18567657,47.67228317,-14.04355526,5.099070549,-3.073985577,68.95632172,77.50730133,16.37334251
709,4144944020,-97.23953247,84.17788696,35.08864594,-11.54177856,0.244547337,-1.35849905,5.377271652,76.03473663,2.52476573
710,4144960687,-108.1178131,84.01221466,24.05573273,-12.09981632,2.817303181,-1.348522305,6.377559185,68.16280365,6.90713644
711,4144977354,-117.4142838,83.55648804,14.80206203,-10.27008724,0.770508885,-1.07171154,-5.221868992,65.56430817,-0.257475585
712,4144994021,-124.2630844,82.9610672,8.190649033,-9.687148094,-1.349659324,-1.213275075,-16.39710426,57.89062881,-5.139293194
713,4145010688,-129.6204376,82.32611847,3.194567204,-9.545166016,-2.33445096,-1.020681381,-23.55340385,53.18782425,-5.728567123
714,4145027355,-134.3432617,81.65371704,-1.195792317,-9.608922958,-2.199818134,-0.941430509,-21.93190956,53.89441299,-3.789668083
715,4145044022,-138.6495819,80.93655396,-5.287780762,-9.476080894,-1.659272432,-1.101587772,-15.10770416,56.41962814,-1.028925776
716,4145060689,-142.7147217,80.14523315,-9.242430687,-9.62156868,-1.059088826,-0.993496001,-9.269885063,61.06605148,1.730884314
717,4145077356,-146.7586365,79.19799042,-13.07108212,-9.800057411,-1.449272394,-0.662313223,-16.05565071,69.80990601,2.461662292
718,4145094023,-150.6451721,78.11576843,-16.70418549,-10.05999374,-0.992368102,-1.291944981,-18.87688065,77.38434601,4.54656744
719,4145110690,-154.4047241,76.8550415,-20.11595917,-10.18466759,-0.631192029,-1.498065352,-25.14562416,87.21446991,6.094015121
720,4145127357,-157.9138184,75.43297577,-23.28538513,-10.42610931,-1.080793858,-1.305346251,-25.32606506,96.08724213,8.80674839
721,4145144024,-161.0649719,73.92757416,-26.16856575,-11.62739754,-0.477580428,-1.405187726,-21.6393795,100.2560349,12.79650116
722,4145160691,-163.8876953,72.38661194,-28.62307167,-11.76598549,-0.21655938,-1.606907845,-27.82662392,100.6728058,14.484478
723,4145177358,-166.503418,70.7414093,-30.79076385,-11.90695858,-0.185354546,-1.307110548,-32.97130966,105.6118546,16.17475319
724,4145194025,-169.1016998,68.91462708,-32.88807297,-12.20183468,-0.331341296,-0.52939117,-37.19141006,115.9696503,20.88565254
725,4145210692,-171.6952515,66.87226868,-34.95632553,-12.99437428,0.240142003,-0.779334247,-40.04893875,128.2908936,27.23640633
726,4145227359,-174.3059845,64.6292572,-36.96359253,-13.32803917,0.324904948,-0.27401033,-46.2405014,139.2865601,34.32338333
727,4145244026,-176.9127502,62.09814072,-38.95513153,-13.43165207,0.114907607,0.165196121,-48.99433899,155.2084351,43.41355896
728,4145260693,-179.6047516,59.3115654,-40.80598831,-14.18213558,-0.974474251,1.525055051,-64.06038666,168.4673309,50.86067963
729,4145277360,177.71521,56.37147141,-42.47695923,-14.68935204,-1.993929386,3.104064703,-75.31475067,175.215683,57.89392853
730,4145294027,174.8666229,53.31608582,-43.89851379,-15.19364738,-2.567747831,5.275456905,-100.5636063,179.497345,62.50271225
731,4145310694,171.6685638,49.45576477,-44.99809647,-14.64916325,-2.859861612,1.53861165,-139.6863861,224.9553833,69.68199158
732,4145327361,169.0743866,44.36731339,-45.19137192,-19.5885582,-6.581758499,-2.011632919,-146.5127869,299.4698792,60.51947784
733,4145344028,167.6824799,39.4530983,-44.77145767,-26.038311,-5.684211731,2.390548706,-99.73010254,292.3735962,42.68482208
734,4145360695,165.759491,34.88575363,-44.82746887,-25.04598618,-4.452734947,2.980026007,-112.7354584,265.9135742,67.21225739
735,4145377362,164.966217,30.26824379,-44.92916107,-21.09041405,-8.491083145,-2.673381329,-43.7298317,266.5865479,76.66363525
736,4145394029,164.4952698,27.64305687,-45.30966187,-18.65735245,-6.713075161,-5.94913435,-16.65044975,146.5313873,62.44679642
737,4145410696,164.1097107,27.73549461,-45.43213654,-11.97352409,-3.615407705,-4.328370094,-19.18231583,-7.239236355,6.461767673
738,4145427363,164.618927,29.16111755,-45.96103287,-13.40539169,-5.790637016,11.96041393,46.20471191,-90.02424622,5.523405552
739,4145444030,165.3078003,30.82629013,-46.53525543,-4.202861786,-1.641663909,4.989823818,59.09007263,-104.346077,4.614048004
740,4145460697,166.2048492,33.0374794,-46.65106583,-4.768014908,-2.205586195,1.496163964,58.01887131,-130.1504974,-25.22955894
741,4145477364,167.5361938,36.30726624,-46.59399033,-6.796394825,-3.05377984,-0.053504616,78.46585083,-190.535202,-45.56998062
742,4145494031,169.0888062,40.58151627,-46.46801376,-7.932652473,-1.216265082,0.108551905,88.88410187,-250.0260925,-56.1262207
743,4145510698,170.5379486,45.46401978,-46.30874634,-7.253725529,1.025325298,1.109250546,80.89138031,-287.1924744,-57.00424957
744,4145527365,171.8111725,50.5460434,-45.94856644,-8.160386086,2.642899752,-0.634301901,60.8159523,-299.1854858,-59.37486267
745,4145544032,172.9820099,55.8235817,-45.17022705,-10.00049782,2.811606884,-3.241829395,33.26141357,-310.2376404,-68.01369476
746,4145560699,174.2243042,61.29067612,-43.92826462,-11.44249916,2.199049234,-3.544458866,11.38916492,-321.71698,-73.51889038
747,4145577366,175.8392181,66.96455383,-42.28315353,-11.83778,2.152234793,-3.602829456,8.443710327,-335.471405,-70.75354767
748,4145594033,178.3789673,72.73738861,-39.68056488,-12.8828001,1.491645575,-4.183694363,6.116031647,-343.2143555,-69.53042603
749,4145610700,-176.214798,78.59472656,-34.37479019,-14.34184742,0.625534713,-4.324730396,16.03268051,-352.5866089,-70.50613403
750,4145627367,-159.0753632,84.22063446,-17.54782295,-16.12345123,0.1956103,-4.747374058,29.27578545,-358.4478455,-73.77910614
751,4145644034,-80.06809235,86.54430389,60.89406586,-18.6441021,-0.629685521,-7.343915939,44.49862671,-358.0838013,-77.25521088
752,4145660701,-34.96645737,81.81993866,105.2146149,-20.95253563,0.828228951,-11.72716141,57.87358093,-363.032959,-78.50346375
753,4145677368,-25.73095322,75.92201233,114.2045517,-18.84274101,0.067301929,-13.21395302,24.74962807,-357.1460266,-86.78276062
754,4145694035,-23.45462036,70.58158112,116.4463272,-17.03648186,0.845601618,-16.29093552,8.21064949,-307.5960388,-96.40785217
755,4145710702,-23.52519417,66.20585632,116.7383881,-14.51583767,4.739588261,-20.90448952,-19.96257401,-243.549118,-97.07013702
756,4145727369,-24.00582695,63.17759705,116.5587387,-9.889227867,6.207188129,-25.6644783,-18.52707672,-164.6605377,-75.78948212
757,4145744036,-24.2833786,62.11806488,116.1121826,-5.12883091,5.241389751,-31.09020424,7.703088284,-53.24104691,-35.59580231
758,4145760703,-24.62554169,63.0158844,115.2572861,-3.833790541,5.265804768,-28.82262039,25.55703354,58.50992966,2.419685602
759,4145777370,-24.50210381,65.72654724,114.1136169,-9.572271347,0.932568431,-22.76003647,69.84857178,159.9149475,42.23788452
760,4145794037,-26.28261185,68.06887054,112.725441,-25.60533714,2.083983183,10.81332588,-29.63454247,140.5965881,32.36203766
761,4145810704,-24.67226601,69.61581421,113.0170898,-5.566977501,-5.183342457,30.70946693,80.8506012,80.70623016,47.24847794
762,4145827371,-28.68040085,75.68024445,107.4532089,-20.40452957,15.04125881,-25.47173691,79.10194397,369.1351318,75.81703186
763,4145844038,-35.58374023,77.03778839,100.3763046,-27.22075844,2.883069992,-7.178821087,-0.968382537,121.7140579,-39.90058899
764,4145860705,-41.86613846,79.69567108,93.61617279,-4.772981644,-5.742236614,-0.717631042,20.9996109,174.9615784,37.40822601
765,4145877372,-53.4404335,81.69882202,81.41156769,-10.44672966,-4.004488468,-5.274706841,28.91281891,167.4645233,10.33495426
766,4145894039,-68.21248627,82.94380951,66.26237488,-10.22152996,-3.857217789,-6.095223427,15.1505394,141.4659576,7.219435692
767,4145910706,-80.59558868,83.6095047,53.26534653,-13.8898468,1.897212267,-2.684177876,32.11191559,98.05661011,15.35394764
768,4145927373,-93.56528473,83.73521423,40.24113846,-11.94190884,2.195459127,-2.038374186,-0.867486358,85.84819031,4.72767067
769,4145944040,-105.1128998,83.50212097,28.70688248,-11.91882133,1.487726331,-1.466482162,-4.479782581,77.6672287,0.343646497
770,4145960707,-114.1116028,83.07564545,19.74817467,-10.66065693,0.639453411,-1.531321049,-5.466452122,67.30873871,-1.339668036
771,4145977374,-120.767952,82.51803589,13.28311348,-9.884478569,-1.026982188,-1.496647835,-13.93574142,58.16552353,-5.617846012
772,4145994041,-125.8320465,81.90549469,8.672139168,-9.73832798,-1.723030448,-1.514515042,-29.14761353,51.12134171,-8.496939659
773,4146010708,-130.1147919,81.28535461,4.900476456,-9.664614677,-1.937875271,-1.496426225,-32.50169373,48.5832901,-7.345209599
774,4146027375,-133.8865814,80.66674805,1.522904515,-9.714818001,-1.36455977,-1.31296134,-25.57803345,48.08444595,-4.687505722
775,4146044042,-137.4164124,80.01093292,-1.749138594,-9.660796165,-1.599566698,-1.142761111,-17.66779327,50.79623032,-2.317601681
776,4146060709,-140.8491364,79.29178619,-4.906301975,-9.663269997,-1.403530478,-1.27229321,-19.02534676,54.51828766,-0.865117431
777,4146077376,-144.1914215,78.49727631,-7.903897762,-9.954958916,-1.256842256,-1.224228382,-23.4678688,58.5422821,0.11224924
778,4146094043,-147.3569031,77.64464569,-10.67696571,-10.12805653,-0.884360611,-1.348579168,-26.55165291,61.28171539,1.290996313
779,4146110710,-150.4403229,76.74142456,-13.37854862,-10.34035492,-0.897884071,-1.536653757,-26.35930061,64.6053009,4.39906311
780,4146127377,-153.4037933,75.77529907,-15.9670496,-10.35886192,-0.893919408,-1.15193522,-26.35972977,68.15408325,6.893244743
781,4146144044,-156.381424,74.69694519,-18.52718163,-10.17752838,-0.992843986,-1.295046926,-29.5353775,74.84581757,9.619231224
782,4146160711,-159.2473755,73.50699615,-21.04114532,-10.60590935,-1.305403948,-1.375509858,-26.29864311,81.36952209,12.92394543
783,4146177378,-162.0480652,72.19417572,-23.47251892,-11.25954628,-1.433134675,-0.97206378,-28.05940628,88.2281189,16.10784721
784,4146194045,-164.944046,70.68981171,-25.93125725,-11.51138878,-1.432845473,-0.589766264,-33.31760025,99.53921509,21.00267982
785,4146210712,-167.8630829,68.9347229,-28.45272827,-11.94094467,-0.204782337,-0.732197404,-32.55748749,114.2891769,27.61582565
786,4146227379,-170.8301239,66.94100952,-31.03006935,-12.1832056,0.585437059,-0.658146143,-34.10694504,127.9615021,36.59554291
787,4146244046,-173.6837616,64.6791687,-33.60123062,-12.56009865,-0.180342734,-0.341403216,-29.89488792,142.6554871,45.97502136
788,4146260713,-176.41745,62.13845444,-36.01781464,-13.14855385,-0.887472272,0.096235603,-33.75104523,157.148941,53.13406372
789,4146277380,-179.0921021,59.37849426,-38.15572357,-13.99200344,-1.27721262,1.382682323,-47.93981552,167.6173859,57.7494278
790,4146294047,178.2257843,56.41449738,-39.96390915,-14.93547344,-2.14985919,2.851335049,-68.40403748,177.1100922,60.63301849
791,4146310714,175.3455505,53.3871994,-41.50606537,-15.80795002,-1.677646041,4.848086834,-96.4963913,178.103363,64.93286133
792,4146327381,172.1468201,49.56175232,-42.63314438,-16.29731178,-3.529627323,1.710742712,-138.3781891,223.3386078,68.50577545
793,4146344048,170.0379486,44.37733459,-42.92901611,-19.14911652,-6.051529408,-2.981431246,-112.9033508,305.2240601,61.77612305
794,4146360715,168.7829437,39.60808182,-42.88558197,-26.26716805,-4.406934261,1.980821967,-76.46343231,281.4358826,52.31074905
795,4146377382,167.1482697,35.64442825,-43.54819107,-22.01106071,-5.090362072,3.276447296,-73.2057724,225.8431396,82.05023956
796,4146394049,166.8854218,31.40279961,-44.12802124,-18.2548008,-7.585087776,-2.901718855,4.005634785,241.3114319,87.11769104
797,4146410716,166.8967285,29.28025246,-44.98598862,-17.2718792,-4.609046459,-6.269681931,27.21867752,113.8166656,73.82440948
798,4146427383,166.8268738,29.78875732,-45.28892899,-9.764658928,-2.723824263,-3.182274342,5.311233044,-33.43354034,10.16443729
799,4146444050,167.5535431,31.41590881,-46.11339569,-14.87587833,-3.638543367,11.58713913,69.31319427,-104.7577972,21.56543159
800,4146460717,168.1150513,33.24092102,-47.10929489,-3.979763746,-0.162538439,3.932661533,66.17407227,-117.7744522,27.9712944
801,4146477384,168.6634674,35.50548553,-47.57892227,-5.090955734,-1.196458459,1.816277862,49.36025238,-137.8686523,-2.851459265
802,4146494051,169.5909424,38.64979553,-47.83971786,-7.047108173,-1.743907213,1.046765327,65.60339355,-187.7132416,-21.64504051
803,4146510718,170.628067,42.61545563,-48.00077438,-7.138539791,-0.840627551,1.077378392,69.03256226,-235.7458649,-31.95856476
804,4146527385,171.4899902,47.10803986,-48.12373352,-6.815315723,1.031294584,1.654347777,57.45702744,-267.1744995,-35.01771927
805,4146544052,172.1047058,51.921978,-48.06309891,-7.872154713,0.768399954,0.17476891,34.63582611,-285.618042,-41.86632919
806,4146560719,172.825882,57.09311295,-47.65762329,-9.723464012,0.99528861,-1.674518824,23.97348595,-305.8044434,-53.01098633
807,4146577386,173.7483063,62.69153595,-46.87659073,-10.82714844,1.078021407,-2.219837666,15.29742622,-330.913147,-60.93614197
808,4146594053,175.0807495,68.54470825,-45.53819656,-12.03749752,1.698445678,-2.242773056,7.251013279,-346.3388672,-65.50870514
809,4146610720,177.3521729,74.56499481,-43.00857544,-14.0698061,1.595172405,-2.912301302,-7.332461834,-357.2393188,-70.08816528
810,4146627387,-176.9053955,80.70301819,-37.02581406,-15.90412235,0.342607796,-3.2816782,-6.04293251,-368.1323242,-73.76956177
811,4146644054,-149.80159,86.44708252,-9.759943008,-18.62225342,-0.116722576,-4.552122593,-1.318997622,-372.9273071,-76.26984406
812,4146660721,-43.8877182,85.54714966,96.3602066,-21.63663101,0.62875092,-7.009026527,-3.999068022,-377.4946594,-76.32350922
813,4146677388,-25.87440681,79.6177063,115.0773544,-22.77194595,1.923027992,-12.51396942,-33.75830078,-370.6380615,-80.5769043
814,4146694055,-23.03038788,73.56403351,119.1278,-19.35865784,-1.539145231,-14.5713377,-65.45367432,-353.8892517,-97.26947021
815,4146710722,-22.91246796,68.35041046,120.1557465,-16.92416573,0.023574784,-17.67416763,-50.69390488,-296.0170288,-101.8775406
816,4146727389,-23.40862656,64.31375122,120.2979355,-12.9559269,5.465190411,-22.11984253,-37.01441574,-224.2245789,-90.44735718
817,4146744056,-24.09169579,62.04859543,119.9636917,-7.356987476,6.864778996,-29.36783981,-22.52190781,-120.9925842,-61.36761093
818,4146760723,-24.90039063,61.82253647,119.2796936,-2.938368559,3.907381535,-30.15889549,-11.74326706,-4.619913101,-21.5550518
819,4146777390,-25.77321625,63.62368393,117.8418274,-5.686580181,3.022579432,-26.07169342,24.88485527,114.2609253,12.13862324
820,4146794057,-26.62887001,66.51366425,115.8999252,-11.77144051,2.515473604,-19.8897438,54.91153717,176.8869781,34.10463333
821,4146810724,-26.05996895,68.54555511,115.2916412,-20.03344727,-1.525660753,8.483112335,68.44069672,115.0551224,43.22211456
822,4146827391,-24.20252609,69.39203644,115.1212006,-7.944601536,-4.861243725,37.52593613,121.570282,47.16254044,19.87397003
823,4146844058,-23.43083382,74.08666992,112.9181595,-10.84970379,13.16909504,-15.42336941,172.3926086,274.0591431,77.46612549
824,4146860725,-30.2026329,77.16976929,105.4156647,-35.9113884,13.80885696,-14.61934566,30.49766922,214.7652435,-14.76460838
825,4146877392,-35.8313446,78.9610672,100.3795929,-7.839931011,-5.825223923,0.6010378,-41.48701859,123.6831055,7.718818188
826,4146894059,-46.44200897,81.47866821,88.97528076,-10.5687952,-1.105083704,-3.739226818,38.43360138,189.1724396,13.07377434
827,4146910726,-62.61253738,83.03939819,73.11672974,-7.824376583,-7.25104332,-7.053118229,-26.65398598,157.4957428,2.98124671
828,4146927393,-78.02954865,83.94405365,56.94077301,-12.43071556,-2.841871262,-5.381643772,39.95411301,120.9689865,15.28703785
829,4146944060,-90.18941498,84.44606781,44.43261337,-12.8633728,2.353098869,-1.873042703,17.6548233,78.05101013,23.62392044
830,4146960727,-103.4094391,84.50927734,31.02429008,-11.34203053,0.50992322,-0.054264456,8.184487343,75.88363647,14.50693798
831,4146977394,-115.4523544,84.28090668,18.77453995,-11.53014374,1.501243472,-1.428156137,9.528855324,71.72707367,12.62201881
832,4146994061,-124.4410477,83.84018707,9.725299835,-10.30209732,1.015049815,-1.134509563,1.327953219,61.41910934,6.799259186
833,4147010728,-130.9365234,83.21568298,3.445613384,-9.700904846,-0.510388255,-1.272300124,-14.74459743,56.08632278,-2.027832508
834,4147027395,-136.0102844,82.48874664,-1.155946493,-9.636116028,-1.42871058,-1.280507922,-29.87944794,54.52982712,-6.370299816
835,4147044062,-140.2847748,81.74698639,-4.973044872,-9.589046478,-1.519872069,-1.383515,-29.01776886,53.71518707,-4.66866827
836,4147060729,-144.0679321,81.00014496,-8.470848083,-9.528835297,-1.379636765,-1.54774797,-18.9011898,54.30594254,-0.978352547
837,4147077396,-147.4932556,80.20886993,-11.71316814,-9.671649933,-1.08896172,-1.367175937,-13.00519562,56.73337555,1.191151977
838,4147094063,-150.6451874,79.38051605,-14.64351749,-9.847005844,-0.741995096,-1.573248863,-15.49409866,58.26436996,2.804319143
839,4147110730,-153.5971222,78.47251892,-17.37586784,-9.850468636,-0.697246432,-1.574011326,-15.64230347,62.50812912,3.986694336
840,4147127397,-156.3929138,77.48323822,-19.83701515,-10.11605644,-0.966184378,-1.441327095,-22.73542976,66.42556763,4.412997723
841,4147144064,-159.0748901,76.4161377,-22.18841553,-10.36066246,-1.348042727,-1.526813626,-22.89370155,70.95696259,6.850309849
842,4147160731,-161.6397552,75.22280121,-24.35928345,-10.37303066,-0.733895123,-1.265949249,-27.02342606,77.80318451,7.60928154
843,4147177398,-164.29245,73.89102173,-26.5673027,-10.85425854,-0.374302685,-0.523280621,-30.87488365,86.38074493,11.94999218
844,4147194065,-167.0482941,72.33474731,-28.93719673,-11.32122135,-0.585248947,-0.76067543,-28.69890213,100.3393555,18.53716469
845,4147210732,-169.6331787,70.60980225,-31.21653557,-12.81957722,-0.365888625,-0.812721014,-24.82938576,109.7987518,23.27001762
846,4147227399,-172.2454987,68.68539429,-33.44754791,-12.91369152,0.785405338,-0.613504469,-30.64504814,121.0152969,29.41539192
847,4147244066,-174.9515381,66.47554779,-35.72789383,-12.7659874,0.743906677,-0.527503252,-35.28445816,137.2435455,38.6958313
848,4147260733,-177.5577393,64.00931549,-37.98206329,-13.34574509,-0.210545823,-0.515530586,-32.94419098,151.0300598,48.4755249
849,4147277400,179.8825989,61.32258606,-40.05250168,-14.35334873,-1.127650499,0.684688032,-42.61507416,162.0090637,55.38298035
850,4147294067,177.184845,58.32741928,-41.84767914,-15.57884407,-1.772373438,2.191594124,-68.13137817,177.9674683,60.34537125
851,4147310734,174.4176178,55.17394257,-43.26074219,-17.43911362,-2.879287958,5.358074188,-94.51187897,185.024826,61.84240341
852,4147327401,171.17836,51.92495728,-44.40843201,-18.80874252,-4.839458466,8.717869759,-138.3418427,188.0338745,66.66391754
853,4147344068,167.944809,47.2978096,-44.94897079,-15.07395363,-5.874641418,0.070343614,-168.6339417,269.0334167,72.61794281
854,4147360735,165.8263397,41.46008301,-44.56521606,-22.4160614,-5.723546982,-5.925264359,-142.5514069,344.682312,65.09294891
855,4147377402,164.246994,36.94331741,-44.2162323,-25.71203423,-4.074860573,1.844006062,-107.4060135,265.8319702,55.95301819
856,4147394069,163.037674,32.99517441,-44.03369904,-19.1836319,-8.995111465,1.041363478,-78.26706696,229.6744843,59.78035736
857,4147410736,162.6684875,29.90968895,-44.20400238,-17.40217018,-4.830243587,-6.112733841,-16.28733444,174.1967316,64.59833527
858,4147427403,162.2215424,30.01568985,-44.23859787,-11.20061398,-3.009491444,-6.421542168,-25.2611618,-6.721825123,1.494357109
859,4147444070,162.7468872,31.28211021,-44.48765564,-13.45590973,-6.770427704,12.54965305,39.65106201,-76.43991852,-8.905757904
860,4147460737,163.8207855,33.02093887,-45.24278259,-4.636651516,-2.702445984,5.481442451,89.04999542,-111.0383987,8.438720703
861,4147477404,165.1123199,35.12889099,-45.6088295,-4.14796114,-1.46392417,1.736161709,90.29997253,-126.8061371,-14.6364212
862,4147494071,167.0105438,38.05780029,-45.80158997,-6.920538425,-2.606237888,1.702005625,121.2753677,-172.8781738,-31.61465836
863,4147510738,169.02005,41.95146561,-45.90968323,-7.846792221,-1.633100152,0.976956785,125.2072754,-229.6349487,-41.9513588
864,4147527405,170.9080353,46.56943893,-45.9759407,-7.331834316,0.77576524,1.392901301,116.5043945,-273.403595,-43.78424072
865,4147544072,172.4864502,51.53507233,-45.88798904,-8.239531517,2.186274052,0.289578617,91.17617035,-294.3765259,-44.75256729
866,4147560739,173.9386139,56.84382629,-45.44045258,-10.07802868,1.786805272,-1.144204021,65.80658722,-314.4847107,-51.56183243
867,4147577406,175.6029053,62.4838829,-44.41253281,-11.37250042,1.785259247,-2.011212349,47.05022812,-334.1882935,-60.18801117
868,4147594073,177.9307404,68.38008118,-42.57457733,-12.65151691,1.862190843,-2.252358675,39.73186493,-350.6257019,-64.06302643
869,4147610740,-178.4528809,74.50210571,-39.28576279,-14.23281384,1.979925036,-2.754324436,30.14551926,-366.9284363,-62.8231163
870,4147627407,-170.4316559,80.68556976,-31.50583267,-16.23308945,1.029229641,-3.180620193,25.18992996,-378.1699524,-62.26892853
871,4147644074,-136.5123901,86.18074036,2.205097437,-19.18855095,0.841861725,-4.204940319,23.24933815,-384.2627258,-61.55741501
872,4147660741,-45.67804337,84.77516937,93.1147995,-22.04518318,1.122516155,-6.446091175,6.396512508,-385.5810242,-64.88101959
873,4147677408,-27.15519714,78.91773987,112.0870361,-23.5293045,1.356202841,-11.68749237,-16.43833351,-374.4770813,-74.69997406
874,4147694075,-23.02899742,72.8480072,116.887886,-21.09820557,-1.392039299,-14.67993069,-31.60192299,-359.4330139,-88.99563599
875,4147710742,-21.71078873,67.50498199,118.5614853,-17.5377636,0.362794876,-17.76896095,-14.9192152,-309.5382385,-88.82748413
876,4147727409,-21.8176651,63.40008545,119.0321655,-12.67783356,6.085443497,-23.68840027,-31.56765938,-233.2758789,-78.75604248
877,4147744076,-22.78180313,61.06812668,118.8606339,-5.652281761,6.887084484,-30.61735153,-48.17679214,-127.8701324,-55.8836174
878,4147760743,-24.31919479,61.0276947,118.1993484,-2.445035458,3.855514526,-29.68869209,-56.96616364,5.162566662,-16.94444847
879,4147777410,-25.65034485,63.03232574,116.8660507,-6.315028667,2.220083952,-25.02057076,-8.635064125,124.5309982,18.41152573
880,4147794077,-26.50556183,65.8599472,115.2927628,-10.74846172,2.309111118,-20.33148003,34.44364548,169.9028168,39.61633301
881,4147810744,-27.5603466,68.92562103,113.3582306,-17.92543983,-0.982661128,-3.774093151,44.47934723,183.7008667,45.45401382
882,4147827411,-26.86097336,69.34757996,113.1149063,-17.28177643,-8.136235237,35.20933914,56.19498062,24.48670387,8.565942764
883,4147844078,-25.18814278,71.86405945,111.200386,-3.246130705,3.5946908,5.861999512,209.2827148,152.0544586,33.59343719
884,4147860745,-29.13392639,76.20331573,105.3216553,-27.23378563,16.5593853,-19.98271751,103.1376953,275.2831116,34.01543808
885,4147877412,-34.3277626,77.545578,100.7131653,-21.7615757,2.747291803,-3.964066505,-41.76092148,101.0613174,-9.474731445
886,4147894079,-42.03430176,79.90192413,92.5998764,-7.249274254,-0.876867592,0.487065852,15.69258308,169.2523193,13.99551582
887,4147910746,-55.65451813,81.65979004,79.57652283,-9.656459808,-1.50944078,-3.877522945,-45.16564178,162.6390839,-1.728275061
888,4147927413,-72.21034241,82.4074173,63.6897049,-8.966328621,-11.25006962,-7.66754818,-48.63833618,137.4320068,-16.37677002
889,4147944080,-81.40808105,82.89461517,53.48052216,-13.44279766,0.658432901,-2.790327311,56.27035904,82.43766022,12.10543537
890,4147960747,-90.94902039,83.16448212,43.72428513,-10.93309975,-1.572956204,-0.898364544,9.182256699,71.4754715,12.97130489
891,4147977414,-99.85913849,83.32397461,34.29357147,-12.26079464,2.346705437,-0.310027599,27.93225479,64.90557861,17.38655281
892,4147994081,-109.0993042,83.1244278,25.04133034,-10.79713058,1.508219361,-0.67384243,-2.544443369,65.94659424,6.417303085
893,4148010748,-116.9767609,82.67490387,17.31496048,-10.31612873,0.702080965,-1.49664712,-12.01032734,62.83834076,-0.74020493
894,4148027415,-123.0869217,82.07437134,11.53184605,-9.995640755,-0.87545073,-1.718755722,-22.08566856,57.46962738,-6.503818035
895,4148044082,-127.9386673,81.46588135,7.041579723,-9.707493782,-1.924072742,-1.636337161,-23.85520172,52.18727875,-5.679067135
896,4148060749,-132.1315155,80.88428497,3.132970333,-9.667482376,-2.017874479,-1.382428765,-19.23846626,49.59659576,-1.952744246
897,4148077416,-136.0322418,80.27449799,-0.506277204,-9.49149704,-1.518027425,-1.209173679,-18.03634262,50.72992706,0.210634604
898,4148094083,-139.837677,79.57992554,-4.017883778,-9.71042347,-0.985828102,-1.171538591,-20.28458405,55.23714447,1.06198597
899,4148110750,-143.5524902,78.80615234,-7.430467129,-9.759355545,-1.212013245,-1.490676284,-21.1699276,59.83993149,2.976590395
900,4148127417,-147.1061554,77.96928406,-10.66064453,-9.968779564,-0.818078279,-1.401513696,-22.78458977,63.10752106,5.145538807
901,4148144084,-150.5601044,77.05561829,-13.77430534,-9.85114193,-0.871378779,-1.499761343,-24.24066162,67.42960358,7.819642067
902,4148160751,-153.8738708,76.03701782,-16.77151299,-10.06154919,-0.720463097,-1.339722037,-23.33651733,73.19756317,10.15135384
903,4148177418,-157.0899048,74.88146973,-19.67020988,-10.29396152,-0.821609497,-1.024593353,-24.01613808,80.8296814,12.57962894
904,4148194085,-160.1682739,73.58042145,-22.47964478,-10.65422535,-1.252029419,-0.946691453,-21.88478851,89.01746368,15.83787537
905,4148210752,-163.1301422,72.14083099,-25.19416618,-11.48113918,-1.489782095,-0.954002857,-21.47878647,96.7345047,19.98604584
906,4148227419,-165.9888,70.54238892,-27.75169754,-12.04603481,-1.010123849,-0.662911415,-25.53743362,105.1586761,23.41083145
907,4148244086,-168.8319397,68.72232819,-30.24687195,-12.00126743,-0.465741932,-0.717647791,-29.6379776,117.5892334,28.67378998
908,4148260753,-171.7131195,66.65462494,-32.83150101,-12.35029125,0.283864319,-0.857822716,-28.79870415,131.8757782,38.68908691
909,4148277420,-174.552536,64.35958862,-35.34728241,-13.25824833,0.599566698,-0.599318266,-32.39136124,143.8601837,47.28569412
910,4148294087,-177.4485474,61.77910233,-37.68003845,-13.55761147,-0.560526669,0.273603708,-48.35738754,158.5460205,54.0592308
911,4148310754,179.7131958,58.91792297,-39.74982071,-14.55312443,-1.308590651,1.501831055,-61.74942398,172.5438385,59.65345383
912,4148327421,176.8031464,55.87910843,-41.444664,-16.76798248,-1.689317584,4.419941902,-88.30955505,180.2958679,61.93088913
913,4148344088,173.6581268,52.60461426,-42.80139923,-19.35046959,-3.889122009,7.494707108,-122.0111389,191.5856323,65.36988831
914,4148360755,170.7327576,48.29702759,-43.60977554,-15.93205643,-5.669846058,0.714753032,-137.4672241,251.6585999,67.3343277
915,4148377422,168.8316345,42.60448837,-43.55048752,-22.63010788,-5.239599228,-4.877474785,-115.9546356,336.393158,59.77092361
916,4148394089,167.3998718,37.90486526,-43.51166534,-25.86310387,-4.437844753,1.608370185,-86.81575012,276.1257324,57.98205185
917,4148410756,166.1216431,34.09861755,-43.74808502,-20.03502464,-6.691279888,2.525341988,-67.7830658,219.5327911,65.14283752
918,4148427423,165.8771362,30.63524628,-44.20742798,-17.55121994,-5.063140869,-2.821419001,0.619116426,195.8769531,74.53650665
919,4148444090,165.5682678,29.89166451,-44.50165939,-10.67505074,-2.154383659,-5.827741623,-9.109264374,39.38025665,27.46560097
920,4148460757,164.7758942,30.62997055,-44.22411728,-10.68635559,-4.689446926,3.26094532,-55.4121933,-39.2303009,-23.55189514
921,4148477424,164.7231445,32.39863968,-44.65217209,-9.063697815,-5.480068684,7.456877708,10.77402782,-108.2145615,-5.08954525
922,4148494091,165.0858307,34.65694046,-45.23139954,-3.357661009,-0.878151298,4.348872662,41.47074509,-138.4251862,-5.603857517
923,4148510758,165.6891785,37.4058075,-45.57460022,-4.179796696,-2.559562206,1.91390872,48.81843185,-163.8507843,-23.7935524
924,4148527425,166.8490143,40.96966171,-45.72793961,-6.601172447,-1.959085941,1.37515974,75.90332794,-209.4669037,-42.11211395
925,4148544092,168.1405945,45.25705719,-45.75009918,-7.639375687,-1.409848213,0.431371212,78.88219452,-251.3965302,-53.04661179
926,4148560759,169.3966827,50.13266373,-45.72447968,-7.781270981,0.319224864,-0.089136273,74.70095825,-286.7716064,-56.28284073
927,4148577426,170.4674683,55.4415741,-45.49537659,-9.353329659,1.182731986,-0.538316488,53.76973724,-312.2062378,-62.165905
928,4148594093,171.3843231,61.13888168,-44.83909225,-10.58646488,1.345897317,-1.345332503,21.98171425,-334.3153687,-72.64845276
929,4148610760,172.619873,67.05711365,-43.40381241,-12.13742256,1.842865348,-2.500355482,-2.909883261,-346.3972168,-84.9675293
930,4148627427,174.7543335,73.16953278,-40.66640091,-13.97017956,2.347755909,-3.391574383,-26.05193138,-358.2967224,-94.16274261
931,4148644094,-179.7484283,79.3190155,-34.39152527,-15.78147125,1.527592421,-3.575507164,-35.82862854,-364.1900024,-103.7841339
932,4148660761,-157.4091034,85.03343964,-11.59171677,-17.7080574,-0.169026986,-3.595331669,-16.3669796,-366.1175537,-113.1979065
933,4148677428,-69.3644104,85.85240173,76.39794922,-20.54812813,0.019001456,-5.195420265,14.41445827,-362.6613159,-116.6038818
934,4148694095,-38.31330109,80.53892517,107.0796738,-22.3744812,1.038917303,-8.731847763,33.29141617,-355.5682068,-119.2582703
935,4148710762,-30.71043587,74.72699738,114.1802902,-21.49665642,0.601923466,-11.84619522,39.98086929,-338.5587158,-120.3196869
936,4148727429,-27.48696899,69.58071899,116.5480118,-18.82079887,1.440638423,-16.23237801,58.54482269,-291.0360413,-110.3864059
937,4148744096,-25.29183197,65.41871643,117.6908035,-15.40067387,5.13847208,-19.87281227,68.82873535,-235.5128479,-85.79694366
938,4148760763,-23.77129173,62.66614532,118.3130264,-9.608628273,7.209086418,-26.33853149,58.20027542,-157.2359772,-52.04244995
939,4148777430,-23.07166672,61.75481415,118.3719864,-2.774759769,7.78435564,-30.81081581,39.39999008,-51.09434128,-18.57761765
940,4148794097,-23.48740959,63.16328049,117.5831833,-3.838306189,6.016149998,-25.00979996,17.59218216,85.95895386,14.92017937
941,4148810764,-24.2936306,65.92451477,116.2248077,-9.469568253,4.729350567,-23.88703346,25.8086319,165.2945099,36.67266083
942,4148827431,-25.0180397,68.52915192,115.221962,-18.24948502,-1.183409214,-5.504651546,12.60409451,151.3314819,45.62610626
943,4148844098,-25.8033886,69.38225555,115.0048447,-18.68508148,-7.8516078,31.60320473,-34.37247086,47.82024384,19.33807564
