PacketCounter,SampleTimeFine,Euler_X,Euler_Y,Euler_Z,Acc_X,Acc_Y,Acc_Z,Gyr_X,Gyr_Y,Gyr_Z
0,4133143784,-171.0672607,55.62150955,-9.870909691,0,0,0,0,0,0
1,4133160451,-171.2351379,55.65539932,-10.00426674,-9.158514977,-0.681537926,-5.674926758,-3.873665333,-1.730445504,6.917959213
2,4133177118,-171.4738464,55.78715134,-10.17129898,-9.029425621,-0.758599043,-5.798527718,-6.442853451,-7.373631477,8.91245079
3,4133193785,-171.7516479,55.96405792,-10.35055542,-8.41853714,-0.897888601,-5.693273067,-8.164811134,-10.02181149,9.66047287
4,4133210452,-172.0948639,56.17710114,-10.57715702,-7.371816158,-0.263777912,-5.429563999,-9.710195541,-11.98581028,11.45469761
5,4133227119,-172.4300537,56.37200546,-10.90420151,-6.449691296,-0.781926095,-5.992050648,-4.187091827,-10.5158186,14.51191998
6,4133243786,-172.6869354,56.53797913,-11.20820045,-6.904205799,-1.305654407,-5.520840645,-0.616357446,-8.970972061,13.42116261
7,4133260453,-172.8855591,56.6979866,-11.45746422,-7.900356293,-1.530630469,-5.154296875,0.158754036,-8.893862724,11.51001644
8,4133277120,-173.1361389,56.8997879,-11.68206024,-8.521854401,-0.700799167,-5.059261799,-4.1725173,-11.51784897,10.94354057
9,4133293787,-173.493576,57.11978149,-11.99602699,-7.892090321,-0.066540912,-5.972628593,-6.05809021,-12.30749416,13.87421799
10,4133310454,-173.8902588,57.3859787,-12.37523651,-7.332992077,0.11752905,-5.790913105,-5.075024605,-14.91308498,16.13321686
11,4133327121,-174.307724,57.63208008,-12.78956223,-7.327317238,-0.666003585,-5.649675369,-4.493563652,-13.7079258,16.94174576
12,4133343788,-174.6872559,57.87969208,-13.17422676,-7.852566242,-1.104614019,-5.137061119,-3.671535015,-14.00266361,15.82033062
13,4133360455,-175.0944366,58.1130867,-13.56451607,-8.518885612,-0.906171143,-5.03113699,-4.996482372,-13.23327065,15.749856
14,4133377122,-175.4960785,58.34838867,-14.02454472,-8.705458641,-0.245470062,-5.496661186,-1.055155516,-13.26211452,17.78945541
15,4133393789,-176.1373901,58.65487289,-14.54235554,-8.036422729,0.076682493,-5.362952232,-12.41091347,-17.53502846,19.67858124
16,4133410456,-176.8312531,58.98588181,-15.06817627,-7.156904697,-0.895418406,-5.659895897,-15.06444359,-19.19696426,19.6656456
17,4133427123,-177.4747162,59.34869766,-15.41041946,-6.381459713,-2.624654531,-4.924231052,-21.40559959,-21.59952736,13.73788929
18,4133443790,-178.0578461,59.79093552,-15.58956909,-6.114791393,-2.785209656,-4.313758373,-26.16542816,-26.68478012,8.630390167
19,4133460457,-178.6797791,60.20643234,-15.7172966,-5.924058437,-2.095380545,-5.103476524,-31.1372757,-25.19210815,6.709330559
20,4133477124,-179.2720947,60.70862579,-15.68567848,-5.401591778,-2.008375645,-4.574765682,-37.66141891,-30.53240776,1.77901566
21,4133493791,179.9278564,61.26441956,-15.73790359,-4.383765697,-0.786344588,-4.246530533,-45.74910736,-33.73159027,3.891746283
22,4133510458,178.6310883,61.7190094,-16.15345192,-3.42262578,2.0768466,-5.649360657,-56.38997269,-27.82143974,13.7342844
23,4133527125,177.0938721,61.88168716,-16.91802406,-4.62058115,4.097765446,-7.096943378,-52.31060028,-10.98064041,23.45037842
24,4133543792,175.8045807,61.98323059,-18.17380905,-10.08616066,4.734661102,-6.056926727,-11.39049149,-8.708481789,37.11698151
25,4133560459,174.3262634,62.76651764,-19.88474274,-16.15398788,3.748398066,-3.355801344,1.74675715,-51.34016418,45.46773911
26,4133577126,173.0531921,63.75836182,-21.37760162,-20.15345764,1.417592883,-1.505835533,3.145203352,-63.96336365,35.61006927
27,4133593793,171.999176,64.31517792,-22.01886749,-10.64125156,0.18924436,-1.581812739,-29.07257462,-35.64630508,14.47788429
28,4133610460,170.6997223,64.66092682,-22.7028141,-6.679331303,-0.834824085,-7.114048004,-41.33857727,-23.47360611,16.4869194
29,4133627127,169.6100922,65.17041779,-23.57053947,-6.802121162,-0.039752759,-4.752873421,-18.65641022,-34.21651077,18.65383148
30,4133643794,168.2924042,65.59612274,-24.71718025,-9.954939842,0.414279044,-3.159606934,-16.95705032,-30.88724899,25.36683846
31,4133660461,166.9327698,66.01322937,-25.97267914,-9.832079887,0.281385303,-4.370535851,-13.32051182,-31.37598991,26.92365456
32,4133677128,165.5694733,66.40900421,-27.33166504,-9.330913544,0.574853659,-4.005490303,-7.627575397,-31.19167519,28.45476723
33,4133693795,164.0062103,66.70729828,-28.78915977,-8.545908928,1.146864295,-4.223515034,-14.00793362,-26.6986084,31.0293045
34,4133710462,162.3114777,67.03475952,-30.25512886,-8.718196869,1.033003211,-4.099113941,-21.24611473,-29.11214066,29.52945518
35,4133727129,160.5645599,67.29814911,-31.80014801,-8.593640327,1.515121222,-3.786593914,-19.82594681,-26.72828674,31.22838402
36,4133743796,158.9960785,67.61841583,-33.28675079,-9.437000275,1.303432941,-3.58161664,-12.17933941,-30.13934708,27.60126305
37,4133760463,157.440506,67.9133606,-34.80121613,-8.819664955,1.490953684,-3.401551247,-9.678136826,-29.47582245,27.51958466
38,4133777130,155.8924103,68.17910004,-36.26794815,-8.794075012,1.948167086,-3.874111414,-11.71695423,-27.94985962,26.0553627
39,4133793797,154.2586212,68.48879242,-37.75868607,-8.750889778,1.444145322,-3.727065325,-15.35928917,-31.04375648,24.27504158
40,4133810464,152.6725159,68.76563263,-39.24505234,-8.681259155,1.932211041,-2.625843763,-12.58008099,-29.65319824,23.81669617
41,4133827131,151.1291351,69.00800323,-40.76334763,-8.670064926,2.598024607,-1.290087461,-8.076507568,-28.5505867,24.25949669
42,4133843798,149.7164612,69.03725433,-42.16805267,-8.621863365,3.370806694,-1.941810966,-6.507277012,-16.67273903,27.5364399
43,4133860465,148.9174347,69.0981369,-42.98348236,-10.13227654,-1.002778411,-5.166166782,-2.67048645,-12.30552292,15.3263092
44,4133877132,147.4089203,69.23765564,-44.46530533,-9.081225395,1.567382574,-3.456546783,-7.859752178,-24.03830147,24.62003899
45,4133893799,145.9557343,69.38195801,-45.9369278,-8.479420662,2.943924189,-1.965429425,-5.042635441,-24.61739922,23.48783112
46,4133910466,144.6536407,69.4074707,-47.26865387,-7.821564674,3.574573517,-1.424586535,-3.775567293,-17.50403214,24.42173004
47,4133927133,143.5122681,69.39128876,-48.3573761,-8.764332771,3.324830532,-2.510216475,-7.766084194,-12.92503071,21.34926605
48,4133943800,142.1732788,69.40654755,-49.60157394,-9.020933151,3.007305622,-2.362496853,-10.88881207,-16.82244682,22.53606415
49,4133960467,141.7155151,69.37805939,-50.13809967,-10.35108089,-1.049709916,-4.620202065,2.250928879,-5.856488705,12.13303185
50,4133977134,140.5217133,69.36218262,-51.45087814,-8.744251251,1.189247608,-3.098685741,1.648649573,-16.90288544,24.37324142
51,4133993801,138.8066101,69.31597137,-53.22891998,-7.214187145,4.385056019,-0.204867974,-3.526132584,-22.46881485,32.66981125
52,4134010468,137.3962708,69.03520966,-54.6412735,-7.765420437,6.262208462,0.028635427,-5.834946632,-7.787027836,35.84352493
53,4134027135,136.5748749,68.69023132,-55.40526581,-10.04046535,1.889307976,-4.234928608,-6.919791698,3.666821718,28.35787392
54,4134043802,135.9957428,68.50377655,-56.28195572,-10.79647636,-0.955479503,-4.676295757,13.82152748,-5.374557972,23.75796318
55,4134060469,134.0778351,68.27095795,-58.20230484,-8.201129913,1.509079933,-3.153251171,-8.380541801,-20.30238533,42.07137299
56,4134077136,132.5493774,67.96914673,-59.93019104,-8.209542274,3.817317009,-2.76476717,4.064540386,-15.88258553,41.85855103
57,4134093803,131.1926727,67.71026611,-61.25299454,-9.611334801,3.101532936,-2.862459183,-8.331274033,-12.11639881,33.72074127
58,4134110470,129.4860077,67.57558441,-62.78511429,-9.453142166,2.780045509,-3.310717106,-17.81936455,-21.60609627,30.96513176
59,4134127137,127.692955,67.50180054,-64.48034668,-8.429166794,3.345451355,-3.166961908,-14.02341652,-27.79635048,29.8756752
60,4134143804,126.050148,67.50157166,-66.0170517,-8.793234825,2.362591267,-2.751777172,-13.82964039,-28.39860725,23.3547039
61,4134160471,124.1750259,67.50460815,-67.71923828,-9.101660728,2.425239801,-2.944649935,-18.60035324,-32.25362015,24.50386047
62,4134177138,121.9111328,67.49742889,-69.83959198,-9.306025505,3.577022552,-2.360780478,-18.75347519,-40.75061798,29.09005547
63,4134193805,119.6184998,67.47219849,-71.85256958,-8.993653297,4.108645439,-1.687385201,-26.43776894,-39.14284515,27.14454842
64,4134210472,117.4955368,67.44669342,-73.63298798,-9.089256287,3.607473135,-1.96600759,-29.16592598,-35.40398026,23.10468292
65,4134227139,115.5505447,67.44011688,-75.3112793,-8.879304886,3.036620617,-2.227020741,-24.15625572,-34.55020142,19.78694153
66,4134243806,113.7487106,67.44038391,-76.90814972,-9.1642313,3.266972303,-1.824657917,-20.08588982,-33.57949066,17.50637436
67,4134260473,112.063591,67.48052979,-78.35673523,-9.352066994,4.067704678,-0.932681859,-21.2920742,-31.78547478,12.94257355
68,4134277140,110.8110886,67.59338379,-79.26703644,-9.301958084,4.718276501,-0.504305542,-25.12181282,-22.0591507,3.51846242
69,4134293807,109.9788361,67.86056519,-79.54244232,-9.736448288,4.532392502,-0.504847765,-35.07828522,-11.60936165,-10.65118599
70,4134310474,109.511322,68.36367798,-79.33056641,-10.48978424,3.876470566,-0.370542258,-40.27449036,-5.888922215,-27.82877922
71,4134327141,109.318306,69.14507294,-78.92007446,-11.83563042,3.388233423,0.550402939,-34.94551468,-7.316313267,-44.99588394
72,4134343808,109.7279434,70.28704834,-77.37799072,-11.32230663,2.380459547,0.165562183,-62.6029892,7.192749977,-73.09838867
73,4134360475,112.8802795,71.76598358,-71.52449799,-8.92406559,0.885120213,-3.607871056,-143.3880615,74.00749207,-121.849823
74,4134377142,119.9324799,73.85726929,-59.79285812,-8.699317932,-3.332819462,-4.939043999,-249.9068756,130.3578491,-202.0359802
75,4134393809,132.9440765,75.42576599,-41.63329315,-9.704969406,-7.766128063,-9.197929382,-270.8858337,175.8942566,-243.3975983
76,4134410476,145.2876282,75.65447235,-22.89682388,-12.24759483,-5.039527416,-10.6350565,-348.843689,172.5420532,-218.1096954
77,4134427143,154.3673859,75.18874359,-7.161016464,-11.46119118,1.140731812,-6.345374584,-369.69104,142.7742615,-188.8510742
78,4134443810,164.7335358,74.24213409,8.621243477,-10.39877605,-2.569314957,-1.11741519,-292.2502136,139.3688965,-211.491272
79,4134460477,172.0970459,72.95188904,20.85534477,-6.727304935,-1.491907477,0.750248015,-262.9967957,116.6413269,-185.2049866
80,4134477144,176.6036987,71.62186432,29.50892067,-4.767404556,-0.750274122,4.018187046,-224.6949158,94.40454865,-147.187088
81,4134493811,178.6757355,70.73181915,35.45012283,-3.811356306,-0.115506798,7.724727154,-213.4503632,57.71819305,-110.6183929
82,4134510478,178.2128601,70.47013855,39.14944077,-1.81690979,0.806725681,9.90180397,-237.4473724,17.44016647,-71.20655823
83,4134527145,175.5962219,70.53588104,39.89051437,1.556346416,4.709664345,6.905691624,-199.1634064,-3.316215754,-12.96140575
84,4134543812,169.7621918,71.27155304,37.39007568,-6.841782093,3.24598074,0.453420043,-208.4829254,-50.15928268,45.10895538
85,4134560479,157.177124,70.59651184,28.96966362,-7.942485809,13.38334084,-15.17012978,-277.6698303,-8.281259537,171.6460571
86,4134577146,147.3038635,70.09625244,16.25152016,-26.19806862,16.16049767,-11.00964737,126.1824875,-93.05160522,242.5219574
87,4134593813,140.6277618,72.25382996,7.314730644,-20.79109383,2.765656233,12.66941643,106.690361,-206.200882,65.71045685
88,4134610480,141.3965759,73.65276337,8.623408318,-13.76067448,-7.136331558,4.106981277,-29.24073982,-50.79967117,-68.79735565
89,4134627147,139.5372467,73.32354736,7.221078396,-9.139112473,-3.327290535,2.451583862,-31.12292862,-0.002029821,32.99285507
90,4134643814,139.7164612,71.98674011,7.235401154,-9.159989357,5.984684467,-0.651537657,9.735003471,61.28126526,53.77790833
91,4134660481,138.7227631,71.04492188,6.805165768,-8.207332611,6.296580315,-6.352144718,-35.32178497,37.46298599,45.09788513
92,4134677148,139.0767822,70.86859894,6.818937302,-7.549257278,5.316776276,-2.943560123,20.24198723,8.15525341,8.709680557
93,4134693815,139.7294617,71.05367279,7.310941696,-8.818350792,3.579588175,-3.060905933,11.02187157,-2.162808657,-12.60420704
94,4134710482,139.2172241,71.30275726,7.069930553,-9.30522728,2.075504541,-1.528130174,-17.28944206,-14.39226723,-4.243129253
95,4134727149,138.5333405,71.24694061,6.934554577,-9.708449364,2.138117075,-0.850530326,-33.57450104,0.81834197,6.097857952
96,4134743816,137.9386292,71.16507721,6.836306572,-9.79711628,2.239589214,-1.902271986,-30.32776451,2.415823936,6.620457649
97,4134760483,137.6262512,71.03121185,6.8656106,-9.115391731,2.519088268,-1.747737885,-20.62144089,6.354918957,6.913764
98,4134777150,137.4854736,70.98017883,6.977531433,-9.289152145,3.254375458,-2.207009792,-15.01473522,3.759947538,2.387758493
99,4134793817,137.3625183,71.04873657,7.063573837,-9.211924553,3.018066883,-1.872858286,-12.47574043,-1.859835148,-2.085662365
100,4134810484,137.3289337,71.11625671,7.180051327,-9.29458046,2.414131165,-2.057743788,-8.842614174,-1.413597465,-2.484221458
101,4134827151,137.080658,71.21207428,7.050159931,-9.206507683,2.826256514,-2.163287878,-7.724670887,-5.892452717,-0.126494765
102,4134843818,136.6830444,71.36074829,6.767098427,-9.250951767,2.817776918,-2.266721249,-7.981376648,-10.20019245,-0.190027148
103,4134860485,136.0878754,71.5430603,6.343008995,-9.171435356,2.497723103,-1.938274264,-11.79985523,-13.46400452,0.242680624
104,4134877152,135.3635864,71.70822144,5.827710629,-9.171224594,2.627305508,-1.618373752,-14.32299519,-13.8577652,1.992069125
105,4134893819,134.6283875,71.87006378,5.301384926,-9.335186005,2.879798174,-1.750565171,-14.3225565,-13.79830265,2.041706324
106,4134910486,133.7685394,72.04676819,4.646715641,-9.407134056,2.676043749,-1.759118319,-14.45070171,-16.06571579,2.809731007
107,4134927153,132.7671814,72.19888306,3.880653143,-9.17093277,2.089053869,-1.641074538,-16.54141235,-16.47895432,4.956041813
108,4134943820,131.5237122,72.31264496,2.928608418,-8.952000618,2.405472279,-1.578449488,-20.40840149,-17.43374825,8.554551125
109,4134960487,130.1138611,72.43783569,1.801431656,-9.307455063,3.002783775,-1.956151009,-20.33488846,-20.3466568,9.639587402
110,4134977154,128.4109802,72.60975647,0.375478536,-9.402301788,3.146354914,-1.842184663,-20.77152061,-26.36406326,10.20720387
111,4134993821,126.5156097,72.78894043,-1.252158165,-9.39385891,3.012535572,-1.552146912,-20.68820763,-29.52522469,11.06695843
112,4135010488,124.4470444,72.95690918,-3.083696127,-9.40719986,2.554405689,-1.198348761,-19.30303383,-32.13483429,12.51037407
113,4135027155,122.2427368,73.06196594,-5.047606945,-9.444054604,2.633140087,-1.080716252,-19.77440453,-32.15719223,15.5991087
114,4135043822,119.9710312,73.11747742,-7.088132381,-9.377073288,3.131967306,-1.032686591,-19.37203026,-32.13661575,17.48563766
115,4135060489,117.7295303,73.17514038,-9.166661263,-9.376095772,2.855690241,-0.75976485,-15.34559822,-33.26024628,16.35377693
116,4135077156,115.6338501,73.21814728,-11.15584087,-9.37614727,2.634571314,-1.021373987,-11.68923855,-31.90292931,15.13062096
117,4135093823,113.578804,73.257164,-13.16723728,-8.863359451,3.215521336,-0.522919774,-7.950097084,-32.53343201,14.31060982
118,4135110490,111.8865662,73.33244324,-14.89149475,-8.936167717,3.889659166,0.126141876,-2.649277449,-29.08490944,9.27202034
119,4135127157,110.7753754,73.47541809,-16.07105637,-9.452178955,3.749867916,-0.00187888,0.948439837,-21.85631943,1.302817583
120,4135143824,110.0133896,73.64636993,-16.90595627,-9.416138649,3.817415714,0.229183152,2.126445293,-16.76504707,-2.735970497
121,4135160491,109.6105194,73.86031342,-17.43149185,-9.791460037,3.52304101,0.188415721,5.909187317,-12.54804897,-7.151884556
122,4135177158,109.5849915,74.08973694,-17.53468323,-9.725143433,3.113054514,-0.280917138,4.228966713,-6.122597694,-10.46410656
123,4135193825,110.3840866,74.35890198,-16.63201714,-9.89522171,3.066767931,-1.316092253,-4.358781815,8.42474556,-18.27733231
124,4135210492,111.3517761,74.70094299,-15.4040184,-10.16964912,3.451701641,-1.142965078,-13.13394547,11.1590786,-24.2417469
125,4135227159,112.9235764,75.10620117,-13.25088501,-9.081506729,3.889283895,-1.046292067,-30.61334801,22.10936356,-33.26714325
126,4135243826,116.7201233,75.63521576,-8.143939018,-9.047781944,2.619253874,-3.087688923,-68.88516235,57.01345062,-59.3376236
127,4135260493,123.6855774,75.90132141,1.052681923,-7.19944334,-0.384338945,-8.744599342,-117.185585,109.2228928,-80.01339722
128,4135277160,131.6833344,75.11934662,12.31630802,-9.54401207,3.197941303,-14.41435623,-174.8014374,162.2549591,-64.3441925
129,4135293827,135.0634613,74.53692627,18.75153923,-10.33013153,5.303023338,-6.451631546,-170.1625061,97.41915894,-42.10704422
130,4135310494,138.1694183,74.17694855,24.85364914,-7.077503204,-1.927911639,-0.979082108,-166.560379,83.49254608,-55.04391861
131,4135327161,140.5151367,73.79566193,29.00079918,-5.665350914,-0.814906716,-0.707746685,-98.73125458,62.09210968,-35.27945328
132,4135343828,141.8322296,73.47645569,31.05528259,-4.181649685,1.513062596,0.453279763,-39.54280472,36.73182678,-13.14973354
133,4135360495,142.3040619,73.41443634,31.55644417,-3.768470049,2.490392923,2.315860033,-0.788519263,8.251633644,-2.569562912
134,4135377162,142.0483704,73.01569366,31.35900688,-3.139952183,4.581805229,1.954317451,-4.273816109,16.8678093,19.2627697
135,4135393829,138.1963959,73.28752136,26.5904274,-21.09084511,2.691068888,9.637827873,42.45925522,-65.57920837,55.04562378
136,4135410496,130.7262421,74.025383,19.00501633,-6.990472794,2.580283165,10.95355701,-11.61305618,-122.1351242,60.01381302
137,4135427163,132.4701385,73.93933868,21.30751801,-20.89764786,-8.136518478,-3.344718218,-28.29803276,32.14508438,-19.53694916
138,4135443830,129.2904663,74.21851349,17.68763161,-18.36872292,2.037030697,0.284652889,17.99952888,-55.79743195,28.32388306
139,4135460497,128.1225739,73.78266144,16.52869225,-5.412195683,6.896193027,4.204514503,-3.276985645,1.607101202,34.40699005
140,4135477164,129.5684662,73.31786346,17.99884987,-9.629770279,3.452665806,-3.1927917,2.120972395,37.18034744,8.035793304
141,4135493831,129.9417419,73.15442657,18.27851105,-8.279223442,4.376013756,-3.929960489,6.285283566,10.22467327,6.423054695
142,4135510498,129.7966919,73.33885193,17.79962349,-8.483839035,4.165653229,-3.304909229,18.74572754,-13.22982311,-1.222426057
143,4135527165,128.92453,73.58680725,16.86792755,-7.787595272,3.42320919,-1.208592176,1.17375505,-21.52628708,0.534576356
144,4135543832,128.0362701,73.6680603,16.13396454,-8.87256813,1.134204865,-1.308262229,-11.13337326,-12.53624725,5.84734726
145,4135560499,126.6746826,73.60282135,14.93492603,-9.549232483,1.573674917,-0.794277668,-12.75352097,-13.52199364,17.35742188
146,4135577166,125.1911545,73.41702271,13.65792656,-9.483428001,2.481989861,-0.249666661,-15.61504555,-10.85166931,23.74570084
147,4135593833,124.0008163,73.15842438,12.73794651,-9.840542793,3.627655506,-0.367156178,-18.61904526,-4.035933495,23.74241638
148,4135610500,123.0327759,72.95121765,11.98775768,-9.96176815,3.364487171,-0.694287837,-15.08311558,-3.843635559,19.56577492
149,4135627167,122.1845016,72.76304626,11.29235935,-9.688865662,2.895602942,-0.856013834,-11.07998943,-4.042657375,18.09319878
150,4135643834,121.4220505,72.59911346,10.62404633,-9.389138222,3.04660368,-0.836738288,-7.517548561,-4.725363255,16.60486031
151,4135660501,120.7970047,72.4719162,10.03661728,-8.994288445,3.073971033,-0.73867017,-3.929266691,-4.877680302,13.95287609
152,4135677168,120.3690796,72.34801483,9.651516914,-8.58164978,3.218477964,-0.842157066,-3.691822767,-1.989691734,11.90737534
153,4135693835,120.0807495,72.24118805,9.430344582,-8.51682663,3.359204531,-1.049248576,-4.700411797,-0.01965135,9.522433281
154,4135710502,119.8187332,72.15435028,9.269173622,-8.948885918,3.461017609,-0.887568951,-6.555732727,0.282123983,7.93905592
155,4135727169,119.564003,72.0880661,9.127196312,-9.457291603,3.39135623,-0.549457371,-7.217794895,-0.05949191,6.693714142
156,4135743836,119.4081802,72.00775146,9.059151649,-9.657962799,3.136300325,-0.389493108,-5.500513554,1.523251534,6.759205818
157,4135760503,119.3354416,71.90070343,9.066236496,-9.448407173,2.988315821,-0.544058144,-4.799250603,3.516444921,7.477782726
158,4135777170,119.2528229,71.78275299,9.077567101,-9.293038368,3.156654596,-0.793919683,-5.62555027,3.90011692,8.013531685
159,4135793837,119.2016754,71.67526245,9.106865883,-9.077220917,3.331185818,-0.965049922,-4.75412178,3.885216951,7.307843208
160,4135810504,119.1151428,71.59973145,9.088622093,-8.982152939,3.482057571,-1.030392647,-4.17220068,2.159957647,6.066535473
161,4135827171,119.0148468,71.5555191,9.016590118,-9.105874062,3.427615404,-0.985162139,-1.92965436,0.352686912,4.927230835
162,4135843838,118.8982162,71.53707886,8.887137413,-9.227389336,3.234974861,-0.806282938,0.355324984,-1.357581973,4.099684238
163,4135860505,118.7966385,71.52344513,8.731416702,-9.25907135,3.159084797,-0.620139182,2.750919342,-1.937594533,4.083791733
164,4135877172,118.7385941,71.49030304,8.627173424,-9.145705223,3.229320765,-0.627026618,2.440429688,-0.522428632,4.636808395
165,4135893839,118.6115646,71.45028687,8.481281281,-9.291209221,3.372722626,-0.98299247,0.675701439,-1.027472734,5.380575657
166,4135910506,118.3458405,71.41179657,8.229346275,-9.144194603,3.122563601,-0.960071504,-1.613440275,-2.867733002,6.262805939
167,4135927173,117.9888687,71.3589859,7.884481907,-9.210791588,3.226169348,-1.053325176,-1.804664969,-4.064512253,7.849666595
168,4135943840,117.5346222,71.30860901,7.467906952,-9.066858292,3.594057322,-0.846073568,-3.570801973,-5.409922123,8.337346077
169,4135960507,117.1481171,71.27394104,7.132016659,-9.261986732,3.384434223,-0.695613265,-4.100548744,-4.522748947,6.749177933
170,4135977174,116.8170853,71.25735474,6.821835518,-9.304221153,3.379867554,-0.577537358,-2.229195118,-4.608320713,5.534201145
171,4135993841,116.5459213,71.26811981,6.531836987,-9.263865471,3.449812174,-0.682400286,0.220358878,-5.016766548,3.866685867
172,4136010508,116.3056488,71.31296539,6.258611679,-8.948666573,3.647289038,-0.809385777,1.124538422,-5.638411522,1.861902595
173,4136027175,116.1991806,71.3792038,6.120788574,-8.854347229,3.516279697,-0.713710785,1.46229291,-3.8599298,-0.463404179
174,4136043842,116.1623154,71.46163177,6.05243063,-9.212112427,3.352683544,-0.691471219,1.687620878,-3.083840132,-1.937428236
175,4136060509,116.143898,71.55580902,5.984016895,-9.293009758,3.397080183,-0.585454226,2.807305574,-3.387542248,-2.572699785
176,4136077176,116.2440872,71.65170288,6.031643867,-8.979915619,3.408925772,-0.472613543,3.32044363,-1.4589957,-3.637330532
177,4136093843,116.404335,71.74111176,6.173764706,-8.987664223,3.419757366,-0.749784529,1.546443582,0.29498148,-4.073360443
178,4136110510,116.5298462,71.83138275,6.301601887,-9.039881706,3.260297775,-0.841469288,0.275413424,0.006223887,-3.994243383
179,4136127177,116.6149902,71.91405487,6.401306629,-9.130402565,3.234538555,-0.75891149,-0.547669947,-0.278979927,-3.34912324
180,4136143844,116.6535568,71.99804688,6.435389519,-9.358354568,3.152752161,-0.790091991,0.400467366,-1.418552995,-2.86976862
181,4136160511,116.6285553,72.08035278,6.388093948,-9.296303749,3.267537355,-0.706227124,1.23201561,-2.720952272,-2.1030972
182,4136177178,116.5772629,72.15609741,6.303714275,-9.236261368,3.170104504,-0.595343292,1.778162003,-3.148101807,-1.448199868
183,4136193845,116.4955063,72.20409393,6.179560661,-9.17304039,3.143898726,-0.618540227,2.22688365,-3.04862237,0.359346211
184,4136210512,116.3942413,72.2400589,6.036813736,-9.223643303,3.137669086,-0.701284826,2.120366812,-3.022785425,1.150464892
185,4136227179,116.3008118,72.27767181,5.902732372,-9.176205635,3.204148531,-0.71823734,2.102277517,-2.92126298,0.982157528
186,4136243846,116.2032089,72.32650757,5.760032177,-9.133654594,3.360571861,-0.741286278,2.355779171,-3.353105545,0.439936519
187,4136260513,116.1788712,72.38892365,5.704693794,-9.031455994,3.315407515,-0.676358283,1.756083369,-2.277730942,-1.000873804
188,4136277180,116.1916962,72.45799255,5.712977886,-9.169771194,3.312695742,-0.700730801,0.350829989,-1.415172219,-1.872909665
189,4136293847,116.2025833,72.53377533,5.736578941,-9.183995247,3.151860237,-0.647379816,-0.643384576,-1.344609022,-2.35604167
190,4136310514,116.2219849,72.61218262,5.776087284,-9.289715767,3.073955536,-0.656801879,-1.039190531,-1.16033864,-2.62309289
191,4136327181,116.1985779,72.68560028,5.791744232,-9.224655151,3.300121069,-0.539863467,-2.238940477,-1.414557219,-2.166533232
192,4136343848,116.1891861,72.7617569,5.826518059,-9.24390316,3.178668261,-0.66651392,-2.48689723,-1.178561926,-2.460926056
193,4136360515,116.146492,72.83608246,5.838355064,-9.214096069,3.252667665,-0.722520769,-3.17053175,-1.493706942,-2.185121536
194,4136377182,116.0894775,72.91726685,5.840756893,-9.179654121,3.153797865,-0.618136525,-3.488687038,-1.822926521,-2.486397743
195,4136393849,116.0460052,72.99281311,5.853936672,-9.256623268,3.091615677,-0.639050543,-3.290892601,-1.497017384,-2.263528824
196,4136410516,116.0056686,73.06786346,5.858676434,-9.233717918,3.102698803,-0.594125986,-2.619801521,-1.616641641,-2.178392172
197,4136427183,115.9868622,73.14307404,5.877350807,-9.297606468,3.063248634,-0.65963155,-2.124438763,-1.397192001,-2.291164875
198,4136443850,115.9337082,73.22460175,5.845323086,-9.249005318,3.026669502,-0.673765182,-1.268206477,-2.351956606,-2.246547699
199,4136460517,115.8984909,73.30812073,5.823084831,-9.169273376,3.095633268,-0.625158668,-0.753839433,-2.248545408,-2.435198069
200,4136477184,115.8580856,73.393013,5.788443565,-9.260144234,3.265269279,-0.556640446,-0.348684877,-2.470223188,-2.41776824
201,4136493851,115.8250809,73.48135376,5.763236046,-9.375815392,3.244961739,-0.573037267,-0.441313267,-2.40672946,-2.676290274
202,4136510518,115.7731552,73.57410431,5.704016685,-9.359260559,2.984267712,-0.603483438,0.379285753,-3.037839651,-2.669720888
203,4136527185,115.7069321,73.65605164,5.624698162,-9.25173378,3.031503916,-0.554582059,0.683257222,-3.054820299,-1.945521593
204,4136543852,115.6676025,73.72868347,5.569153309,-9.247309685,2.976104736,-0.503542781,0.934108019,-2.441831827,-1.620048165
205,4136560519,115.6112518,73.79150391,5.496529579,-9.300127983,2.882455826,-0.574722469,0.903987408,-2.436798573,-0.968678772
206,4136577186,115.5159607,73.83981323,5.378970146,-9.301668167,2.977386951,-0.509628117,1.160370469,-2.733329535,0.13378793
207,4136593853,115.4001694,73.87368774,5.252979755,-9.308732986,3.048555374,-0.537202239,0.418895692,-2.478829145,0.968659461
208,4136610520,115.2744598,73.89949036,5.129954338,-9.350913048,3.079269886,-0.584233403,-0.346251667,-2.220255852,1.377284288
209,4136627187,115.1243439,73.92369843,4.983126163,-9.254283905,3.064040184,-0.549587071,-0.438342184,-2.535228252,1.620016217
210,4136643854,114.9790268,73.94548798,4.837805748,-9.328893661,2.946685314,-0.503800988,-0.226601958,-2.445878506,1.73359549
211,4136660521,114.8397522,73.96239471,4.686161041,-9.307799339,2.962674379,-0.524680436,0.50090754,-2.413401365,2.037592411
212,4136677188,114.7052155,73.97917175,4.537292957,-9.249259949,3.14691925,-0.502772808,0.627267718,-2.366286755,2.014349222
213,4136693855,114.5868378,74.00283813,4.411114216,-9.294221878,3.176542759,-0.518887103,0.297081709,-2.194746017,1.476239324
214,4136710522,114.4551544,74.03255463,4.273968697,-9.303322792,3.127068281,-0.531629145,0.133019552,-2.50731039,1.210443377
215,4136727189,114.3398819,74.06202698,4.163135052,-9.227081299,3.072111845,-0.488130927,-0.400108814,-2.09846139,1.03678298
216,4136743856,114.2376709,74.09418488,4.072923183,-9.219406128,3.049502373,-0.466120511,-0.802670062,-1.852957368,0.740591288
217,4136760523,114.1819077,74.12228394,4.036542416,-9.226028442,3.016891956,-0.490751833,-1.114683867,-0.940159023,0.598325491
218,4136777190,114.1361389,74.15149689,4.008281708,-9.266689301,3.008317709,-0.500014663,-0.983137012,-0.84554565,0.476665139
219,4136793857,114.1043243,74.1823349,3.990272045,-9.306075096,3.05200839,-0.511854887,-0.732183814,-0.727611959,0.322732806
220,4136810524,114.0731735,74.21724701,3.969957829,-9.273517609,3.079821587,-0.467187405,-0.554559767,-0.860913217,0.111312792
221,4136827191,114.083992,74.25416565,3.986722946,-9.298765182,2.989526749,-0.50389123,-0.173801363,-0.359198868,-0.250063181
222,4136843858,114.0920258,74.289711,3.996987104,-9.252574921,3.019016266,-0.447337031,0.036113907,-0.421399325,-0.128018662
223,4136860525,114.1270905,74.3234024,4.037888527,-9.298103333,2.993328333,-0.476075441,-0.109116495,0.077145442,-0.229188845
224,4136877192,114.1486359,74.3533783,4.066547394,-9.295646667,2.990900278,-0.444411933,-0.213910848,-0.015655763,0.049957566
225,4136893859,114.1756439,74.38080597,4.100257874,-9.305624008,3.000988722,-0.497407526,-0.176247373,0.123094633,0.16112949
226,4136910526,114.1880951,74.40635681,4.12709713,-9.2935009,3.010802031,-0.432052612,-0.647841156,0.065645345,0.30653277
227,4136927193,114.2154083,74.43251038,4.171263218,-9.32390213,2.980908155,-0.506222844,-0.755184114,0.304803967,0.159106106
228,4136943860,114.2417068,74.46002197,4.215813637,-9.234115601,3.005612373,-0.484844983,-0.837400794,0.274324805,0.081640482
229,4136960527,114.3252106,74.48852539,4.320508957,-9.222064018,3.04210043,-0.486867487,-0.877215803,1.127740026,-0.370135546
230,4136977194,114.4484406,74.51953888,4.469043732,-9.268666267,3.049956083,-0.421379179,-1.027267814,1.699120998,-0.798251867
231,4136993861,114.6073532,74.55275726,4.653979301,-9.319342613,2.95503068,-0.501764476,-0.987574399,2.164561272,-1.160511374
232,4137010528,114.7542953,74.58574677,4.825611591,-9.324703217,2.918323278,-0.518203318,-0.939941168,1.961689472,-1.067159534
233,4137027195,114.9054337,74.61729431,5.002057552,-9.272116661,2.939769983,-0.490735114,-0.962301195,2.057672977,-1.017073989
234,4137043862,115.0752029,74.64421844,5.206125259,-9.255013466,2.978161335,-0.53145808,-1.444242716,2.558171272,-0.96016258
235,4137060529,115.2361145,74.6736908,5.397388458,-9.361003876,2.952632189,-0.555010259,-1.231925964,2.297881603,-1.013142228
236,4137077196,115.3812256,74.70145416,5.575478554,-9.321507454,2.957932234,-0.522467017,-1.415594459,2.140978336,-0.833686948
237,4137093863,115.5105515,74.72677612,5.734151363,-9.377792358,2.876241684,-0.544979155,-1.234282374,1.914536595,-0.573103428
238,4137110530,115.6086426,74.74752045,5.86326313,-9.321052551,2.920368671,-0.545610607,-1.40146935,1.603111744,-0.128313228
239,4137127197,115.7025757,74.76686859,5.985671043,-9.367059708,2.872514009,-0.580307782,-1.257807612,1.539463878,-0.005922935
240,4137143864,115.742569,74.78533936,6.044764996,-9.343253136,2.82883358,-0.643572986,-0.827808797,0.658297598,0.471401721
241,4137160531,115.7297821,74.80263519,6.050392151,-9.296989441,2.909078598,-0.606094539,-0.896040976,-0.06849476,0.90460211
242,4137177198,115.7194824,74.8168869,6.059991837,-9.297593117,2.879471064,-0.566444278,-0.972802401,0.063340209,1.036200166
243,4137193865,115.6798172,74.82991028,6.043353081,-9.344305038,2.980977297,-0.527276993,-1.216443181,-0.272397459,1.284592271
244,4137210532,115.678093,74.84256744,6.060532093,-9.350313187,2.881326675,-0.562905073,-0.898448765,0.215966299,1.072083592
245,4137227199,115.6509247,74.85482788,6.05262661,-9.31696701,2.964938641,-0.503786623,-0.969344735,-0.129388943,1.262859702
246,4137243866,115.6707687,74.86748505,6.091458797,-9.326668739,2.925848484,-0.5201087,-0.846749365,0.520117104,0.925399601
247,4137260533,115.6644363,74.88102722,6.103513241,-9.33303833,2.893983603,-0.580480039,-0.866842687,0.118330665,1.056011558
248,4137277200,115.6351318,74.89123535,6.093077183,-9.336001396,2.854393721,-0.548715115,-0.935266972,-0.112305306,1.390270352
249,4137293867,115.5925522,74.89772797,6.066938877,-9.333593369,2.887723923,-0.551914573,-0.822455764,-0.235310271,1.697686434
250,4137310534,115.5552063,74.90085602,6.049411297,-9.315741539,2.9360075,-0.496021718,-1.006508589,-0.027578473,1.819551706
251,4137327201,115.5292206,74.90395355,6.041122913,-9.330181122,2.886260509,-0.589494288,-0.858518362,0.102668487,1.755519748
252,4137343868,115.4956055,74.90567017,6.023758411,-9.321836472,2.86215663,-0.575885892,-0.789440989,0.010257886,1.892035604
253,4137360535,115.4506226,74.9050293,5.991691113,-9.327131271,2.957061052,-0.523538649,-0.615281105,-0.134428263,2.118727446
254,4137377202,115.4396667,74.90560913,5.993843079,-9.312578201,2.933329344,-0.536022723,-0.552459478,0.31549722,1.822253942
255,4137393869,115.4154968,74.90724182,5.981864452,-9.326387405,2.952121258,-0.481446892,-0.525899112,0.089337088,1.85920012
256,4137410536,115.4289551,74.90565491,6.009357452,-9.35644722,2.881041527,-0.566005111,-0.55507195,0.72947526,1.767570734
257,4137427203,115.4154587,74.90365601,6.009925365,-9.297438622,2.915146828,-0.550144732,-0.609755158,0.360242605,1.970589876
258,4137443870,115.4321671,74.90061951,6.041707516,-9.285449028,2.930164814,-0.555017591,-0.599445999,0.826560199,1.816990376
259,4137460537,115.452919,74.9003067,6.077685356,-9.301732063,2.955932617,-0.577621877,-0.59977901,0.813228726,1.637163758
260,4137477204,115.4901428,74.90080261,6.133571148,-9.304961205,2.907124519,-0.541537583,-0.756029189,1.077500463,1.465648055
261,4137493871,115.5225449,74.90040588,6.18389082,-9.325205803,2.910405636,-0.564447761,-0.726638675,1.017656684,1.544023037
262,4137510538,115.5705719,74.89857483,6.249300957,-9.298351288,2.875748396,-0.59237355,-0.66147995,1.269416571,1.521868229
263,4137527205,115.6110611,74.89579773,6.309895039,-9.30240345,2.943564415,-0.530786812,-0.833443701,1.225759864,1.603419065
264,4137543872,115.6749344,74.89346313,6.395281315,-9.313157082,2.93797493,-0.564831257,-0.862206638,1.56113255,1.409978986
265,4137560539,115.7308884,74.89464569,6.47040987,-9.319890976,2.901793242,-0.610570371,-0.741545141,1.326968074,1.288792491
266,4137577206,115.7928391,74.89401245,6.550424099,-9.291954994,2.866872549,-0.567918003,-0.663375318,1.441585183,1.352196932
267,4137593873,115.8481216,74.89448547,6.621287346,-9.307177544,2.884566545,-0.627589226,-0.530010045,1.280404449,1.350032449
268,4137610540,115.8984451,74.89341736,6.686576843,-9.30325222,2.957727909,-0.576203823,-0.504576504,1.245186806,1.473229408
269,4137627207,115.9573669,74.89929199,6.760121822,-9.313573837,2.96384263,-0.591768682,-0.467015564,1.17689085,1.036981463
270,4137643874,116.026062,74.90569305,6.841825485,-9.314511299,2.873099566,-0.585996628,-0.346328497,1.276460171,0.956109226
271,4137660541,116.0982895,74.90974426,6.929938793,-9.305972099,2.873991728,-0.577344894,-0.496649414,1.425807714,1.036545873
272,4137677208,116.1742249,74.91212463,7.026137829,-9.400008202,2.940700769,-0.622129619,-0.746424437,1.581507087,1.068843365
273,4137693875,116.2151794,74.91606903,7.082555294,-9.385209084,3.005487204,-0.619626224,-0.545211136,0.98106885,1.25338304
274,4137710542,116.2180176,74.92515564,7.088029385,-9.40128994,2.87239337,-0.719790936,0.125668705,0.132968336,1.330733418
275,4137727209,116.1253738,74.9276123,6.993941784,-9.348006248,2.792543411,-0.68270278,0.167724758,-1.088033795,2.371505022
276,4137743876,115.9743729,74.92087555,6.840822697,-9.378670692,2.808544159,-0.616416812,0.082613774,-1.677279711,3.264710188
277,4137760543,115.809967,74.90573883,6.679044724,-9.334899902,2.935159683,-0.586496711,-0.211298361,-1.579669476,3.781702042
278,4137777210,115.6744614,74.88832855,6.552057743,-9.267446518,2.930874348,-0.550297678,-0.49349916,-1.044428349,3.656251907
279,4137793877,115.5860519,74.86954498,6.485284805,-9.221421242,2.970389843,-0.551231086,-1.14883852,-0.163569123,3.323863029
280,4137810544,115.6074295,74.85076904,6.543891907,-9.228748322,3.026587248,-0.503061533,-1.824379802,1.606524706,2.473629951
281,4137827211,115.7317886,74.83642578,6.719516754,-9.251614571,3.045763016,-0.506875098,-2.416122675,3.146744251,1.436187267
282,4137843878,115.955307,74.83035278,7.003138065,-9.218583107,2.969097137,-0.557055891,-2.725966215,4.457749844,0.237468183
283,4137860545,116.2361221,74.82917786,7.354586601,-9.186501503,3.016972542,-0.538979113,-3.21165967,5.280148029,-0.510774851
284,4137877212,116.6298676,74.83314514,7.824204445,-9.185380936,3.060257673,-0.512509882,-3.277203083,6.78777647,-1.645507455
285,4137893879,117.1405487,74.84609985,8.409867287,-9.283353806,2.974843979,-0.620182455,-2.978763819,8.138347626,-2.996769428
286,4137910546,117.6881332,74.86521149,9.024129868,-9.307829857,2.893794775,-0.668961883,-2.422327995,8.312552452,-3.600960732
287,4137927213,118.2474976,74.88671875,9.641238213,-9.299567223,2.918857574,-0.675054729,-1.879889369,8.223062515,-3.816876173
288,4137943880,118.8285446,74.91027069,10.28176785,-9.280533791,2.870458603,-0.717107236,-1.93627584,8.41686058,-4.171598911
289,4137960547,119.4160538,74.93613434,10.91369724,-9.394306183,2.767490387,-0.804503798,-1.059091926,8.151244164,-4.308845043
290,4137977214,120.004158,74.96400452,11.53400326,-9.308883667,2.827591419,-0.784031212,-0.34844169,7.862551212,-4.386784554
291,4137993881,120.5816879,74.99198151,12.14091492,-9.327275276,2.841350317,-0.78544122,-0.20994091,7.598661423,-4.355574608
292,4138010548,121.1765976,75.02187347,12.75244617,-9.350547791,2.821943998,-0.868352354,0.566066325,7.521772385,-4.55636549
293,4138027215,121.7801285,75.05885315,13.3642683,-9.314904213,2.817057848,-0.816216469,1.063016772,7.217904091,-4.98559618
294,4138043882,122.4506531,75.09879303,14.0437355,-9.295795441,2.816761255,-0.811408758,1.153314471,7.912277222,-5.756192684
295,4138060549,123.2240295,75.14875031,14.81874752,-9.274375916,2.797765732,-0.770977199,1.775863647,8.699773788,-7.139363766
296,4138077216,124.168251,75.20122528,15.76125622,-9.252390862,2.808494806,-0.700011909,2.304933071,10.58818722,-8.793140411
297,4138093883,125.2972107,75.25817871,16.8764286,-9.22053051,2.984667301,-0.718457639,3.36041522,12.36741161,-10.67620945
298,4138110550,126.6937103,75.32106781,18.25496864,-9.232970238,2.902280807,-0.753679872,4.114724636,15.07623386,-13.54066658
299,4138127217,128.2746735,75.3829422,19.81046867,-9.390818596,2.743462801,-0.715314984,4.886886597,16.76924133,-15.45558262
300,4138143884,129.9437561,75.42450714,21.44760513,-9.402785301,2.580805779,-1.01455152,5.418415546,17.93497086,-15.69703674
301,4138160551,131.5637054,75.46167755,23.00034142,-9.510953903,2.455506325,-1.319302917,7.358491421,16.58513641,-15.12032604
302,4138177218,133.0104065,75.49150848,24.39838791,-9.440609932,2.399108648,-1.154484034,5.930257797,14.66233158,-13.62270451
303,4138193885,134.3466949,75.50247955,25.66100311,-9.643278122,2.349028111,-1.312729001,7.177007675,13.57075405,-11.71927834
304,4138210552,135.4965973,75.50634766,26.73097801,-9.621923447,2.272135735,-1.491538882,7.175058365,11.51560783,-9.656360626
305,4138227219,136.395813,75.51127625,27.55513191,-9.595209122,2.208626032,-1.525103688,6.416113377,8.695349693,-7.239786148
306,4138243886,137.079422,75.51885986,28.18475342,-9.51295948,2.205143452,-1.593939066,4.774861336,6.443246841,-5.337937832
307,4138260553,137.5418243,75.53452301,28.59961128,-9.446627617,2.221408367,-1.463969231,3.980585575,3.82899642,-3.350583315
308,4138277220,137.9139862,75.54658508,28.91604042,-9.423319817,2.364241838,-1.501711726,4.286746502,2.951146603,-2.1378088
309,4138293887,138.1811676,75.57038879,29.12482262,-9.38952446,2.293305159,-1.418027401,4.241451263,1.328582048,-1.417541385
310,4138310554,138.4344177,75.58657837,29.32836723,-9.336625099,2.257521629,-1.386132121,3.702962399,1.59348762,-1.063720942
311,4138327221,138.6947174,75.6026535,29.54524994,-9.377465248,2.206078291,-1.431482673,3.358337879,1.716627479,-1.209438324
312,4138343888,138.9534149,75.61843109,29.76795959,-9.307425499,2.167397738,-1.368828297,2.917478561,1.771476865,-1.266580105
313,4138360555,139.2600861,75.62473297,30.04936981,-9.233037949,2.128364086,-1.414440513,2.386656046,2.754249334,-1.562240601
314,4138377222,139.5697174,75.63141632,30.35378838,-9.191819191,2.22113204,-1.41334641,1.228999853,2.938878059,-1.849217772
315,4138393889,139.8897858,75.63532257,30.68592262,-9.321430206,2.203008652,-1.430445671,0.240458474,3.313201666,-2.069339991
316,4138410556,140.1881866,75.63754272,31.00592422,-9.376998901,2.332783699,-1.452486634,-0.352853358,3.249323368,-1.883020163
317,4138427223,140.4547729,75.64070129,31.29660034,-9.384449005,2.256670952,-1.453511834,-0.5524019,2.910864115,-1.594736457
318,4138443890,140.69133,75.63796997,31.55424118,-9.413145065,2.121945143,-1.461713433,-0.435908973,2.85549593,-1.004869461
319,4138460557,140.8652954,75.6333847,31.75564575,-9.393454552,2.102900267,-1.425441027,-0.922102034,2.400908709,-0.295922726
320,4138477224,140.8367462,75.62831116,31.60144424,-9.486185074,2.560626984,-1.301536322,7.601941109,-0.918747008,3.82804966
321,4138493891,140.6460266,75.62137604,31.16375923,-9.36647892,1.9691962,-1.519778967,14.34618378,-3.512573481,7.162610054
322,4138510558,140.4353638,75.60930634,30.80650711,-9.307727814,1.920057416,-1.520185471,8.479344368,-2.535780191,6.423091888
323,4138527225,140.2117157,75.58078766,30.53655624,-9.289658546,1.963969469,-1.589487076,2.626403093,-0.971572995,6.043854713
324,4138543892,139.8844147,75.5561676,30.17733765,-9.364977837,1.797715306,-1.614324093,1.58732152,-2.032604694,6.915352345
325,4138560559,139.2015533,75.53569794,29.32689667,-9.326313019,2.191878319,-1.222698927,8.79808712,-7.048808098,12.33913517
326,4138577226,138.2008667,75.51152039,28.14953041,-8.959618568,1.828794241,-1.53415072,8.714402199,-10.2845335,16.07306862
327,4138593893,137.1448975,75.46292114,26.92679214,-9.340276718,1.873633265,-1.635206223,8.02389431,-9.947532654,17.40462303
328,4138610560,136.0942078,75.41277313,25.86364174,-9.328371048,1.537006378,-1.969066739,-0.94183743,-8.559535027,15.57028008
329,4138627227,135.0529175,75.37471771,24.81448174,-9.33692646,1.981952906,-1.496374249,-1.203983665,-9.215464592,14.78599548
330,4138643894,134.2328339,75.29141998,24.02159309,-9.207353592,2.182030201,-1.228746772,-2.828047276,-4.795526505,13.86932564
331,4138660561,133.759201,75.1548996,23.52787781,-9.37981987,1.934728384,-1.238041759,0.575197577,0.518798351,12.99132061
332,4138677228,133.44664,74.97671509,23.25634575,-9.39404583,1.866904736,-1.178956985,-2.644967556,4.591566086,12.49182129
333,4138693895,133.1877899,74.7328949,23.08122826,-9.114210129,2.632250309,-1.224428892,-5.027246952,8.299868584,14.3849678
334,4138710562,132.8614044,74.44960022,22.92120934,-9.040309906,3.168101788,-1.383672953,-9.946008682,9.987571716,16.0270443
335,4138727229,132.5390778,74.16773224,22.83048439,-8.912714958,3.304111958,-1.632024646,-13.71355724,10.64139175,15.28727341
336,4138743896,132.241333,73.90026093,22.80383301,-9.065696716,3.32101059,-1.837777376,-15.95349693,10.75023556,14.00566673
337,4138760563,131.8738861,73.65210724,22.72481918,-9.055020332,2.897258759,-1.329897404,-17.12716293,9.244947433,13.79274654
338,4138777230,131.5341797,73.3922348,22.65957642,-9.616985321,2.500201702,-1.078997493,-16.26161766,9.797324181,14.22990417
339,4138793897,131.2054901,73.13535309,22.54350853,-9.742156982,2.975258589,-1.059249282,-12.67275524,8.937758446,14.75123692
340,4138810564,131.0570984,72.92580414,22.53554726,-9.432999611,3.28207016,-0.959043503,-8.06340313,8.417595863,11.41795921
341,4138827231,131.1132355,72.77803802,22.69177246,-9.531650543,3.128037214,-1.283035994,-5.196901798,8.162949562,6.723285198
342,4138843898,131.29422,72.70052338,22.89040756,-9.539473534,3.131443977,-1.398942113,-0.123510845,5.980206966,3.029252529
343,4138860565,131.6015472,72.7009201,23.17256355,-9.346264839,3.754537106,-1.510150671,2.677218914,4.009616852,-1.494417906
344,4138877232,132.1217041,72.7624588,23.68386078,-9.079498291,3.40558219,-1.535377502,2.310689211,4.573776245,-6.973771095
345,4138893899,132.7143097,72.84960175,24.25839424,-9.162205696,2.749360085,-1.642962694,3.023746729,4.253015995,-8.883338928
346,4138910566,133.2911224,72.9362793,24.80601501,-9.174510002,2.655907393,-1.445828438,3.596267939,3.776504278,-8.548426628
347,4138927233,133.8549652,73.01314545,25.36866188,-9.101202965,2.675263643,-1.458107114,1.947667122,4.236905098,-8.305527687
348,4138943900,134.4435883,73.0861969,25.97257805,-9.063930511,2.636508703,-1.526713014,1.054360032,4.783569813,-8.653720856
349,4138960567,135.1005554,73.15910339,26.63939285,-8.959331512,2.64666748,-1.548475504,1.531742573,5.423108101,-9.435382843
350,4138977234,135.8347626,73.23442078,27.3762722,-8.97947216,2.845230341,-1.396692157,2.126495838,6.000393391,-10.42949104
351,4138993901,136.7313538,73.31226349,28.27444267,-9.229496002,2.599172115,-1.454293728,2.585475922,7.602290154,-12.58948898
352,4139010568,137.8555756,73.39154816,29.35448265,-9.156819344,2.678387403,-1.394793034,5.768575668,9.355920792,-15.01873398
353,4139027235,139.2157593,73.47554016,30.62850761,-9.104184151,2.850487947,-1.118152261,8.742679596,10.92021179,-17.81902313
354,4139043902,140.8534851,73.53977966,32.185215,-9.219155312,2.737049341,-1.445263147,9.110486031,14.33956242,-20.9496727
355,4139060569,142.6534424,73.59332275,33.92374802,-9.177640915,2.780066013,-1.398341537,8.354184151,16.0112381,-23.31517601
356,4139077236,144.5463867,73.63405609,35.81005478,-9.425383568,2.420655251,-1.613168955,5.405308247,17.25045204,-25.29918671
357,4139093903,146.6095581,73.6545639,37.87057114,-9.537280083,2.57951808,-1.547212362,5.577124596,18.93976021,-27.56028175
358,4139110570,148.8550873,73.67431641,40.12765884,-9.531339645,2.32617569,-1.752920985,5.198289394,19.60774422,-30.98625946
359,4139127237,151.3568726,73.66246033,42.62989044,-9.568704605,2.414936543,-1.595588803,6.449667931,21.93963242,-34.3884201
360,4139143904,154.2064362,73.62695313,45.48386383,-9.682857513,2.221212864,-2.180372953,7.086911201,24.2327652,-40.04734039
361,4139160571,157.5169525,73.55581665,48.69502258,-9.385258675,2.386169195,-2.412921429,14.22614861,26.44396019,-46.05944443
362,4139177238,161.3355713,73.41472626,52.3269577,-9.264314651,2.51104641,-2.573615551,20.60181046,29.98204803,-53.15804291
363,4139193905,165.7776947,73.21317291,56.38744736,-9.574386597,2.836331606,-2.776302099,33.55265808,31.68723488,-61.80798721
364,4139210572,170.8027649,72.87000275,60.86491013,-10.00021839,2.989540339,-2.373056173,44.92914581,36.34577179,-70.6915741
365,4139227239,176.165863,72.3172226,65.62793732,-11.78430271,3.114775896,-2.107260466,49.44828033,42.93193817,-79.3267746
366,4139243906,-178.384552,71.60545349,70.44322205,-13.86374092,3.318867207,-1.027179599,52.64035034,44.71102905,-86.77125549
367,4139260573,-172.9584808,70.50908661,75.07806396,-14.58089638,4.138553619,-0.730021238,62.90704727,59.06568146,-93.14091492
368,4139277240,-167.7803497,68.99389648,79.43226624,-15.72781181,3.57283473,0.178196773,66.00538635,74.80488586,-102.5010376
369,4139293907,-162.6506042,67.00437164,83.65678406,-17.20961952,4.164493084,1.08281076,73.19028473,91.51167297,-120.4261017
370,4139310574,-158.2185822,64.5326767,87.2640686,-17.09947014,7.210626125,1.364945531,69.02202606,110.3723831,-131.5137024
371,4139327241,-154.5533905,61.79745483,90.04736328,-16.48359299,9.462694168,2.436392307,71.42011261,120.6344604,-132.9835815
372,4139343908,-151.0336304,58.81105804,92.85671234,-15.81185532,7.03788662,2.396307707,65.34026337,121.708168,-154.3644257
373,4139360575,-147.4402161,54.9631691,95.1556015,-13.59807205,3.194323063,-3.43132472,100.6307755,160.4506531,-181.0436249
374,4139377242,-144.0187378,50.55108261,96.29903412,-13.45669842,0.796234012,-7.787459373,151.3235626,196.105423,-181.5565338
375,4139393909,-142.6841736,47.69492722,96.44307709,-13.55774117,5.286653519,-6.46339798,74.18325043,134.7994385,-105.0722275
376,4139410576,-141.6368103,46.33736801,97.08130646,-8.642832756,7.850095749,0.610258579,35.52673721,49.02257156,-68.84236145
377,4139427243,-141.6482086,45.5760231,97.45760345,-7.042080879,3.897469997,2.013726711,-16.1867981,26.83176613,-38.93748093
378,4139443910,-141.9465027,45.69010544,97.14678192,-4.195366383,8.174415588,2.918781042,-3.805173159,3.481473207,16.20488739
379,4139460577,-142.5157776,45.96259689,96.56256104,-4.348165989,5.801935673,3.688387871,-8.221674919,2.850524902,31.02700806
380,4139477244,-143.6426392,46.84804153,95.68505096,-4.889162064,4.343546391,2.758092642,-28.6393795,-19.82061195,62.64253998
381,4139493911,-145.0173492,48.51494217,94.73260498,-5.134992599,4.58701849,1.556778312,-39.33100891,-57.94981003,91.28406525
382,4139510578,-146.6671906,50.82152939,93.69332123,-6.392798424,3.785290003,2.110356331,-50.5136528,-90.99235535,112.7902069
383,4139527245,-148.5740814,53.75252533,92.52774048,-6.773108959,2.729211092,2.732562065,-58.07989883,-124.7289124,131.9807129
384,4139543912,-150.9069824,57.02660751,90.88395691,-6.984009266,2.18788743,1.837043643,-57.72205353,-140.5575867,149.0319366
385,4139560579,-154.052948,60.62706757,88.41656494,-8.368297577,2.487988949,0.31361407,-60.91543961,-155.2686615,169.3984528
386,4139577246,-158.5973358,64.55614471,84.63327789,-9.915161133,3.024843693,-0.89599061,-69.83879089,-172.9975281,191.9184265
387,4139593913,-165.5549011,68.67993927,78.65466309,-11.51220131,2.620752573,-0.668566942,-86.71124268,-190.5197754,213.0240936
388,4139610580,-176.3875427,72.49213409,68.97216797,-12.19047928,2.483261347,-0.523863792,-100.309906,-194.0990906,227.8165283
389,4139627247,167.5101776,75.23410034,54.36044312,-13.68493748,3.019333363,-1.023791075,-122.0493469,-180.8463898,231.1767731
390,4139643914,146.7574005,76.52187347,35.5606842,-15.46437836,3.891992092,-2.287801027,-149.2467194,-176.1138,224.316803
391,4139660581,125.0439606,76.17529297,16.04657364,-16.81343269,3.207579613,-3.710472584,-163.0416107,-176.1195068,213.1887665
392,4139677248,106.4623184,74.4628067,-0.444075584,-17.30924988,2.684188128,-4.741273403,-155.8869934,-180.3991241,201.5495758
393,4139693915,92.61858368,71.85387421,-12.67011452,-17.20569801,2.337486029,-5.334259987,-126.8412552,-182.9461365,189.9798584
394,4139710582,82.56390381,68.60436249,-21.37758064,-16.8601284,2.315261841,-5.898159981,-110.1257401,-184.1558685,188.0977325
395,4139727249,75.57404327,65.08983612,-27.4123497,-16.1159935,1.437066317,-6.391038418,-85.16927338,-179.277359,181.0227509
396,4139743916,70.65823364,61.42926788,-31.66372299,-14.60411453,1.162692785,-6.318288803,-66.02151489,-173.2170715,177.9315338
397,4139760583,67.46038055,57.91379547,-34.4291687,-13.12875557,-0.025902737,-6.355724335,-47.7026825,-153.3149719,168.2415009
398,4139777250,65.55944061,54.87918091,-36.09707642,-12.08532333,-1.442926049,-7.128128052,-29.92044258,-123.0952835,146.1664734
399,4139793917,64.4910202,52.57088089,-37.04368973,-10.73870182,-3.086538792,-7.507646084,-17.64728737,-88.70779419,112.672142
400,4139810584,63.8008728,51.17632675,-37.52753448,-9.71240139,-4.517515182,-7.517942905,-17.99716187,-52.41442871,68.86368561
401,4139827251,63.39745331,50.76601028,-37.48603439,-8.714445114,-4.563236237,-7.564135075,-25.6312542,-9.362951279,24.19764519
402,4139843918,63.34867859,51.24570084,-36.93248749,-8.859230995,-4.537588596,-7.773396015,-28.28899002,31.74964714,-14.83487415
403,4139860585,63.66692734,52.37306213,-35.92805099,-9.628271103,-3.98357749,-7.770365715,-27.88158989,63.68039703,-42.31013107
404,4139877252,64.26834106,54.003582,-34.55385971,-10.16687679,-2.814950228,-7.485933781,-29.59117699,87.4787674,-64.5331955
405,4139893919,65.27194214,56.05247116,-32.83615112,-9.930660248,-2.616547823,-7.376539707,-23.97431183,105.9872437,-84.25457764
406,4139910586,67.7281723,57.9335556,-30.23178291,-12.78601551,3.095944405,-4.034818649,16.54664421,123.186615,-67.71592712
407,4139927253,68.85702515,58.41830063,-29.62454987,-12.73759747,13.20848656,3.668204784,36.95755768,28.73518944,-18.04767609
408,4139943920,68.19341278,58.79852295,-31.23417854,-6.869076252,18.34815407,23.18281174,42.76971817,-38.32402039,-37.77888489
409,4139960587,69.78010559,61.96417236,-25.80847549,-8.667749405,-5.785002708,0.611296475,-187.6004028,218.3855743,-117.6351471
410,4139977254,78.06577301,64.97799683,-19.66409683,-27.41920471,-10.30317783,-10.79924488,167.396698,208.3319397,-126.0677948
411,4139993921,79.43696594,65.29120636,-18.74477386,-14.72504616,2.081100702,-1.913590789,32.53909302,26.49668312,-11.92526913
412,4140010588,82.94863129,66.01667023,-15.9981575,-4.204603195,11.71165943,0.676842391,60.83493805,73.86817932,-30.58853149
413,4140027255,87.21628571,67.13335419,-11.85213089,-4.947311401,7.277283669,-1.663579345,27.99987984,104.3417511,-56.23875809
414,4140043922,91.13471222,68.1497879,-8.031147957,-9.577709198,3.768354893,-4.770161629,23.24098015,88.15982819,-57.69393158
415,4140060589,93.99539185,68.91616821,-5.12116766,-10.8640213,6.377328873,-3.223035336,9.271740913,61.86248398,-46.77098083
416,4140077256,96.27099609,69.73565674,-2.58632946,-11.82446289,2.189309835,-0.213883489,-5.666778088,49.16712952,-51.74494934
417,4140093923,99.13431549,70.29936981,0.389748394,-9.712629318,1.621895194,0.572274804,4.07488203,56.01451111,-39.65184021
418,4140110590,102.8348694,70.71495819,4.173828125,-9.732411385,3.644061804,-1.5882411,8.114039421,69.6885376,-36.84529495
419,4140127257,105.6203766,71.10179901,6.959445,-10.19446754,2.446162224,-0.400717735,9.274357796,47.35581589,-33.87023544
420,4140143924,108.5353317,71.42263031,9.647386551,-8.887108803,3.811727285,0.049784243,22.26137543,43.93713379,-31.5384407
421,4140160591,111.5459366,71.7004776,12.37163353,-9.624012947,3.001701832,-1.198328376,25.66715813,42.92240143,-31.29496765
422,4140177258,114.3607407,71.90129852,14.77682209,-9.382733345,2.986639977,-1.439741969,31.88267517,36.865345,-26.58604622
423,4140193925,117.120575,72.03443146,17.20485306,-8.927048683,3.433904409,-1.075328708,27.14962387,37.2089653,-24.68733978
424,4140210592,119.9168167,72.10548401,19.78313255,-9.060819626,3.628956795,-1.301153898,20.6623764,39.86489487,-24.3888073
425,4140227259,122.6028824,72.15008545,22.31515694,-8.94821167,3.539446115,-1.389724493,16.64118385,38.52009201,-24.38188744
426,4140243926,125.3575058,72.15616608,24.94777298,-9.268188477,2.956976891,-1.598541379,14.97562027,39.9880867,-25.26156044
427,4140260593,128.1302795,72.14681244,27.58093071,-9.308544159,3.059824944,-1.626144409,16.03995323,39.18470001,-26.41219521
428,4140277260,130.9245148,72.09690094,30.29328537,-9.419595718,2.871648312,-1.745322943,12.81900311,40.48660278,-27.37722015
429,4140293927,133.6822205,72.0164032,32.93166351,-9.539047241,2.686388493,-1.529882431,14.904562,39.36193466,-27.13723755
430,4140310594,136.6321259,71.85126495,35.70900345,-9.341057777,2.566285372,-1.46759069,18.60875511,43.50382996,-27.53837776
431,4140327261,139.7998047,71.61603546,38.70047379,-9.282032013,2.8366189,-1.948476553,19.653862,48.04405975,-30.42281342
432,4140343928,143.0787659,71.32473755,41.81113815,-9.240793228,3.695419073,-2.17277956,19.80857086,50.66909409,-33.35807037
433,4140360595,146.5394287,71.00332642,45.01287842,-9.803009987,3.581940174,-2.270414114,25.84943199,51.53217316,-37.44656372
434,4140377262,150.1669769,70.66143799,48.19246674,-10.59674644,3.401995659,-2.488137245,37.47854614,50.35506821,-40.43012619
435,4140393929,154.0562897,70.32629395,51.38640594,-11.40207195,3.069259167,-1.637223482,52.73440552,47.72655106,-45.0247345
436,4140410596,158.3336792,69.88622284,54.88733292,-11.14463425,3.326833725,-0.864772916,59.14300537,53.03165817,-52.60061264
437,4140427263,163.0923462,69.23545837,58.83255386,-11.58049488,3.199097395,-0.866007566,63.72912979,64.1717453,-62.98552704
438,4140443930,168.2442474,68.35598755,63.10999298,-11.90385056,3.18090868,-1.142709494,69.85775757,74.10584259,-74.72888184
439,4140460597,173.8508606,67.19923401,67.70457458,-12.24875546,3.156695604,-1.309520483,81.21490479,84.77108002,-90.02981567
440,4140477264,179.5478821,65.75098419,72.31894684,-12.43575859,4.077834606,-1.022747636,87.98200989,93.09230042,-103.1538086
441,4140493931,-174.8395996,63.92110443,76.7762146,-13.03162193,4.701207638,-1.264424324,94.69354248,105.0107956,-115.9600601
442,4140510598,-169.4137115,61.82711029,80.83376312,-14.2991209,6.251471996,-0.530288756,108.8872833,109.2420425,-124.9885025
443,4140527265,-164.16716,59.61648178,84.44670105,-16.56079483,8.316054344,1.500349402,125.7215881,104.9231262,-131.3500519
444,4140543932,-158.9904785,57.26452637,87.73451996,-18.51849365,9.963661194,2.814610243,142.5353241,101.3073502,-140.3840485
445,4140560599,-154.3466492,53.83166885,90.54611969,-16.77043343,10.60885143,-1.599269509,139.5408936,151.405304,-167.0357056
446,4140577266,-149.9606323,48.69350815,92.21980286,-20.06207848,10.51637936,-3.12890029,184.7637787,243.3645935,-197.4350281
447,4140593933,-145.5306854,44.23713684,93.36776733,-19.33789253,11.34583187,-0.220507622,215.85112,200.9637451,-180.7099609
448,4140610600,-141.9037323,40.71370316,94.08422089,-15.64547157,12.0808754,-2.46916151,188.691925,151.8499603,-148.5273743
449,4140627267,-139.3168182,38.17208481,94.43669891,-14.47162056,7.160743713,-3.513279438,141.941391,107.7012558,-107.2554398
450,4140643934,-137.3362122,37.96348953,95.1532135,-6.926886559,-0.766907096,-6.969846725,92.51776886,-12.94260979,-31.46914101
451,4140660601,-138.6274261,37.84375763,94.63918304,-10.11960411,9.602030754,2.871622801,-58.34050369,21.82602501,15.40254784
452,4140677268,-139.2073975,39.69998169,94.82572937,-3.951121092,8.999402046,5.078953266,-41.60465622,-89.4670105,68.74677277
453,4140693935,-140.2265778,40.96858978,94.52220917,-1.664950013,3.857645035,3.470493793,-49.14819336,-48.8690834,61.94574738
454,4140710602,-142.1404419,42.52637863,93.70568848,-2.707444668,2.300003052,1.189928174,-81.9849472,-49.69515991,89.21975708
455,4140727269,-144.9714661,44.86472702,92.38083649,-4.074418545,2.731208801,-0.786205351,-114.7041473,-78.51131439,131.7302856
456,4140743936,-148.1277161,48.06084824,90.8480072,-6.910335541,1.707208753,1.257539034,-122.4143982,-124.8754501,160.7266388
457,4140760603,-151.5914764,51.82930374,88.97834778,-7.880692482,1.040193796,1.987654448,-121.6525803,-159.090332,178.1100006
458,4140777270,-155.967804,55.95162582,86.17449188,-7.800667763,0.84561646,0.208874106,-126.247139,-177.8446808,200.3855591
459,4140793937,-161.4169617,60.25608063,82.10228729,-9.82191658,1.069432259,-0.641576052,-119.0149536,-193.4035034,216.2447815
460,4140810604,-168.6487427,64.70201111,76.15196228,-11.19720554,1.729706407,-0.870710254,-116.6590042,-214.6470337,230.3122864
461,4140827271,-178.8085175,68.84793854,67.2743988,-11.33582497,1.888370395,-1.419158459,-119.2439575,-223.5139923,237.9153748
462,4140843938,166.7170258,72.07898712,54.298172,-12.67682838,2.353230476,-2.293227673,-133.6788177,-218.8742676,240.3120728
463,4140860605,148.079483,74.12861633,37.23469162,-15.39043331,3.951607704,-3.760371208,-137.5194092,-226.2150574,229.1587067
464,4140877272,125.9267273,74.46098328,16.73163033,-17.23775291,3.687932014,-4.163786411,-143.5877838,-240.2804871,231.0765381
465,4140893939,105.3248978,72.63195801,-2.24469924,-17.51046562,3.314950228,-5.342211246,-142.8672638,-242.6975555,238.6190033
466,4140910606,90.10513306,69.19163513,-15.99493694,-19.12300873,3.680845261,-6.14256525,-132.4867401,-239.2819672,241.3615875
467,4140927273,79.90861511,64.89087677,-25.1112709,-20.36184692,3.442419529,-7.850342751,-107.3102798,-234.8140411,239.8063812
468,4140943940,73.37641144,60.25632477,-31.12692451,-19.286026,2.275555134,-9.67634964,-71.0847702,-225.8791504,233.8681641
469,4140960607,69.69615936,55.55792236,-34.79029465,-17.45101929,-0.210288703,-11.66997147,-34.27018738,-200.0518036,232.3412018
470,4140977274,67.96691895,51.28704453,-36.86930847,-15.83246708,-4.048498631,-12.72390556,-3.442363501,-161.872467,214.1598969
471,4140993941,67.34190369,48.60801697,-37.71922302,-13.8447361,-9.117016792,-13.3786068,1.535239458,-91.45910645,138.3070831
472,4141010608,67.29520416,48.23753357,-37.41315079,-10.39431763,-14.66927147,-18.88005638,-16.57612991,2.675922155,27.35222054
473,4141027275,67.8551178,49.68689728,-36.08280563,-10.32506084,-15.57643032,-20.39806747,-26.71253395,81.64083862,-58.20513153
474,4141043942,68.55254364,51.79454041,-34.19517136,-11.40014935,-9.99777317,-14.54136753,-45.98120117,113.5180664,-88.58257294
475,4141060609,70.20650482,54.33282089,-31.58393478,-11.79407406,-5.079955578,-11.34268188,-26.1756649,141.7593842,-107.1224136
476,4141077276,71.83480835,55.92798996,-29.53266335,-16.94686127,7.114737988,-0.947276533,-3.486538649,97.68716431,-65.37045288
477,4141093943,69.4490509,55.34848022,-33.08711243,-13.57372475,26.03666306,21.08490562,32.74208832,-125.0577316,-4.865687847
478,4141110610,70.40210724,58.62044907,-29.6651001,1.499960899,1.147443771,23.67663765,-115.1572495,172.4458923,-143.7067566
479,4141127277,78.91884613,63.60621262,-20.89477921,-26.76374435,-16.88253593,-24.52509308,49.49871445,323.9509888,-218.2930298
480,4141143944,85.78755951,65.0225296,-15.17628288,-23.86848068,2.133405685,-1.808177471,102.7312317,158.6187286,-62.11977386
481,4141160611,89.2870636,66.01704407,-12.54419231,-8.804599762,5.835730076,-2.125749588,66.11964417,67.92114258,-54.5596962
482,4141177278,93.73766327,67.0745163,-8.166806221,-2.976618767,6.562478065,-4.786437035,25.92661095,102.7961121,-63.91542816
483,4141193945,99.23368073,68.00891113,-3.056738615,-11.2750473,7.927006721,-7.932709217,46.23154449,110.0023651,-66.66215515
484,4141210612,101.0725479,69.1195755,-1.164660454,-13.25073814,2.052188158,-3.057082415,4.482571125,29.08353996,-70.69387054
485,4141227279,103.0558929,69.7827301,0.634822309,-9.205979347,2.433302641,-0.256205738,17.73389053,28.73130035,-44.61641312
486,4141243946,106.17379,70.31718445,3.620269299,-11.13999748,2.104871273,0.251196861,18.52783012,51.03090668,-44.23518372
487,4141260613,109.1044464,70.66101074,6.35981226,-9.416523933,1.706897497,-1.160904765,20.75185966,46.04788208,-34.08091736
488,4141277280,111.8126831,70.80654907,8.835566521,-9.629936218,2.682223797,-2.047379971,22.12123108,42.85223007,-23.10169029
489,4141293947,114.0302124,70.93811035,10.61555195,-8.861488342,3.992774487,-1.699110866,31.99933815,29.14096069,-18.69542503
490,4141310614,116.2542191,71.08795929,12.33588123,-8.716976166,3.898647308,-1.623013496,35.69039536,26.56329536,-20.20681953
491,4141327281,118.3540497,71.2297821,13.96134758,-9.084300041,3.870704412,-1.778831363,33.54608154,24.06862259,-19.80711746
492,4141343948,120.3489761,71.38451385,15.56923389,-8.765880585,3.268467903,-1.286198854,28.17015648,22.38450813,-21.04969978
493,4141360615,122.5649338,71.48068237,17.47644997,-8.823951721,3.20714283,-1.297462821,24.34231377,28.05367279,-21.74019432
494,4141377282,124.8759232,71.54917908,19.5244751,-8.667443275,3.419445753,-1.229686379,21.98560524,30.10738564,-22.85159492
495,4141393949,127.4271774,71.5840683,21.83419228,-8.937234879,3.563488245,-1.522547483,21.46557426,34.12783813,-25.35057068
496,4141410616,130.0137329,71.62944031,24.21279526,-9.230615616,3.803432703,-1.585650563,19.64373779,33.41595459,-28.09664536
497,4141427283,132.8370819,71.64981842,26.88176918,-9.20853138,3.359281301,-1.709876537,17.29084969,36.99363327,-32.10127258
498,4141443950,135.8996277,71.61548615,29.79706573,-9.137629509,3.147146463,-1.779650688,17.6250248,40.82130432,-34.87966537
499,4141460617,138.9872131,71.52875519,32.77311325,-9.472755432,3.23009181,-2.074247599,15.73183441,41.98579788,-35.87021255
500,4141477284,142.2868042,71.39928436,35.91485977,-9.567427635,3.185453892,-2.325736523,19.13083267,43.99037933,-39.2179184
501,4141493951,145.9846802,71.20674896,39.32449341,-9.715093613,2.72737813,-1.996576428,27.97394371,47.75664139,-44.19186401
502,4141510618,150.1951141,70.86411285,43.17321396,-9.94901371,2.83972168,-1.68872571,34.1248436,57.08354568,-50.65355301
503,4141527285,154.7402802,70.42758942,47.34895325,-11.37878227,3.217127562,-1.467455506,36.21278381,61.56552124,-59.33362198
504,4141543952,159.5671692,69.90882874,51.66592026,-11.74187469,3.195753574,-1.202412128,45.84571075,62.75945282,-66.70742035
505,4141560619,164.6511993,69.20684814,56.10454559,-12.65747261,3.249452353,-1.630793691,55.38812637,68.60739899,-73.38713074
506,4141577286,170.0360718,68.37483978,60.69974136,-12.80338955,3.450986862,-1.066573381,65.95433044,70.50200653,-84.18990326
507,4141593953,175.6635437,67.26603699,65.51713562,-12.7125473,4.065218449,-0.69967556,69.8769989,79.52243042,-97.78970337
508,4141610620,-178.6301727,65.7687149,70.32880402,-13.0549984,4.365417957,-0.817414165,77.48859406,92.70388794,-110.4638901
509,4141627287,-172.8537598,63.9597435,75.04108429,-13.35468674,4.748460293,-0.401388943,90.50750732,99.23178101,-125.6119614
510,4141643954,-167.3136902,61.86502838,79.34375763,-13.98736286,6.638905525,0.875773847,102.4527359,103.4836197,-135.2255402
511,4141660621,-162.1111603,59.64078903,83.20507813,-14.7583847,7.830730915,2.016687393,109.9245987,98.83505249,-142.1573334
512,4141677288,-157.0736694,57.18183136,86.75047302,-16.82039833,9.357223511,2.840738773,120.9545135,99.38579559,-153.6718597
513,4141693955,-152.7596893,53.42194366,89.58670044,-16.37383461,10.34820843,-2.295945168,118.80867,163.2277679,-181.1723633
514,4141710622,-148.7729492,47.80767822,91.05644989,-20.83282852,12.25206375,-4.858409882,170.8728485,266.6714172,-211.1597748
515,4141727289,-144.6061401,42.84910583,92.24713135,-22.16757584,14.4105196,-0.12394309,199.0850983,221.1280212,-203.1874237
516,4141743956,-141.3035889,39.12148666,93.20381165,-17.12732315,13.2021389,-3.283302546,160.4811096,152.4950714,-167.1514587
517,4141760623,-138.9862518,36.47961044,94.07898712,-15.04260159,6.869545937,-5.809492588,106.9194031,95.21227264,-131.2254639
518,4141777290,-137.1109161,36.40163422,95.33475494,-7.757400036,1.252190113,-4.163146973,67.84886932,-36.91867828,-46.01219177
519,4141793957,-137.9110565,37.46601868,95.35192108,-12.3713789,11.75084972,6.018326759,-48.53100586,-47.52421951,44.72370529
520,4141810624,-138.2038269,39.38829422,95.80324554,-0.0105104,7.333754063,3.512954473,-34.280056,-99.81965637,63.51067734
521,4141827291,-139.3023376,40.81522751,95.44799805,-2.89138031,4.596579075,3.194778442,-52.05921173,-53.48141479,70.90444183
522,4141843958,-141.2790985,42.88152695,94.74234009,-3.354948521,3.504763603,0.859861016,-90.21291351,-75.08078003,105.6780548
523,4141860625,-144.1217194,45.83833694,93.70184326,-3.963709116,3.014955044,-0.556664407,-126.7144089,-113.9264069,145.2336121
524,4141877292,-147.6498871,49.54449463,92.17053223,-5.761902332,2.011501074,0.324684501,-143.5193634,-149.2855835,178.1184082
525,4141893959,-151.7198944,53.74285889,89.94741821,-7.090487003,1.098417997,0.976964593,-139.3054047,-175.5221558,200.8063354
526,4141910626,-156.6554871,58.12683487,86.61084747,-7.876245022,0.203603551,-0.542002082,-129.9217377,-187.7691956,217.6575623
527,4141927293,-163.4799042,62.76052475,81.34375763,-10.29255772,1.16060853,-1.018668175,-134.034317,-207.884613,243.4369354
528,4141943960,-173.1544647,67.41233063,73.0704422,-11.91148758,1.251642227,-1.83176589,-129.4958191,-230.2619629,263.2457275
529,4141960627,172.6705933,71.30921173,60.26564026,-13.33817291,2.107054472,-2.130320072,-130.4159698,-233.4955139,271.5718384
530,4141977294,153.5212097,73.78501892,42.7359581,-15.12619019,3.229683876,-3.460526943,-144.375946,-231.8847351,260.2395935
531,4141993961,131.9084167,74.57339478,22.62554169,-17.80282402,3.529968262,-5.709607124,-134.6194,-235.3870697,234.4291229
532,4142010628,110.5634918,73.38228607,2.770260572,-19.35428238,2.415705919,-6.832109451,-134.4268494,-243.3332825,232.0866547
533,4142027295,93.69002533,70.42153931,-12.73939133,-18.60549164,2.726415873,-7.624155998,-126.8020401,-244.8946075,234.8375854
534,4142043962,82.6100769,66.56748962,-22.40616608,-18.90765381,3.196925163,-9.060023308,-124.4655685,-219.7916565,225.599884
535,4142060629,75.37561035,62.40758133,-28.55670547,-18.85233879,1.517548203,-11.17978859,-100.5926437,-203.5933685,216.445282
536,4142077296,70.90866089,58.12679672,-32.65277481,-17.40333176,-1.734981656,-11.17249107,-54.31921768,-191.1264496,212.4247742
537,4142093963,68.552742,54.03398895,-34.99971771,-15.38532734,-3.903288126,-11.89420891,-24.43572044,-158.7666168,205.2242889
538,4142110630,67.37876892,50.89461517,-36.27193069,-13.92612362,-5.474103451,-11.53339291,-9.869935036,-113.8003464,159.2773743
539,4142127297,66.67192078,49.3197403,-36.71738434,-11.46224403,-8.830299377,-13.09022427,-21.96586227,-52.65167999,82.47246552
540,4142143964,66.54710388,49.4046669,-36.26229858,-10.04903412,-12.99272442,-16.05769157,-28.27911758,18.34788704,4.565149307
541,4142160631,67.14553833,50.68741989,-35.06093979,-10.76369476,-12.92229652,-15.99886513,-19.46101952,72.83647919,-50.35519409
542,4142177298,68.19184113,52.74671173,-33.33465195,-10.89603138,-9.035169601,-14.6056776,-18.67311668,106.3167953,-87.66986084
543,4142193965,69.88529968,55.14084244,-30.92398643,-12.13294506,-2.718582869,-10.66044044,-15.51974773,130.8952026,-101.4201965
544,4142210632,71.06567383,56.30296707,-29.49163437,-15.46706963,8.390589714,0.141008005,-0.409755707,68.95252991,-47.28684235
545,4142227299,69.90353394,55.78345871,-33.05914307,-10.46069241,29.07396698,20.42778397,107.6243744,-123.0686722,-8.322178841
546,4142243966,70.98709106,59.41755295,-28.86015129,-4.372581959,-2.060617447,20.57633591,-147.9378357,200.1738129,-157.9456329
547,4142260633,78.17306519,63.80313492,-22.35730553,-30.9065876,-18.21196365,-21.01799011,87.40023041,248.6672974,-201.7596588
548,4142277300,83.26311493,64.89733887,-18.61307526,-16.23638916,2.513219595,1.146681428,102.6788254,106.5531006,-46.83852005
549,4142293967,88.25126648,66.0535965,-14.66913795,-7.762017727,11.23856831,-4.887253761,83.80942535,103.0682755,-59.64625931
550,4142310634,92.89928436,67.49375153,-10.27961349,-4.440601826,8.949485779,-5.99124527,36.64777374,102.9687881,-85.16188049
551,4142327301,97.90608978,68.73906708,-5.442955494,-9.609461784,6.357552528,-6.873034,30.89477921,100.6239471,-82.28995514
552,4142343968,100.2876434,69.95116425,-2.870277166,-13.14338875,2.240639448,-3.231557131,-1.744523048,42.25323105,-78.19559479
553,4142360635,102.4804153,70.75775909,-0.503095031,-10.49784184,-0.12273486,0.83460784,-2.400485039,37.24804306,-54.65349197
554,4142377302,106.2624817,71.28016663,3.286800861,-10.51710796,3.006340027,0.186063051,11.70063114,63.84424973,-46.49548721
555,4142393969,109.5818939,71.68230438,6.634055138,-9.972315788,1.425925136,-1.011645555,8.550654411,53.24705124,-40.36886215
556,4142410636,112.8162308,71.87255859,9.681771278,-9.19011116,2.517298698,-1.965557575,20.19411659,49.16487503,-29.108881
557,4142427303,115.7004395,72.03207397,12.1920948,-9.376613617,3.131163359,-2.160329103,29.6749115,38.58977509,-25.69273949
558,4142443970,118.444603,72.14441681,14.45415878,-9.178668976,3.393959999,-1.752543569,35.33711624,34.0815239,-22.7973175
559,4142460637,121.0161057,72.2215271,16.6139431,-8.879499435,3.474293947,-0.955651462,30.7519474,32.11589813,-21.48135567
560,4142477304,123.7857361,72.24892426,19.04865074,-8.830221176,3.70244956,-1.09087956,26.89457893,36.72920227,-23.07700348
561,4142493971,126.7080688,72.25136566,21.70512962,-8.908577919,3.467087507,-1.64419961,23.38194656,39.57494354,-25.96759415
562,4142510638,129.8102722,72.2173996,24.53129578,-8.957621574,3.387042046,-1.783538342,24.48955917,41.86714935,-28.24459457
563,4142527305,133.0737457,72.16925812,27.4833374,-8.788038254,3.699082375,-1.522595167,27.01331902,42.49142075,-31.49336433
564,4142543972,136.7040863,72.07538605,30.84539032,-8.816665649,3.685801983,-1.700954676,25.68940735,47.8179512,-37.5230217
565,4142560639,140.5765076,71.92059326,34.51810837,-9.156954765,3.745719433,-2.2079072,22.61294746,51.94195557,-42.79415894
566,4142577306,144.5686035,71.74127197,38.34013748,-9.620668411,3.072592497,-1.960807323,21.48602486,51.97159958,-48.06006622
567,4142593973,148.8612823,71.45626831,42.3874321,-10.06128216,2.955367327,-2.412037611,27.00191116,56.32580948,-52.5087738
568,4142610640,153.3660889,71.03270721,46.58032227,-10.83138275,2.969377518,-2.310231447,31.94355583,61.27795792,-56.36161804
569,4142627307,158.0563354,70.58109283,50.77583694,-11.64674282,2.298750639,-1.859268785,43.53207016,58.69377136,-62.10467911
570,4142643974,163.0558014,69.95041656,55.15121841,-11.96735096,2.848481894,-1.172858119,52.72767258,65.13529968,-68.80439758
571,4142660641,168.2914581,69.11760712,59.7399826,-12.7267952,3.418004036,-1.375038862,56.05622101,72.16892242,-78.7237854
572,4142677308,173.7870483,68.08853149,64.45735931,-12.83840656,3.874675751,-1.252816558,66.07844543,76.99918365,-90.19006348
573,4142693975,179.5838013,66.78199768,69.30206299,-12.97728825,4.49008894,-0.926753044,79.23418427,84.62385559,-104.6291046
574,4142710642,-174.4603424,65.14128876,74.14987946,-13.11267376,4.702146053,-0.778849483,91.58299255,92.95026398,-120.5568695
575,4142727309,-168.4807739,63.14048386,78.85900879,-13.59932613,5.570259571,-0.170992494,104.3776703,100.3422241,-137.465332
576,4142743976,-162.825882,60.85665894,82.97903442,-14.69683933,8.268121719,0.791803539,120.8903046,103.9200439,-144.1921234
577,4142760643,-157.4323578,58.37212753,86.64489746,-17.00226402,10.30539513,2.532734394,133.7520447,102.3235397,-153.1014862
578,4142777310,-152.2044678,55.15037155,90.16438293,-18.02405167,10.52384758,0.627638102,136.9154358,125.6349792,-184.7924652
579,4142793977,-147.7503052,50.01054382,92.44185638,-20.62213326,9.728726387,-3.869228601,158.5228729,225.4631042,-224.0137024
580,4142810644,-143.3774414,45.25876617,93.71260834,-22.22956085,11.77028179,0.314131498,205.9259949,206.162796,-201.4256897
581,4142827311,-139.7064209,41.55317688,94.61334229,-17.09140205,14.15205193,-0.872401297,183.1087036,149.7803192,-166.8443146
582,4142843978,-137.2551575,37.84339523,94.97219849,-14.04518795,10.48279572,-5.959625721,133.3584137,155.795517,-157.7592316
583,4142860645,-134.9585571,37.22225189,96.10263824,-9.47095108,1.919858217,-5.482396603,96.56439209,-10.31027985,-62.40864182
584,4142877312,-136.5852051,37.44145203,95.81674194,-14.71839619,11.55437565,1.921180367,-87.0654068,0.2448515,21.16533279
585,4142893979,-136.6096344,40.56616592,97.06222534,-2.079037189,9.526128769,6.231086731,-48.39997864,-175.9823456,88.795784
586,4142910646,-137.4436493,41.98895264,96.83498383,-0.652481437,4.269388199,4.153808594,-40.90499878,-55.31963348,67.88331604
587,4142927313,-139.132309,43.93888855,95.99765778,-3.683751106,5.328579903,1.734033585,-66.92656708,-62.71826553,107.4860916
588,4142943980,-141.5792084,46.97195053,94.84003448,-5.426162243,4.635820866,-0.22875537,-97.11930084,-108.8913345,155.8190918
589,4142960647,-144.2913818,50.8669014,93.34382629,-6.799733162,3.152313709,1.419259191,-94.82210541,-150.7671051,190.1152954
590,4142977314,-147.8458862,55.2671814,91.14466095,-6.891056061,2.52208662,1.382603407,-107.4792099,-174.6250916,215.3415985
591,4142993981,-152.6057892,59.71175385,87.69651794,-8.387970924,2.19683075,0.244939208,-110.70504,-176.025116,231.0994568
592,4143010648,-159.3633423,64.29642487,82.33796692,-10.38524342,2.251819134,-1.698230267,-121.0116806,-189.4914703,251.8744507
593,4143027315,-169.0565796,68.94688416,73.82670593,-12.27720356,1.765566349,-1.645332456,-112.0129013,-212.596817,272.7962341
594,4143043982,175.6266022,72.95900726,59.82793808,-12.95751572,2.60721755,-1.522777677,-123.8096771,-222.8610535,288.9675293
595,4143060649,154.0039825,75.24827576,39.6776619,-14.92250061,3.127472639,-2.220207453,-133.1435242,-216.8483734,284.7933044
596,4143077316,130.3636169,75.42405701,17.45469666,-18.00152588,4.397150993,-3.892532349,-127.1049423,-213.9003296,260.8787842
597,4143093983,109.4610901,73.44239044,-1.995598555,-19.6649456,2.414754629,-6.257777214,-128.6940308,-211.795166,259.2269897
598,4143110650,94.33483887,69.89550018,-15.69660664,-20.08045197,2.112339735,-8.356548309,-126.1974716,-208.9227295,262.1119995
599,4143127317,83.83805084,65.59874725,-24.91049576,-20.45282936,2.14331007,-9.292198181,-117.3674164,-213.3064575,255.7472534
600,4143143984,76.89956665,61.10913467,-30.89103699,-18.65613174,0.747148514,-10.75992775,-95.10910034,-203.6716614,240.4155579
601,4143160651,72.83518982,56.76310349,-34.32561493,-16.72497368,-1.673682809,-11.94279099,-67.0717926,-170.7356567,225.9509583
602,4143177318,70.68230438,52.96572876,-35.88487244,-15.48952484,-5.651724339,-13.18216324,-52.59134674,-122.464447,201.6305389
603,4143193985,69.61482239,50.53913498,-36.27390671,-14.65970421,-10.11229897,-14.6357336,-45.70025635,-63.05768585,134.1639557
604,4143210652,69.00701141,49.87419891,-36.01430511,-12.03136253,-13.7498703,-16.42093086,-48.49377441,-4.76636982,43.00651169
605,4143227319,69.29021454,50.85231781,-34.95687103,-11.41599846,-17.4741497,-18.73891258,-31.97237968,58.72635651,-38.24337387
606,4143243986,69.881073,52.66148758,-33.35881042,-12.04283047,-13.53113651,-15.20466042,-39.98959351,93.49557495,-78.8059082
607,4143260653,71.2845459,54.97012711,-31.16635132,-12.04493713,-6.565780163,-12.25317192,-22.17958832,119.3200302,-102.5565796
608,4143277320,73.29740906,56.75824738,-29.23052216,-15.66798496,1.218313336,-6.46813345,24.42301941,94.73350525,-80.11600494
609,4143293987,71.86168671,56.67720413,-32.22284317,-18.88930893,27.06456566,20.03133202,63.70915604,-95.4196167,-22.59540367
610,4143310654,72.77140808,60.10786438,-29.6807518,-1.628206015,4.650321484,24.04107094,-75.54021454,138.6965179,-169.5485535
611,4143327321,82.47005463,64.81179047,-19.53788757,-27.23227882,-18.40490532,-27.11352348,41.38864136,334.9197388,-212.1692657
612,4143343988,87.25060272,66.18093109,-15.45014954,-21.34401703,4.978427887,-0.039487004,63.46656418,108.6324768,-70.41917419
613,4143360655,91.13717651,67.50990295,-12.49889755,-2.03440094,7.244885445,-3.312262058,70.16426849,70.73512268,-76.48587036
614,4143377322,97.38755798,68.81315613,-6.147672653,-5.871461391,8.097474098,-8.145568848,21.01387024,135.4947052,-86.16772461
615,4143393989,102.2003555,70.10908508,-1.506950259,-13.6242857,4.847782612,-6.678657055,27.77608871,83.01547241,-90.96025848
616,4143410656,103.9905472,71.20849609,0.443235964,-11.54935837,-0.914060056,-2.165198326,-3.230906487,22.78569412,-70.80686951
617,4143427323,107.4340897,71.8443985,3.786088705,-10.71975899,2.831539392,0.22074452,16.14983749,50.82434082,-51.70731354
618,4143443990,110.7304153,72.43586731,6.841962337,-11.13920212,0.585377753,0.430502892,23.03855133,41.51648712,-49.69969559
619,4143460657,114.2518082,72.66708374,10.14355755,-9.064403534,2.354508162,-1.094769359,22.095644,49.54652786,-33.32016373
620,4143477324,117.4080963,72.79159546,12.93635273,-9.571328163,2.204466581,-2.274864435,29.16826248,41.49644852,-26.18658447
621,4143493991,120.3441772,72.8418808,15.30952072,-9.151133537,3.633423328,-2.12790513,39.92977524,35.35260391,-20.74835014
622,4143510658,123.2154083,72.89512634,17.62343788,-8.852293968,4.102211475,-2.027453184,39.40324783,33.05378342,-22.05266571
623,4143527325,126.0434113,72.95553589,20.00510788,-8.793066978,4.101029396,-1.845535398,32.88684082,32.43942261,-24.62298775
624,4143543992,128.8320618,73.01231384,22.47386742,-8.89960289,3.349625587,-1.507338166,25.49023056,32.31894302,-26.85858345
625,4143560659,131.7814026,73.02632141,25.13464737,-9.076677322,2.977996349,-1.596330047,24.08959198,34.98316956,-28.60528755
626,4143577326,134.94104,72.9817276,28.0574646,-9.021383286,3.506317377,-1.590852141,21.69410324,39.07406616,-31.05518723
627,4143593993,138.3220215,72.91156769,31.29083443,-9.170186043,3.308608055,-1.93473506,17.21232414,42.09457779,-36.27515411
628,4143610660,141.9536743,72.80296326,34.74202728,-9.153316498,2.996607542,-2.121912241,19.85300255,44.08525848,-40.48383713
629,4143627327,145.7666168,72.64633942,38.35215378,-9.526807785,2.94481945,-2.013223886,21.7690506,45.4884491,-44.21643066
630,4143643994,149.8025208,72.37384796,42.1802597,-9.860865593,3.008257389,-2.133553982,22.92558861,50.5890274,-47.49931335
631,4143660661,154.0047302,71.96855164,46.12801743,-10.70598507,2.588935614,-2.558569193,26.47900963,55.55538177,-50.34178162
632,4143677328,158.4670868,71.53526306,50.13275146,-12.1828804,2.803480148,-1.081456661,39.38710403,54.06163788,-56.20107269
633,4143693995,163.3005981,70.93413544,54.3804245,-11.88266754,2.765444756,-0.747896016,48.55008316,60.87018967,-63.46977234
634,4143710662,168.4195251,70.13218689,58.81513596,-12.96512032,3.348285913,-0.698696673,56.11625671,68.25353241,-72.0472641
635,4143727329,173.9459686,69.07937622,63.43986893,-12.87343121,3.940550566,-0.811907172,71.35427094,77.16734314,-83.67958069
636,4143743996,179.7964478,67.72780609,68.31044006,-13.14950943,4.135859013,-1.079204082,79.16681671,86.74629211,-100.7768173
637,4143760663,-174.1719055,66.07358551,73.24842072,-13.49538517,4.663393021,-0.607489824,89.23019409,93.32650757,-118.7593002
638,4143777330,-168.3097687,64.1023407,78.04586792,-13.5996809,5.701287746,0.085315138,90.51164246,98.32393646,-135.6335907
639,4143793997,-162.8677673,61.87005234,82.29454041,-14.35665798,8.356589317,1.270757914,99.2936554,100.8220901,-143.2590027
640,4143810664,-157.8260803,59.46194839,85.99437714,-15.31332493,10.35214806,2.099667311,108.872879,99.43793488,-148.8039856
641,4143827331,-152.8544769,56.55916214,89.42165375,-17.42723656,11.97786999,1.177144289,123.7887115,112.7904587,-169.4645386
642,4143843998,-148.4713898,51.69968414,92.05899048,-19.4561348,12.79592705,-4.244552135,134.582489,208.7269287,-221.4921417
643,4143860665,-144.0695801,46.26118851,93.5797348,-23.63495064,14.84239864,-1.475027561,195.0995941,238.1888123,-228.8351288
644,4143877332,-139.5751343,41.80682373,94.69804382,-20.59144974,14.33451462,1.257542849,222.9486389,180.3768463,-200.9699249
645,4143893999,-136.1802368,38.20789337,95.35916901,-16.37708282,12.4726162,-2.144080639,178.2316742,139.9245148,-165.1910706
646,4143910666,-132.8019257,36.74846649,96.17197418,-9.254569054,2.758410454,-8.705287933,173.1445618,33.9242897,-87.39949799
647,4143927333,-135.2481079,35.70893478,95.17028809,-11.60094547,12.41086006,-3.357242346,-111.1077347,78.36792755,-8.96665287
648,4143944000,-135.4193726,39.6852684,96.71671295,-11.87702179,15.64271736,11.61557198,-66.86253357,-221.1134644,117.6675262
649,4143960667,-136.2872925,42.03343201,96.95074463,3.236916065,2.677037001,3.195340157,-61.05850601,-108.2857666,92.7028656
650,4143977334,-137.7256622,44.16523361,95.8302002,-2.550552845,5.693386555,3.070391178,-40.1648407,-59.88740158,125.311554
651,4143994001,-140.7703705,47.36772537,93.92755127,-5.482491493,6.282082558,1.815797687,-100.6119766,-93.36682892,187.9493103
652,4144010668,-144.4954681,51.48055267,91.76478577,-7.67506218,3.54174757,0.564002514,-124.6009598,-144.6920013,219.0322418
653,4144027335,-148.8307495,56.24517441,89.06492615,-8.395874977,2.165112019,0.98682785,-128.8542328,-186.1149445,239.087326
654,4144044002,-154.4467163,61.33629608,84.91371918,-9.521297455,1.592141986,1.068305135,-123.3565521,-207.1872253,260.7877197
655,4144060669,-162.91008,66.38793945,77.94632721,-10.02450371,2.508784056,-0.288335592,-131.6591187,-214.7946472,283.7258301
656,4144077336,-176.3887329,70.82579803,66.15769196,-12.62006283,3.087708473,-2.072452784,-148.879364,-214.2223358,303.2637939
657,4144094003,163.1794128,73.96770477,47.68182373,-15.12983131,3.170469522,-3.152019978,-167.6292877,-223.2586212,312.4945374
658,4144110670,138.3131409,75.08781433,24.44159698,-17.7274189,3.692784071,-2.413212538,-146.2870636,-238.0543365,292.441803
659,4144127337,114.1472397,73.71173096,2.021545172,-20.07591248,3.026923418,-4.489508629,-152.4534454,-242.2228546,280.0489197
660,4144144004,96.27707672,70.23537445,-14.37178898,-20.99753761,1.775884867,-7.855687141,-135.5547791,-238.6452026,281.0039368
661,4144160671,84.97755432,65.69966888,-24.4151516,-21.4227581,1.904171586,-9.681974411,-118.4934692,-222.8720245,275.6827087
662,4144177338,77.70973969,61.09452057,-30.48575401,-20.50055122,0.645643413,-12.05919266,-109.7823181,-202.8097839,250.3297119
663,4144194005,73.18293762,56.90125275,-33.94940567,-18.23022842,-1.946860433,-14.50317478,-93.22150421,-166.8195953,218.6034241
664,4144210672,70.48099518,53.49385071,-35.48316193,-16.64446259,-6.859273911,-15.86240864,-86.47283936,-113.6514664,179.959259
665,4144227339,68.85489655,51.3138237,-35.60496521,-15.14970779,-11.93940258,-16.78192711,-91.76660919,-49.640625,123.2250671
666,4144244006,68.22458649,50.87055588,-34.69385529,-12.76143837,-15.0055294,-19.94588852,-80.42435455,22.23338509,39.47111893
667,4144260673,68.63890839,51.97194672,-33.31457901,-12.43602562,-18.51549149,-21.45463181,-39.96371841,72.30719757,-40.28653336
668,4144277340,69.40775299,53.85170746,-31.72291946,-12.41691589,-15.67290401,-17.10222435,-30.22544479,94.16818237,-82.45723724
669,4144294007,71.4212265,56.03722,-29.04023361,-14.04186344,-4.56505537,-12.78504753,-11.17863464,131.0597076,-90.27225494
670,4144310674,73.45146942,57.5100441,-28.62582779,-19.49552345,7.242483139,0.619610786,100.7418213,39.69094849,-77.87304688
671,4144327341,70.61959076,58.0485611,-33.07535172,-9.138963699,26.99395943,26.97294426,55.73729324,-125.4085464,-72.34371948
672,4144344008,75.61992645,63.27099228,-24.56214142,-11.43381596,-12.566576,1.555769682,-145.9097137,330.1939392,-224.2149658
673,4144360675,87.84896088,66.71064758,-15.55344772,-31.10298347,-6.57895422,-17.23810196,243.1673279,255.6070709,-168.6098022
674,4144377342,90.01250458,67.71619415,-13.22397995,-10.4226408,1.50509572,-4.80592823,0.72540611,55.23670197,-57.046772
675,4144394009,96.45062256,68.84657288,-7.441662788,-3.079173326,10.20727825,-4.423989296,63.68501282,124.3045959,-72.62056732
676,4144410676,102.8849335,70.02742004,-1.246625662,-10.54648685,7.642598152,-8.563183784,37.7342453,116.7509384,-89.43376923
677,4144427343,105.5777969,71.38561249,1.381501555,-12.2889843,1.471832275,-3.464886427,12.46793175,30.44802475,-89.5619278
678,4144444010,109.4469452,72.17578125,5.167356014,-9.187656403,2.78329277,-0.674221396,16.11480713,53.43228149,-64.33966064
679,4144460677,113.6378784,72.83374023,9.321308136,-12.49528217,1.780917406,-0.66673094,13.48189354,55.16436005,-61.9895668
680,4144477344,117.7928696,73.25172424,13.30564499,-9.72769928,0.693852961,-0.51943177,20.38615799,51.89704132,-50.62083054
681,4144494011,121.9827118,73.37932587,17.22201538,-9.822256088,1.981124997,-2.275407314,26.05765724,54.63415146,-38.03594208
682,4144510678,125.8581619,73.41602325,20.67862701,-9.337071419,2.938759089,-2.354518652,33.54572296,47.90578461,-32.68191528
683,4144527345,129.5690765,73.40621185,23.94108772,-9.297065735,3.599264145,-2.69152236,34.82653427,44.52710342,-31.51553917
684,4144544012,133.0217133,73.40817261,26.99279022,-8.972223282,3.736783028,-2.058191776,31.45718384,39.16854477,-32.39231873
685,4144560679,136.5071411,73.38395691,30.13680649,-9.111349106,3.441272497,-1.948375344,28.12961388,39.25223541,-34.72975159
686,4144577346,140.0714569,73.30928802,33.33321381,-9.157387733,2.739974499,-2.274895668,29.90698814,39.86938477,-35.85528946
687,4144594013,143.773407,73.16053772,36.659729,-9.420835495,2.991444588,-2.241338253,30.80262756,42.48517227,-37.62256241
688,4144610680,147.6636963,72.95801544,40.19793701,-9.489481926,2.97767663,-1.974121928,30.12953186,44.83297348,-42.07972717
689,4144627347,151.9088745,72.65057373,44.08589554,-10.09215927,2.591805696,-1.652821064,31.66171455,50.59009552,-48.12550354
690,4144644014,156.2174683,72.24115753,48.04867554,-10.87834358,2.848893404,-1.746939421,31.62567139,53.39342499,-51.56079483
691,4144660681,160.4849091,71.75875854,51.92141724,-10.84851074,2.466959953,-2.075153112,34.87779617,53.33072662,-53.87546539
692,4144677348,164.7652588,71.1674881,55.68196869,-11.5914135,3.162391424,-1.914948463,42.71747971,55.21366501,-55.68431473
693,4144694015,169.350174,70.4432373,59.58265686,-11.58119869,3.285348654,-1.297249675,53.89572525,59.51727295,-63.07750702
694,4144710682,174.2566986,69.47776794,63.7208786,-12.09459305,3.829474449,-0.743761659,60.96248627,69.39015198,-73.77189636
695,4144727349,179.5715485,68.24493408,68.13470459,-12.600317,3.211046934,-0.701160431,71.71907043,78.91326141,-89.19605255
696,4144744016,-174.7441559,66.67874908,72.82225037,-13.12340832,2.841498137,-0.229403734,81.12598419,89.24272156,-109.4658279
697,4144760683,-169.1281128,64.77423096,77.39756775,-13.26429939,5.030459404,0.30575648,86.56597137,97.20090485,-125.5540848
698,4144777350,-163.8399353,62.4990921,81.58776093,-13.84751892,7.13301897,0.85664165,91.86449432,106.5363159,-138.2520294
699,4144794017,-158.8656311,59.99394226,85.13722229,-14.41643238,9.061516762,0.872632205,111.6215591,109.5929489,-142.9308777
700,4144810684,-154.0431671,57.270504,88.16438293,-15.62404823,11.20368481,1.149732113,134.1555023,111.9960098,-149.7623291
701,4144827351,-149.3299866,53.50974274,90.85708618,-17.87656593,11.06925678,-2.202045918,149.7037964,155.1107483,-185.618454
702,4144844018,-145.0424042,48.27902985,92.46781158,-22.63386345,13.72675323,-3.076387882,182.0946808,230.7689209,-219.1478577
703,4144860685,-140.3211975,43.21404266,93.48236084,-23.55952835,15.0621357,-0.32741195,239.5360718,216.0296326,-215.8865814
704,4144877352,-136.091217,38.92288589,94.00494385,-18.74711227,16.36992455,-3.660102844,233.1929932,176.3561249,-187.0568848
705,4144894019,-133.5553894,35.93266296,94.65066528,-17.83970451,11.64712906,-7.183766365,128.7118378,104.8175888,-146.7583618
706,4144910686,-132.2491913,35.23245621,95.72595215,-8.420295715,4.42028141,-6.163531303,40.98011017,-9.659012794,-64.32149506
707,4144927353,-133.9749603,37.49465942,96.5027771,-18.74686432,20.04012489,10.19898129,-130.9863586,-119.97155,75.6207962
708,4144944020,-134.565506,40.16503906,97.91539764,3.259008646,4.886018276,2.750787735,-88.36435699,-158.8862457,70.80685425
709,4144960687,-136.0437469,41.78090668,97.31938171,-3.557244778,3.526649714,2.160072803,-65.00018311,-49.6794548,89.58303833
710,4144977354,-138.1183014,44.63010406,96.30912781,-5.294202805,6.201457024,0.722549915,-82.72605133,-94.88485718,150.9441071
711,4144994021,-141.0895538,48.74634933,95.09576416,-5.404021263,5.091117382,0.038889229,-124.9679031,-155.5049744,200.2778625
712,4145010688,-145.1679535,53.50826263,93.03822327,-5.862512589,3.285069942,1.785478592,-148.1514893,-181.8509521,235.5942841
713,4145027355,-150.5775146,58.41731262,89.68903351,-6.832357883,2.275025845,1.272358537,-157.493866,-189.3474731,254.0396576
714,4145044022,-158.1438599,63.16140366,84.25508881,-10.26731968,1.431830883,-0.864605844,-168.6894836,-187.3577728,268.6686096
715,4145060689,-168.4380646,67.98547363,75.90830994,-13.41518497,0.951223493,-2.038547039,-160.6719513,-216.8921967,283.4519653
716,4145077356,175.62146,72.3997345,61.8518219,-14.21296024,1.869213581,-1.295992136,-161.4249725,-244.4623108,303.2911987
717,4145094023,152.2482758,74.97988129,40.34698486,-15.45671844,2.175779581,-2.380683422,-162.1032104,-245.8933411,306.3876953
718,4145110690,126.1815338,74.90119171,16.10022545,-19.37419128,3.464015722,-4.738032818,-157.166687,-241.6843414,289.3668518
719,4145127357,103.6062851,72.45491028,-4.634663105,-22.68147659,2.711766005,-6.938955784,-158.9019012,-254.7427826,279.5570374
720,4145144024,88.20729828,68.30547333,-18.22249794,-21.44505119,1.262637496,-9.57234478,-154.6770477,-246.3537445,276.1697693
721,4145160691,78.72431183,63.66239166,-25.73914909,-21.09459305,0.893298686,-12.40142822,-156.2382355,-213.9674377,257.4025879
722,4145177358,72.90055084,59.23524094,-29.93071175,-20.27596855,-1.380374908,-15.33986855,-128.1224976,-181.6194611,229.9756622
723,4145194025,69.2649231,55.22520447,-32.34310532,-17.70397377,-6.149704933,-16.32547951,-96.20371246,-152.142868,204.2351074
724,4145210692,67.69670105,52.27197266,-33.20168304,-15.01054859,-10.06609249,-17.80545425,-52.5941925,-93.289711,155.791153
725,4145227359,67.57060242,51.2140007,-33.02816391,-13.012393,-14.6441803,-20.75980949,-15.7230444,-18.23912239,63.28022003
726,4145244026,68.24052429,51.87800598,-32.58989334,-12.30982399,-19.62160873,-21.92038727,19.5276432,30.12289047,-28.58722305
727,4145260693,68.86456299,53.52095413,-31.43831253,-10.9315052,-16.27628708,-16.69715118,-17.71427917,75.04708862,-74.19892883
728,4145277360,70.35401917,56.08144379,-29.39358711,-11.28976822,-10.85846233,-14.48823452,-11.11154938,119.8171463,-117.0861206
729,4145294027,72.29216766,57.8793869,-27.62668419,-16.40262222,2.908185005,-6.006340027,27.11681175,89.2913208,-81.40512085
730,4145310694,71.77889252,57.51171112,-30.60301781,-16.12083244,26.74449158,14.28793812,119.8562317,-97.5578537,-6.168410778
731,4145327361,73.68558502,60.93220139,-29.37054825,-1.840515971,13.37515068,27.9039669,50.60759735,97.05366516,-182.4799805
732,4145344028,84.28081512,66.16281891,-16.31006432,-27.15910339,-19.92856979,-30.3939209,-67.22831726,401.756958,-237.3509827
733,4145360695,90.68521118,67.82714081,-11.9817028,-26.80739975,-0.186828569,-1.19297719,144.820755,105.7880096,-92.9910202
734,4145377362,94.2175827,68.7658844,-9.364143372,-0.432377815,7.053231716,-4.877632618,65.74984741,55.60186005,-56.48351669
735,4145394029,101.7487335,69.67272186,-1.533511162,-6.317880154,9.888870239,-9.613595963,12.22000504,157.4116821,-74.65712738
736,4145410696,106.1313171,71.04151154,2.656885386,-14.48813057,3.726774693,-5.787336349,25.83884048,62.2179985,-97.79232025
737,4145427363,108.5793839,71.98651886,5.169678688,-9.804305077,0.347136766,-2.872174978,3.600417614,28.68216705,-66.1450119
738,4145444030,112.1707535,72.64479828,8.640102386,-12.1850853,2.890752316,-0.287710667,16.79963493,45.50379944,-56.81240463
739,4145460697,115.3704453,73.18310547,11.47362709,-10.98492622,0.214862153,0.112021334,29.19087601,32.65544128,-47.46519852
740,4145477364,118.9956131,73.34112549,14.71587849,-9.598495483,1.80608952,-0.757251859,30.9436264,45.45883179,-31.81053352
741,4145494031,122.2657852,73.34127045,17.55517769,-9.558037758,2.478446007,-2.647659779,32.75812531,41.97214508,-22.66982079
742,4145510698,125.0314636,73.33132935,19.86069489,-8.89511013,3.70416522,-2.667479038,33.16632462,33.30794907,-19.27169991
743,4145527365,127.6391373,73.33914948,22.04433632,-8.575566292,4.249743462,-2.341231346,30.697052,29.94537926,-20.43350601
744,4145544032,130.2613525,73.39298248,24.246418,-8.659761429,4.10144043,-1.852772355,30.49530983,27.33727646,-24.08574677
745,4145560699,133.0726318,73.45301056,26.69120598,-8.969332695,3.21137166,-1.655690789,27.84871864,28.82437897,-28.3151741
746,4145577366,136.2159119,73.43985748,29.53664207,-9.370258331,2.694696426,-1.373450994,24.71910286,35.1155014,-31.42174911
747,4145594033,139.7308655,73.3445816,32.77423477,-8.963927269,3.289347172,-1.753688216,24.52067375,41.36458969,-35.22486115
748,4145610700,143.6940918,73.20755005,36.44762421,-9.257871628,3.43970871,-1.769808173,26.49405289,45.69491196,-42.49779892
749,4145627367,148.0372162,73.00045776,40.47722626,-9.456394196,3.053947926,-2.175860167,29.03791809,49.65369797,-49.00027466
750,4145644034,152.6255188,72.7390213,44.66872787,-10.77544117,2.687861681,-1.769038558,34.75458908,50.23204041,-54.41249466
751,4145660701,157.309494,72.40574646,48.8755722,-10.73659897,2.840848207,-1.466738939,40.01401901,50.04107666,-57.84893036
752,4145677368,162.162735,71.8557663,53.14411163,-11.56817341,3.509545326,-1.649345994,47.25413132,58.09820557,-60.1098671
753,4145694035,167.3204956,71.18626404,57.58878326,-11.66011906,3.586704969,-1.456274986,56.34805679,60.91857529,-68.79208374
754,4145710702,172.8583374,70.28705597,62.28426361,-11.90676403,3.90351367,-1.186330557,66.13057709,69.05500793,-80.08809662
755,4145727369,178.810318,69.09515381,67.22516632,-12.87428856,3.987968922,-1.057300568,78.91834259,78.68904877,-95.23516846
756,4145744036,-174.824646,67.63890839,72.44924164,-13.30059052,3.85099721,-0.281231105,90.37280273,83.18131256,-116.3124008
757,4145760703,-168.505127,65.76550293,77.63786316,-13.65825272,4.798365116,0.317855299,93.05677032,93.23365784,-135.9110718
758,4145777370,-162.6003265,63.53034973,82.31295013,-14.1024704,6.803044319,0.914806485,100.6296616,99.77996063,-147.5546417
759,4145794037,-157.0830383,61.04829407,86.36747742,-14.81985474,8.786530495,1.717022181,115.5189896,100.7287445,-155.3134155
760,4145810704,-151.9565277,58.20662689,89.89916992,-17.3549118,11.23903847,2.465209961,124.6614609,107.7691422,-167.8657837
761,4145827371,-147.3459473,54.24619675,92.98519135,-18.56181717,12.73954868,-1.850543022,122.6135254,153.0284729,-206.6812134
762,4145844038,-143.1310577,48.55554199,94.73616028,-21.40742683,12.33730698,-4.925479889,170.5999146,243.170166,-246.3697662
763,4145860705,-138.7304993,43.71572876,95.98474884,-22.02026749,13.13408279,0.269152999,209.953537,192.8423309,-221.1688995
764,4145877372,-135.3243408,40.13085175,96.7397995,-15.39138889,15.00160503,-1.975023389,174.1798248,134.5633392,-169.1001587
765,4145894039,-132.6422272,37.28606415,97.30362701,-13.68049526,7.446945667,-7.636184216,139.9208984,99.73933411,-138.957901
766,4145910706,-131.4319,37.19163895,98.0908432,-7.396648407,2.043975353,-6.230707645,44.23283005,-23.92217064,-27.19921112
767,4145927373,-132.4311066,38.9760704,98.24297333,-15.9150362,16.21030807,5.556923866,-65.36110687,-76.66777802,77.04251099
768,4145944040,-132.1117554,42.51947021,99.80882263,1.343253016,7.626004696,5.816627502,-41.92838669,-195.4153137,111.6084061
769,4145960707,-133.046875,44.45427322,99.42815399,-0.715800047,4.635861874,2.326144695,-40.10747147,-66.08560181,98.878479
770,4145977374,-135.3053131,47.06595993,98.32800293,-3.806444883,6.343736649,1.924292207,-87.91267395,-75.92293549,146.6587524
771,4145994041,-138.2959595,50.65219116,96.93661499,-5.202456474,5.102502823,0.025415495,-116.1741562,-118.9974594,189.533371
772,4146010708,-141.9052429,54.85005569,95.05045319,-7.371033669,2.835618019,0.104663357,-126.036911,-149.0473022,216.2844849
773,4146027375,-146.5897522,59.55011749,92.09329987,-8.137851715,2.641330481,0.246833086,-131.3109131,-172.4049225,244.9491882
774,4146044042,-153.4447327,64.31516266,87.02496338,-9.304122925,3.047712088,-0.772987127,-142.2032013,-175.7362213,268.8717651
775,4146060709,-163.6171112,69.00521088,78.68710327,-11.50114059,2.295018911,-1.68592298,-149.9186707,-188.5623016,289.2895508
776,4146077376,-179.1724548,73.04444122,64.96569061,-13.29119587,1.953842402,-1.982582927,-153.668457,-197.9083557,302.2354736
777,4146094043,159.0212402,75.69903564,44.97952652,-15.02587318,4.073141575,-2.414395332,-152.3665009,-210.6691284,291.1448364
778,4146110710,133.1665497,76.09710693,20.9235363,-18.41091537,3.88226676,-3.357967138,-150.014328,-214.1374817,278.8596191
779,4146127377,109.8007965,73.99647522,-0.816326559,-20.39669991,1.67949307,-6.080848217,-140.2102814,-220.7196045,282.4537964
780,4146144044,93.74680328,70.17799377,-15.38793278,-21.02964401,1.015997291,-9.011548042,-130.2321777,-216.2174225,279.3253479
781,4146160711,83.40103912,65.67813873,-24.19291687,-21.42939758,1.633961201,-11.10334015,-130.3847809,-205.0348511,266.2596741
782,4146177378,76.72294617,61.20687103,-29.40967178,-20.35233688,-0.687088847,-13.69540024,-120.3298492,-184.0660553,241.901123
783,4146194045,73.05810547,57.05929947,-32.11257172,-17.56543159,-5.145591736,-15.14257717,-80.45230103,-145.2142944,220.5555267
784,4146210712,71.34072876,53.78199387,-32.94897079,-16.07865334,-9.485039711,-15.19324493,-61.65015411,-87.26116943,180.5937042
785,4146227379,70.60135651,52.34944153,-32.5831871,-13.9827652,-13.76995373,-17.9935112,-61.96461105,-15.54955769,87.68367767
786,4146244046,70.89997101,52.80972672,-31.77161598,-12.73168468,-19.43312263,-22.40333176,-20.86285019,37.04475784,-14.14883137
787,4146260713,71.38304901,54.15243912,-30.54805946,-11.80903435,-18.59594536,-16.82505417,-30.167099,67.37671661,-59.90659332
788,4146277380,72.89233398,56.38733673,-28.07190514,-11.31136894,-10.20740223,-13.65916348,-31.78335953,121.6896591,-99.39307404
789,4146294047,75.04113007,58.43028259,-25.44271088,-14.72550678,-0.254017025,-8.786772728,-4.286282063,115.5256271,-92.04052734
790,4146310714,74.38497162,58.68185806,-26.34452629,-20.43577003,23.77005959,13.84637356,6.496587276,-23.23836899,-19.7234478
791,4146327381,74.00849152,60.89204025,-27.26006699,-0.321521074,13.46450043,24.78286362,24.63015556,9.51584053,-132.8618469
792,4146344048,81.86631775,65.77750397,-16.17201233,-21.54945755,-21.26145554,-20.79351616,-123.9696808,352.6802673,-220.859436
793,4146360715,89.86721802,67.39078522,-10.2140255,-27.75235367,0.401578397,-0.179432362,151.6885376,148.5907288,-83.93722534
794,4146377382,93.08132172,68.22442627,-7.569209099,-4.710611343,5.57940197,-6.467794895,45.65761948,58.60716248,-49.26957703
795,4146394049,99.48543549,69.05734253,-0.98295176,-5.800158024,9.264325142,-8.338971138,15.89086342,137.5056458,-63.09642029
796,4146410716,104.00634,70.16220856,3.28984952,-13.01030254,4.479619026,-8.221442223,30.6331768,73.918396,-80.81251526
797,4146427383,104.9992294,71.11257172,4.325416565,-12.363204,-0.452308118,-2.472497463,0.665906191,5.62289381,-58.13508606
798,4146444050,107.2793427,71.640625,6.318685532,-9.879552841,3.44950676,-0.249715865,23.17060471,27.8397789,-38.82183075
799,4146460717,109.5065536,72.17498016,8.118948936,-10.98370743,1.767818213,0.551487327,30.6666317,21.6723423,-38.78283691
800,4146477384,112.2216339,72.42243195,10.37772179,-8.736733437,2.526507139,1.336073637,33.5194931,33.17335892,-26.32611084
801,4146494051,115.0129547,72.55865479,12.7177,-9.00752449,3.548651457,-1.291881919,33.32698441,35.38515091,-22.19047546
802,4146510718,117.5502777,72.68526459,14.69839096,-8.434171677,4.532119751,-2.153091669,38.57104874,28.42140579,-20.30914307
803,4146527385,119.9945526,72.84094238,16.53601074,-8.164052963,4.667954445,-1.918430805,41.10910797,24.09897804,-21.69965363
804,4146544052,122.5165329,73.02283478,18.48391914,-8.197962761,4.498524666,-1.409317493,39.3518486,23.61799812,-24.92276573
805,4146560719,125.370842,73.18431854,20.94840813,-8.793536186,3.958475113,-1.294493914,29.53863525,30.19824409,-29.83193398
806,4146577386,128.6531372,73.29611969,23.95512581,-9.283069611,3.073954105,-1.281035423,23.96933365,37.45510483,-34.47080231
807,4146594053,132.2735138,73.33950043,27.33712196,-9.183164597,3.243521214,-1.444638848,22.62639046,42.57991791,-37.5827446
808,4146610720,136.2676392,73.32330322,31.13998795,-9.305333138,3.53039813,-2.018842936,20.85441017,47.48895645,-42.79121017
809,4146627387,140.3805084,73.29042053,35.03396606,-9.499080658,3.181655169,-1.888655543,22.76772118,46.04378891,-46.6235199
810,4146644054,144.7496033,73.12949371,39.23464584,-9.894078255,2.540113926,-1.92261219,20.64649391,51.86143112,-49.75162888
811,4146660721,149.2841339,72.86005402,43.57739639,-10.06216049,2.810749054,-1.923536062,22.70203209,54.97725296,-52.93645096
812,4146677388,153.8616333,72.42381287,47.94208145,-11.01500702,2.720491648,-2.440217972,24.50129509,60.13695526,-54.0679512
813,4146694055,158.4140625,72.04644775,51.92440033,-12.32987499,3.096933126,-1.505565047,45.42195892,50.13375854,-55.3300705
814,4146710722,163.4705353,71.51959229,56.15692902,-11.62342739,3.543473244,-1.037836909,61.98761368,55.73047256,-62.53721237
815,4146727389,169.2425842,70.75392151,60.98035431,-12.28068829,4.06619215,-0.245029509,72.29312897,66.6257782,-77.9054184
816,4146744056,175.5830536,69.66941833,66.27106476,-12.39096451,4.182266235,-0.168444514,81.55389404,78.57831573,-95.7456665
817,4146760723,-177.8051605,68.16401672,71.81797028,-12.99102879,4.062738895,-0.176210478,85.99791718,92.49468231,-115.7440567
818,4146777390,-171.2835999,66.2664566,77.25281525,-13.21881866,4.939693451,-0.077368289,90.47324371,101.1819229,-134.3253632
819,4146794057,-165.1740417,63.95874405,82.209198,-13.88269138,6.938333511,0.289498478,96.63282013,109.8872223,-148.5519257
820,4146810724,-159.4729156,61.4818306,86.49996948,-14.59756279,9.081907272,1.082040548,113.1239471,105.6744156,-155.3439331
821,4146827391,-154.1144562,58.8727417,90.17707825,-16.54217148,11.26546669,2.837276697,130.0039978,100.5931473,-160.3323975
822,4146844058,-149.0579376,55.76889801,93.58421326,-17.44712639,13.09448242,1.102617502,131.2528839,111.2545929,-183.4955902
823,4146860725,-144.6200562,50.22080994,95.63846588,-17.28191566,11.91421223,-6.246182442,167.6853027,238.1343536,-242.0275574
824,4146877392,-139.9189911,43.95598602,96.53591156,-23.12501144,12.47228527,-3.506461382,242.3725739,274.9500427,-256.9487915
825,4146894059,-135.7784271,39.7109375,97.23008728,-19.1601696,13.73857498,-3.197305918,220.6635895,168.1509399,-191.808609
826,4146910726,-133.6830597,36.39000702,97.18511963,-15.67391872,9.979226112,-6.822507858,127.5331879,141.9374084,-137.8907318
827,4146927393,-130.7644958,36.51197433,98.43104553,-9.128032684,3.895728588,-4.388486862,130.8879547,-49.24380493,-32.83854294
828,4146944060,-131.8947449,37.89902496,98.06695557,-14.17987442,14.71019936,5.113517761,-54.4071312,-41.69687271,76.1203537
829,4146960727,-131.5280151,41.87406158,99.71641541,-1.07138288,13.14497662,7.969803333,-41.24063873,-215.1343536,129.6286316
830,4146977394,-132.7333527,44.00762177,99.33094025,0.334615558,4.794394016,4.091053963,-56.29738998,-73.06988525,108.4243774
831,4146994061,-135.3147583,46.53071213,97.833992,-4.255670547,5.924201012,3.091194153,-90.76005554,-59.49572372,154.9230499
832,4147010728,-139.1537933,50.21275711,95.95845795,-6.057519436,6.409667015,1.626676917,-145.8405151,-111.1774521,207.0220337
833,4147027395,-143.4201813,54.73846817,93.62278748,-7.115850449,3.335067749,0.572850823,-144.3452911,-158.2266235,238.5679932
834,4147044062,-148.5127716,59.74943161,90.26520538,-9.441452026,2.120850563,1.782818913,-135.5161133,-187.8393097,260.6997375
835,4147060729,-155.8532104,64.9254303,84.68540955,-10.5113554,1.693150878,0.051209271,-143.0752869,-201.6597137,284.3727722
836,4147077396,-166.9781799,70.03701782,75.02877045,-13.58837509,1.302800894,-1.318742514,-131.0601807,-218.8976135,309.7184448
837,4147094063,174.8716736,74.49764252,58.12501144,-15.00431824,2.097737551,-1.521599531,-121.0354462,-242.8709259,327.5752563
838,4147110730,148.5768433,76.68540192,33.09007645,-15.95753574,3.839017153,-1.748620749,-120.647934,-237.9951019,314.1630859
839,4147127397,120.9666672,75.81078339,7.100637436,-20.02355385,4.450842857,-3.360814095,-139.9174805,-224.959198,297.3415833
840,4147144064,100.3000641,72.41285706,-11.72537804,-22.38671494,2.006536245,-6.649250507,-151.8858643,-217.3137512,298.8587341
841,4147160731,87.33615875,67.8806076,-22.90516663,-22.21866608,0.969872713,-10.09306908,-145.7220612,-209.0316925,287.2659912
842,4147177398,79.08770752,63.15106201,-29.12224007,-22.21243477,1.295927525,-11.31361008,-154.720871,-187.0118103,265.1435547
843,4147194065,73.49051666,58.88214493,-32.57859039,-19.99084091,-1.188508987,-14.07522964,-153.9998169,-158.361908,226.9391327
844,4147210732,70.27695465,55.35956573,-34.21136475,-17.63406181,-7.195860863,-16.97222137,-110.3499298,-116.2955933,186.3612061
845,4147227399,68.82746124,52.89224625,-34.54075241,-16.0135746,-13.45952892,-18.6210804,-70.88817596,-62.60195541,136.7359009
846,4147244066,68.49262238,52.27610779,-33.91418457,-13.58704567,-17.67829704,-21.24113655,-50.00385666,7.821487904,44.87445068
847,4147260733,68.8507309,53.39624023,-32.99737167,-12.50636101,-20.37198257,-23.21310997,-22.46984291,55.39744949,-48.33304977
848,4147277400,69.40444183,55.25981522,-31.68510056,-11.40755463,-16.74326706,-15.99467754,-30.95409393,82.7492981,-85.8729248
849,4147294067,71.5474472,57.70949936,-28.87018585,-13.51403618,-4.828011513,-12.24951935,-12.53382969,137.0098572,-105.0483856
850,4147310734,72.77088165,58.99902344,-28.39088821,-18.79091263,6.494842052,-1.348035693,48.62343597,38.06658936,-66.73799133
851,4147327401,70.17345428,58.61042786,-33.62337494,-10.70221233,29.50212669,23.79356003,112.4227753,-161.5457916,-27.2736702
852,4147344068,73.07870483,62.93668365,-27.52352715,-4.296831608,-5.713778496,14.58350754,-145.5101013,251.2945251,-187.4590912
853,4147360735,85.06037903,66.74245453,-17.090868,-29.67334366,-10.6030283,-23.36463356,151.4342499,304.1859131,-170.6863403
854,4147377402,87.46663666,67.86483765,-14.82700348,-15.43145466,3.152732372,-1.783838511,18.75543594,56.67284012,-61.49890137
855,4147394069,92.99578094,69.08045197,-10.13109589,-3.337115765,7.121998787,-2.954641342,69.33200836,103.0450516,-71.02812958
856,4147410736,99.47991943,70.15447235,-3.761373281,-8.951635361,8.613250732,-10.37310219,30.45600891,125.2375336,-76.17331696
857,4147427403,102.4988098,71.44254303,-0.720984638,-12.99476051,4.211230278,-4.749749184,8.528935432,44.1271019,-85.0453949
858,4147444070,104.6162643,72.4749527,1.436976552,-10.047575,0.70230794,-2.216926813,3.618141174,24.41455841,-67.3812027
859,4147460737,108.0093307,73.19495392,4.766192913,-11.27371407,3.265450478,-0.367771924,12.41450119,44.39047241,-55.77420425
860,4147477404,110.7150192,73.83501434,7.250283241,-10.67726421,0.56141746,0.602518559,19.12472534,27.11495972,-48.02173996
861,4147494071,114.1553421,74.10900879,10.40494156,-9.468121529,2.080873489,-0.180072412,24.21263504,41.97471237,-32.90797043
862,4147510738,117.3808899,74.24383545,13.24508381,-9.758010864,2.360907316,-1.911725879,29.30725861,38.27135849,-25.26382637
863,4147527405,120.3035507,74.32559967,15.73303699,-8.853800774,3.5274055,-2.197244644,31.40064812,32.99504852,-21.57989693
864,4147544072,123.1430359,74.39501953,18.18779373,-8.608983994,3.882885933,-2.124051571,28.27289772,31.52623367,-22.2084465
865,4147560739,125.8742371,74.48834991,20.57050323,-8.579462051,3.900108099,-1.761013627,25.89673615,28.37054253,-24.12707138
866,4147577406,128.6717834,74.57226563,23.08758926,-8.958914757,3.1899755,-1.472938418,22.04870796,28.94657516,-26.20144463
867,4147594073,131.7151947,74.60653687,25.90050888,-9.101042747,3.109333992,-1.203950405,19.65791702,32.87403107,-28.31276321
868,4147610740,135.1290131,74.574646,29.14401054,-9.038751602,3.351862907,-1.253926754,16.97820854,38.81137848,-31.95777893
869,4147627407,138.8506317,74.48556519,32.7186203,-9.377001762,3.301365376,-1.87964046,16.36571121,42.86797333,-35.99301529
870,4147644074,142.7781677,74.39006805,36.44301605,-9.351161957,3.162409306,-2.104593039,20.16234589,42.25487137,-40.65879822
871,4147660741,147.0643158,74.23368835,40.4643898,-9.771737099,3.107049465,-1.590449572,24.66306114,45.10597992,-45.81033325
872,4147677408,151.7658691,73.96424866,44.87053299,-10.21803665,3.021009922,-1.891469717,27.63231087,50.69403839,-51.94446945
873,4147694075,156.9327087,73.57923889,49.55833817,-11.58523273,3.104645967,-1.748163462,39.75208282,54.76676178,-58.67347717
874,4147710742,162.5423431,73.11865234,54.47921371,-11.4070816,3.334642887,-0.622650623,53.50582886,55.13746643,-67.61244965
875,4147727409,168.5696869,72.34805298,59.69622803,-12.66852379,3.767774582,-0.632396936,62.54376984,67.8406601,-76.25499725
876,4147744076,174.979187,71.3523407,65.17095184,-12.5347414,3.428572416,-0.611427724,72.24956512,73.64537811,-90.53245544
877,4147760743,-178.2719574,70.00559235,70.92687988,-12.87947083,3.56573987,-0.140020967,78.84637451,83.91035461,-109.692131
878,4147777410,-171.6286926,68.23442078,76.57590485,-13.27771187,4.518755913,-0.289471716,81.71716309,95.06678772,-127.4787064
879,4147794077,-165.3202515,66.00337982,81.83777618,-13.67399597,6.095823288,-0.445494473,87.47413635,106.4797363,-144.7987671
880,4147810744,-159.4523163,63.49217606,86.41923523,-14.56136608,8.563661575,0.071056545,103.2978745,108.0019608,-155.1539764
881,4147827411,-154.0586243,60.82364655,90.30550385,-16.14403725,10.66469765,1.75273931,117.3058777,104.0533829,-161.0636902
882,4147844078,-148.6711884,58.02622604,94.01116943,-17.87991333,11.92297268,1.909244299,131.7323608,93.07158661,-177.5095215
883,4147860745,-143.8558655,53.89756393,96.82727051,-16.49424744,11.03661633,-3.048502445,148.8017578,153.4790802,-214.0582428
884,4147877412,-139.4440002,47.68603134,97.8486557,-20.01961708,13.12376022,-4.379439831,217.0318146,268.3371582,-259.5211182
885,4147894079,-135.0830231,42.57161713,98.58327484,-21.5946846,13.89398098,-2.211432219,230.3692017,204.4223175,-228.9858856
886,4147910746,-132.2224121,39.27839661,98.96509552,-15.24825764,11.61064911,-3.885120869,156.7545166,124.0453644,-152.7840729
887,4147927413,-129.2630463,38.06899643,99.78005219,-10.98300362,5.363170624,-4.443339348,147.2081757,18.64408493,-77.75878143
888,4147944080,-129.6971588,37.95841599,99.56936646,-7.674650669,7.048422337,-2.272441149,-18.0475769,12.11029243,3.329489946
889,4147960747,-129.8973694,40.60499954,100.340683,-11.35019302,16.4049263,7.094843864,-41.07678223,-128.9368286,101.1931763
890,4147977414,-130.2407227,43.10834503,100.9027481,0.604898632,5.019248486,3.963266373,-42.81367493,-115.633522,100.8952789
891,4147994081,-131.5635071,45.44749069,100.2282181,-2.724787712,5.020405769,2.989450455,-50.82648468,-69.74623871,127.157814
892,4148010748,-134.2488556,48.52589417,98.91480255,-4.29569149,6.460466862,1.901940584,-103.2218399,-86.15937805,173.9576874
893,4148027415,-137.9789276,52.51522064,97.26750946,-6.219305038,4.651871204,0.004670113,-147.087326,-128.6927795,213.3391113
894,4148044082,-142.1082001,57.182724,95.09617615,-8.635680199,2.295377254,0.718402743,-140.7503357,-166.2498322,239.4303131
895,4148060749,-147.4482727,62.28168106,91.6377182,-9.480350494,1.663802505,0.368273854,-140.5640259,-189.299942,263.9324646
896,4148077416,-155.237381,67.47409821,85.51185608,-10.88288307,2.289453983,-1.155476213,-133.7568207,-198.0293274,288.1982422
897,4148094083,-167.6003876,72.35712433,74.59944916,-13.02495861,2.537611961,-1.852886915,-125.604393,-204.7814636,307.9233093
898,4148110750,171.9898376,76.02294159,55.89125824,-14.39393997,2.961173534,-2.337762356,-142.8298798,-205.1565552,314.7580566
899,4148127417,145.0898438,77.46513367,30.72122192,-16.93717384,4.330825806,-2.624085903,-142.2012024,-204.2820587,290.9702759
900,4148144084,117.9699631,76.03876495,5.629097939,-19.3795948,3.941655874,-3.697847366,-159.9064331,-200.878418,291.6168823
901,4148160751,98.88578796,72.44218445,-11.19369698,-20.89042282,2.794050217,-6.650770664,-172.1384125,-191.7476501,290.9849243
902,4148177418,86.63401794,67.97628021,-21.19596291,-21.74539375,0.90048933,-10.84376144,-169.371994,-189.9386444,278.4454041
903,4148194085,78.6280899,63.38317871,-27.02427292,-21.42003059,0.256934255,-12.73154068,-161.000885,-178.1548004,256.5108643
904,4148210752,73.51285553,59.25069809,-30.36185455,-18.6341629,-2.540681839,-14.93834782,-130.9217377,-152.9635468,219.4397888
905,4148227419,70.74073792,55.78836823,-31.83356857,-16.63787079,-7.930597782,-16.60079002,-91.69953156,-108.9044113,185.1781311
906,4148244086,69.41248322,53.44792557,-32.03829956,-15.32006073,-12.66792202,-17.0312748,-69.67206573,-54.54930115,131.6721039
907,4148260753,69.09574127,52.86751556,-31.3445549,-12.49055386,-16.35896683,-19.54917336,-52.36268616,10.98360062,43.52487564
908,4148277420,69.65195465,53.94826508,-30.13434792,-11.79014301,-20.94498444,-22.08317184,-25.08110237,63.3565979,-43.25465775
909,4148294087,70.35708618,55.75468826,-28.52522469,-12.12803268,-16.61767387,-15.45248508,-36.86363602,89.2929306,-80.59793091
910,4148310754,72.7205658,58.01810074,-25.57777214,-14.14519787,-3.935079575,-11.34203815,-6.643140793,134.6319275,-95.90294647
911,4148327421,73.04349518,58.90279388,-26.19213676,-20.69499779,9.52900219,3.06703639,50.4638176,-2.805925608,-54.11183167
912,4148344088,70.3835144,58.69273758,-32.47391891,-4.964943409,29.27931213,27.4079113,162.4983215,-189.2923279,-46.99193954
913,4148360755,74.23866272,63.33924103,-24.084692,-6.655101299,-9.852603912,9.349157333,-209.5544586,316.8130188,-188.6605377
914,4148377422,87.17047119,66.93816376,-14.21911335,-30.84704399,-8.433774948,-22.37298775,237.9319916,280.1927185,-169.9767914
915,4148394089,89.33085632,67.85861969,-11.75110912,-13.84001637,4.715808392,-4.010643005,-7.337741375,58.52674484,-51.17722321
916,4148410756,94.52561951,68.96996307,-7.245807171,-3.26881814,8.179190636,-2.008747101,60.00710678,97.09446716,-67.67424011
917,4148427423,101.0981674,69.9907608,-0.568820715,-8.482561111,7.631307602,-11.3141613,18.80070877,130.7067413,-77.41114044
918,4148444090,103.7133179,71.22283173,2.166493654,-14.64782619,3.027821779,-4.813663006,1.772026539,37.29331589,-81.65646362
919,4148460757,104.7010117,72.11392975,3.250818491,-9.483675003,0.594097674,-1.537162066,-2.809826374,6.656402111,-54.62308502
920,4148477424,107.7957535,72.70025635,6.269291878,-11.51197815,2.525431395,0.747672021,12.72385788,42.6499939,-46.84818649
921,4148494091,110.3777084,73.18625641,8.493317604,-10.26891518,1.059734941,0.281656146,27.04455185,27.3931942,-38.12729645
922,4148510758,113.5485306,73.36219025,11.28342438,-9.407705307,2.321585655,-0.775888085,29.63452148,40.67306137,-25.57731438
923,4148527425,116.3597488,73.4732132,13.59650421,-9.16628933,3.507099867,-2.066721201,35.38523865,33.03908157,-20.52608299
924,4148544092,119.0071411,73.59579468,15.73678684,-8.262063026,4.525059223,-2.179310083,35.42069244,28.75606728,-21.20074844
925,4148560759,121.5793076,73.75531006,17.85410881,-8.334321022,4.03498745,-2.054484367,32.14572144,25.9450016,-24.06303596
926,4148577426,124.1067963,73.94062042,20.00669479,-8.490386009,4.196280956,-1.545193911,27.33149147,24.09585571,-26.61739922
927,4148594093,126.8722382,74.13217926,22.50313377,-8.676359177,3.540179968,-0.984650552,21.66570282,26.80779648,-31.07009315
928,4148610760,130.0390472,74.26164246,25.44833183,-9.110736847,2.99709034,-1.396606565,19.73391914,32.79049683,-33.81159973
929,4148627427,133.3804474,74.3312912,28.60379601,-9.091341972,2.972810507,-1.933894396,17.99161339,35.41378403,-35.01630402
930,4148644094,136.8015747,74.37680054,31.81194115,-9.260514259,2.912731647,-1.767415881,19.68118095,34.64951324,-36.50087357
931,4148660761,140.4151611,74.36758423,35.19208527,-9.281628609,3.43236208,-1.316066623,21.2851944,36.474823,-38.42993546
932,4148677428,144.2661133,74.26481628,38.84685898,-9.609491348,3.453111172,-1.960225463,19.71936226,41.02701569,-40.97635651
933,4148694095,148.2866364,74.10218048,42.64896011,-10.08144188,2.697604895,-1.997582674,21.54030609,42.56413651,-44.11402893
934,4148710762,152.8067627,73.84451294,46.86184692,-10.21518993,2.618418455,-1.823464751,28.0596447,47.70045853,-50.98329544
935,4148727429,157.9343262,73.43724823,51.52345657,-10.69424629,3.638324261,-1.285267591,39.08047104,54.95584488,-59.24766541
936,4148744096,163.6878052,72.9178772,56.59542465,-12.13827515,3.774064541,-1.098109126,53.72711563,58.28099442,-70.75328827
937,4148760763,170.015564,72.11615753,62.05279541,-11.98670578,4.399720669,-0.942385137,67.16453552,69.10084534,-82.66563416
938,4148777430,176.5787201,71.0687561,67.67329407,-12.96354675,3.545601368,-1.119378805,73.63882446,74.71430206,-96.23586273
939,4148794097,-176.6255798,69.71894073,73.38401794,-13.0444479,3.583359718,-0.363095671,84.78475189,80.89160156,-112.7448654
940,4148810764,-170.0080261,67.91900635,78.91732788,-13.03966999,4.763305664,-0.728217959,87.3127594,93.14666748,-129.5027618
941,4148827431,-163.8475037,65.66563416,83.90808868,-13.81201744,6.522889614,-0.990915358,94.24984741,104.8652649,-143.3169708
942,4148844098,-158.0251465,63.0469017,88.28768921,-15.45178223,8.689847946,-0.026716709,112.2958679,111.2456818,-156.6096039
943,4148860765,-152.4704285,60.30343246,92.06551361,-19.04876328,11.54252815,1.845550299,133.6661682,104.3900223,-164.3966217
944,4148877432,-146.9105377,57.38956451,95.65206146,-19.13184547,14.34287739,0.907439828,149.3320923,94.70989227,-182.1825714
945,4148894099,-141.7353058,52.64525604,98.19742584,-17.17379951,10.78509808,-3.290439367,185.2623291,180.195816,-235.0048676
946,4148910766,-136.8576965,46.60124207,99.15083313,-18.94301987,9.87275219,-3.909245491,248.9008942,250.8709869,-262.5196228
947,4148927433,-132.9906921,42.6275177,99.73963165,-18.04982185,11.95814705,-1.238175511,207.2647705,150.7071838,-184.4753571
948,4148944100,-130.6315765,39.93001938,99.91448212,-13.45253468,8.402481079,-4.401810169,134.7930908,102.2063065,-123.7801437
949,4148960767,-128.1543579,39.47991562,100.5104675,-8.439071655,2.49465847,-4.750932693,126.0319061,-3.893500805,-36.203022
950,4148977434,-129.3311005,39.4925766,99.89787292,-10.32003784,10.96170235,-0.646399796,-47.01657104,21.84326935,20.43750191
951,4148994101,-128.9326324,42.30024338,101.1762085,-5.356956959,12.61821651,7.474668503,-26.06109428,-151.0555267,96.16860199
952,4149010768,-129.8319244,44.17458344,101.2058945,0.06248657,4.785907269,3.095538378,-54.88158417,-72.09496307,88.19580841
